Timestamp	PC Timestamp	Low Noise Accelerometer X	Low Noise Accelerometer Y	Low Noise Accelerometer Z	Int A12	Int A13	Int A14	Gyroscope X	Gyroscope Y	Gyroscope Z	Wide Range Accelerometer X	Wide Range Accelerometer Y	Wide Range Accelerometer Z
186938.080	NaN	-6.098	2.337	20.935	1503.297	1499.634	1496.703	-0.992	0.290	-1.863	-0.459	-1.148	-9.493
186939.056	NaN	-5.696	2.370	21.130	1504.029	1499.634	1495.971	-0.901	0.229	-1.771	-0.077	-1.301	-9.263
186940.033	NaN	-5.989	2.370	20.989	1505.495	1500.366	1497.436	-1.145	0.260	-1.725	-0.383	-1.301	-9.416
186941.010	NaN	-5.989	2.326	20.859	1504.029	1500.366	1495.238	-1.115	0.290	-1.588	-0.459	-1.378	-9.263
186941.986	NaN	-6.033	2.304	21.033	1503.297	1500.366	1495.238	-1.008	0.321	-1.496	-0.842	-1.301	-9.493
186942.963	NaN	-5.793	2.359	21.174	1504.762	1500.366	1496.703	-1.038	0.458	-1.618	-0.230	-1.225	-9.187
186943.939	NaN	-5.978	2.337	21.043	1500.366	1500.366	1495.238	-1.237	0.504	-1.679	-0.536	-1.072	-9.416
186944.916	NaN	-5.902	2.370	20.870	1503.297	1499.634	1495.971	-1.130	0.443	-1.649	-0.536	-1.225	-9.569
186945.892	NaN	-5.783	2.391	21.054	1502.564	1500.366	1495.238	-0.947	0.519	-1.710	-0.306	-1.301	-9.187
186946.869	NaN	-5.978	2.402	20.935	1503.297	1500.366	1495.238	-0.901	0.519	-1.847	-0.153	-1.225	-9.187
186947.845	NaN	-5.815	2.370	21.141	1502.564	1500.366	1494.505	-1.053	0.427	-1.725	-0.306	-0.077	-9.416
186948.822	NaN	-5.978	2.391	21.033	1502.564	1500.366	1493.773	-0.977	0.351	-1.573	-0.459	-1.225	-9.416
186949.799	NaN	-5.837	2.446	20.935	1504.029	1500.366	1496.703	-0.962	0.336	-1.740	-0.459	-1.455	-9.263
186950.775	NaN	-6.196	2.348	20.783	1504.029	1500.366	1495.971	-1.115	0.229	-1.802	-0.766	-1.072	-9.569
186951.752	NaN	-5.772	2.380	21.087	1504.762	1498.901	1495.971	-0.962	0.183	-1.618	-0.306	-1.378	-9.340
186952.728	NaN	-5.978	2.348	21.022	1504.029	1500.366	1494.505	-0.916	0.443	-1.756	-0.689	-1.225	-9.493
186953.705	NaN	-5.967	2.326	20.859	1502.564	1500.366	1494.505	-0.992	0.565	-1.725	-0.383	-1.148	-9.340
186954.681	NaN	-6.011	2.326	21.000	1502.564	1499.634	1495.971	-1.221	0.382	-1.573	-0.612	-1.531	-9.340
186955.658	NaN	-5.761	2.380	21.152	1503.297	1500.366	1495.238	-1.115	0.229	-1.573	0.000	-1.225	-9.187
186956.635	NaN	-5.946	2.359	20.978	1503.297	1499.634	1495.238	-1.176	0.198	-1.527	-0.459	-1.148	-9.569
186957.611	NaN	-5.957	2.359	20.815	1503.297	1500.366	1493.773	-1.130	0.198	-1.374	-0.536	-1.148	-9.569
186958.588	NaN	-5.848	2.370	20.967	1504.762	1501.099	1495.238	-1.252	0.382	-1.511	-0.766	-1.455	-9.416
186959.564	NaN	-6.011	2.348	20.978	1504.029	1500.366	1494.505	-1.191	0.305	-1.786	-0.459	-1.225	-9.340
186960.541	NaN	-5.815	2.315	21.228	1502.564	1499.634	1496.703	-0.992	0.305	-1.802	-0.766	-1.148	-9.493
186961.517	NaN	-5.935	2.348	21.022	1504.029	1500.366	1498.168	-0.885	0.489	-1.771	-0.459	-1.378	-9.493
186962.494	NaN	-5.750	2.413	21.033	1504.029	1501.099	1495.971	-0.947	0.626	-1.679	-0.153	-1.148	-9.110
186963.470	NaN	-6.087	2.380	20.848	1503.297	1501.099	1495.971	-1.115	0.458	-1.786	-0.306	-1.301	-9.187
186964.447	NaN	-5.707	2.402	21.120	1503.297	1500.366	1495.238	-0.992	0.351	-1.802	-0.306	-1.225	-9.263
186965.424	NaN	-6.000	2.370	21.022	1504.029	1500.366	1494.505	-1.053	0.397	-1.863	-0.383	-1.225	-9.340
186966.400	NaN	-5.891	2.337	20.913	1504.029	1501.099	1495.971	-1.038	0.565	-1.771	-0.383	-1.148	-9.646
186967.377	NaN	-6.033	2.304	20.913	1504.029	1499.634	1496.703	-1.282	0.656	-1.740	-0.689	-1.072	-9.569
186968.353	NaN	-5.804	2.337	21.054	1504.029	1500.366	1495.971	-1.389	0.473	-1.695	-0.306	-1.301	-9.263
186969.330	NaN	-5.989	2.348	20.978	1504.762	1501.099	1495.971	-1.206	0.382	-1.817	-0.689	-1.301	-9.340
186970.306	NaN	-5.989	2.337	20.902	1503.297	1501.099	1494.505	-1.038	0.336	-1.893	-0.306	-1.072	-9.340
186971.283	NaN	-5.967	2.359	21.033	1503.297	1500.366	1495.238	-1.069	0.550	-1.802	-0.459	-1.301	-9.416
186972.260	NaN	-5.870	2.402	21.011	1504.029	1500.366	1494.505	-1.099	0.580	-1.664	0.000	-1.225	-9.033
186973.236	NaN	-5.804	2.359	21.141	1502.564	1501.099	1493.773	-1.176	0.489	-1.740	-0.536	-1.225	-9.263
186974.213	NaN	-5.935	2.370	20.880	1503.297	1501.832	1495.971	-1.176	0.504	-1.740	-0.459	-1.148	-9.493
186975.189	NaN	-5.783	2.446	20.989	1504.029	1501.099	1495.971	-0.992	0.443	-1.771	-0.842	-1.378	-9.416
186976.166	NaN	-6.076	2.391	20.935	1503.297	1501.099	1495.238	-0.916	0.443	-1.878	-0.383	-1.225	-9.416
186977.142	NaN	-5.685	2.391	21.196	1504.029	1500.366	1495.238	-0.763	0.504	-1.954	-0.689	-1.301	-9.416
186978.119	NaN	-5.913	2.370	21.087	1504.029	1500.366	1493.773	-0.779	0.427	-1.939	-0.459	-1.301	-9.416
186979.095	NaN	-5.837	2.424	20.967	1504.762	1501.099	1496.703	-0.748	0.382	-1.664	-0.153	-1.148	-9.263
186980.072	NaN	-6.000	2.348	20.957	1504.029	1500.366	1497.436	-1.160	0.443	-1.725	-0.842	-1.225	-9.569
186981.049	NaN	-5.772	2.380	21.141	1504.762	1500.366	1495.971	-1.405	0.412	-1.725	-0.230	-1.225	-9.187
186982.025	NaN	-6.011	2.370	20.946	1503.297	1501.099	1494.505	-1.145	0.366	-1.908	-0.383	-1.225	-9.416
186983.002	NaN	-5.978	2.293	20.891	1504.762	1500.366	1494.505	-1.130	0.382	-1.939	-0.536	-1.301	-9.569
186983.978	NaN	-5.935	2.326	21.022	1504.029	1501.099	1494.505	-1.298	0.427	-1.924	-0.842	-1.072	-9.493
186984.955	NaN	-5.924	2.380	21.130	1504.029	1499.634	1495.971	-1.359	0.565	-1.863	-0.153	-1.301	-9.187
186985.931	NaN	-5.924	2.370	21.087	1501.832	1500.366	1494.505	-1.282	0.519	-1.771	-0.689	-1.225	-9.493
186986.908	NaN	-5.946	2.380	20.924	1500.366	1498.901	1495.971	-1.008	0.458	-1.725	-0.383	-1.225	-9.340
186987.885	NaN	-5.761	2.424	21.130	1504.762	1500.366	1495.971	-0.992	0.427	-1.817	-0.536	-1.455	-9.340
186988.861	NaN	-6.043	2.359	20.946	1501.832	1499.634	1495.238	-1.206	0.443	-1.802	-0.077	-1.225	-8.957
186989.838	NaN	-5.717	2.370	21.283	1504.029	1501.832	1495.238	-1.099	0.412	-1.817	-0.306	-1.301	-9.340
186990.814	NaN	-5.891	2.359	21.130	1503.297	1500.366	1495.971	-1.023	0.550	-1.817	-0.306	-1.301	-9.493
186991.791	NaN	-5.804	2.402	21.033	1504.762	1500.366	1496.703	-0.779	0.595	-1.740	-0.383	-1.148	-9.187
186992.767	NaN	-6.098	2.315	20.913	1503.297	1501.099	1495.971	-1.206	0.611	-1.878	-0.766	-1.225	-9.340
186993.744	NaN	-5.663	2.380	21.163	1503.297	1501.099	1495.971	-1.282	0.504	-1.939	-0.077	-1.072	-9.263
186994.720	NaN	-5.967	2.380	20.946	1504.029	1500.366	1495.971	-1.145	0.534	-1.985	-0.459	-1.225	-9.416
186995.697	NaN	-5.967	2.283	20.826	1504.029	1501.099	1495.971	-1.099	0.580	-1.771	-0.306	-0.995	-9.110
186996.674	NaN	-5.946	2.337	21.054	1503.297	1501.832	1496.703	-1.237	0.611	-1.817	-0.842	-1.378	-9.493
186997.650	NaN	-5.859	2.326	21.098	1504.029	1500.366	1496.703	-1.221	0.595	-1.649	-0.077	-1.225	-9.110
186998.627	NaN	-5.946	2.359	21.033	1503.297	1500.366	1494.505	-1.084	0.534	-1.832	-0.766	-1.301	-9.416
186999.603	NaN	-5.978	2.402	20.946	1504.762	1500.366	1495.238	-0.947	0.397	-1.954	-0.459	-1.378	-9.493
187000.580	NaN	-5.783	2.413	21.054	1504.762	1501.099	1495.238	-0.931	0.321	-1.908	-0.230	-1.072	-9.263
187001.556	NaN	-6.054	2.391	21.000	1504.762	1501.099	1495.971	-1.115	0.351	-1.679	-0.153	-1.148	-9.340
187002.533	NaN	-5.728	2.391	21.217	1504.029	1500.366	1494.505	-1.008	0.458	-1.649	-0.612	-1.148	-9.493
187003.510	NaN	-5.935	2.380	21.141	1502.564	1499.634	1495.238	-0.931	0.534	-1.542	-0.306	-1.148	-9.263
187004.486	NaN	-5.783	2.424	20.989	1503.297	1500.366	1494.505	-0.962	0.336	-1.649	-0.383	-1.301	-9.416
187005.463	NaN	-6.130	2.337	20.902	1504.762	1501.099	1495.238	-1.023	0.214	-1.817	-0.766	-1.225	-9.569
187006.439	NaN	-5.696	2.359	21.196	1504.029	1500.366	1496.703	-1.115	0.366	-1.847	-0.459	-1.301	-9.110
187007.416	NaN	-5.935	2.326	21.043	1504.029	1501.099	1495.238	-1.252	0.687	-1.908	-0.612	-1.301	-9.569
187008.392	NaN	-5.946	2.337	20.880	1503.297	1500.366	1495.238	-1.130	0.763	-1.756	-0.459	-1.225	-9.416
187009.369	NaN	-6.000	2.326	21.054	1504.029	1501.099	1493.773	-1.008	0.611	-1.863	-0.689	-1.148	-9.416
187010.345	NaN	-5.761	2.359	21.163	1503.297	1500.366	1496.703	-1.053	0.397	-1.832	0.077	-1.148	-9.033
187011.322	NaN	-5.913	2.380	21.065	1504.029	1501.099	1495.971	-0.962	0.473	-2.000	-0.459	-1.225	-9.569
187012.299	NaN	-5.848	2.359	20.880	1504.029	1501.099	1494.505	-0.901	0.443	-1.786	-0.459	-1.148	-9.722
187013.275	NaN	-5.826	2.370	21.011	1504.029	1501.099	1495.971	-1.053	0.427	-1.740	-0.689	-1.531	-9.416
187014.252	NaN	-5.967	2.359	20.967	1504.762	1501.099	1495.971	-1.191	0.641	-1.878	-0.612	-1.148	-9.416
187015.228	NaN	-5.761	2.326	21.152	1504.029	1501.099	1495.971	-1.115	0.550	-1.924	-0.689	-1.378	-9.416
187016.205	NaN	-5.935	2.359	21.043	1503.297	1500.366	1495.971	-0.855	0.519	-1.740	-0.459	-1.301	-9.646
187017.181	NaN	-5.804	2.446	20.978	1504.762	1500.366	1495.971	-0.870	0.641	-1.771	-0.153	-1.072	-9.187
187018.158	NaN	-6.120	2.348	20.848	1504.029	1500.366	1495.971	-1.176	0.656	-1.725	-0.306	-1.301	-9.263
187019.135	NaN	-5.717	2.380	21.141	1504.029	1501.099	1495.971	-1.221	0.351	-1.908	-0.230	-1.301	-9.416
187020.111	NaN	-6.043	2.337	21.043	1503.297	1501.099	1495.238	-1.038	0.275	-2.046	-0.459	-1.301	-9.263
187021.088	NaN	-5.880	2.337	20.902	1504.029	1500.366	1495.238	-0.931	0.489	-1.939	-0.459	-1.225	-9.110
187022.064	NaN	-5.978	2.304	20.989	1502.564	1501.099	1495.971	-1.160	0.626	-1.908	-0.842	-1.301	-9.569
187023.041	NaN	-5.728	2.370	21.120	1503.297	1500.366	1495.971	-1.206	0.550	-1.802	-0.230	-1.148	-9.263
187024.017	NaN	-5.967	2.380	20.946	1504.029	1500.366	1495.971	-1.191	0.443	-1.893	-0.766	-1.301	-9.340
187024.994	NaN	-6.000	2.326	20.837	1504.762	1501.099	1493.040	-1.099	0.427	-1.832	-0.306	-1.148	-9.340
187025.970	NaN	-5.880	2.326	21.011	1504.029	1500.366	1495.971	-0.962	0.397	-1.786	-0.612	-1.455	-9.340
187026.947	NaN	-5.935	2.380	21.022	1503.297	1499.634	1495.971	-0.992	0.458	-1.649	-0.077	-1.225	-9.187
187027.924	NaN	-5.793	2.348	21.130	1503.297	1500.366	1493.773	-1.359	0.489	-1.679	-0.459	-1.225	-9.416
187028.900	NaN	-5.924	2.348	20.967	1501.832	1500.366	1495.971	-1.267	0.458	-1.924	-0.383	-1.378	-9.569
187029.877	NaN	-5.837	2.391	21.000	1503.297	1499.634	1495.238	-1.450	0.641	-1.832	-0.612	-1.455	-9.416
187030.853	NaN	-6.109	2.380	20.957	1503.297	1500.366	1495.238	-1.282	0.656	-1.863	-0.459	-1.455	-9.493
187031.830	NaN	-5.728	2.348	21.196	1504.029	1501.099	1497.436	-1.191	0.275	-1.817	-0.536	-1.378	-9.416
187032.806	NaN	-5.967	2.304	21.043	1503.297	1500.366	1495.238	-1.069	0.336	-1.969	-0.612	-1.225	-9.416
187033.783	NaN	-5.880	2.359	21.011	1502.564	1500.366	1495.971	-1.008	0.550	-1.893	-0.077	-1.072	-9.340
187034.760	NaN	-6.043	2.315	20.913	1504.029	1500.366	1495.971	-1.313	0.687	-1.893	-0.842	-1.378	-9.340
187035.736	NaN	-5.826	2.370	21.022	1503.297	1500.366	1495.971	-1.267	0.702	-1.847	-0.153	-1.301	-9.263
187036.713	NaN	-5.967	2.380	20.946	1504.029	1500.366	1495.971	-1.344	0.565	-1.939	-0.306	-1.072	-9.263
187037.689	NaN	-5.967	2.337	20.859	1505.495	1500.366	1496.703	-1.206	0.519	-1.908	-0.459	-1.225	-9.646
187038.666	NaN	-5.902	2.304	20.957	1503.297	1501.099	1495.971	-1.267	0.443	-1.924	-0.995	-1.225	-9.416
187039.642	NaN	-5.859	2.348	21.109	1504.029	1499.634	1494.505	-1.267	0.443	-1.924	-0.077	-1.148	-9.187
187040.619	NaN	-5.891	2.348	21.076	1504.029	1500.366	1495.971	-1.206	0.443	-1.969	-0.766	-1.225	-9.416
187041.595	NaN	-5.978	2.359	20.891	1503.297	1501.099	1495.971	-1.145	0.489	-1.954	-0.459	0.000	-9.416
187042.572	NaN	-5.783	2.370	21.054	1502.564	1500.366	1495.238	-1.191	0.412	-1.878	-0.383	-1.378	-9.416
187043.549	NaN	-6.098	2.348	20.924	1502.564	1500.366	1495.238	-1.176	0.458	-1.847	-0.153	-1.301	-9.110
187044.525	NaN	-5.772	2.337	21.196	1503.297	1501.099	1495.971	-1.267	0.458	-1.817	-0.383	-1.225	-9.340
187045.502	NaN	-5.967	2.370	21.033	1504.029	1500.366	1495.238	-1.237	0.534	-1.878	-0.383	-1.148	-9.416
187046.478	NaN	-5.793	2.424	20.967	1504.029	1500.366	1495.238	-1.221	0.672	-1.740	-0.383	-1.148	-9.340
187047.455	NaN	-6.098	2.337	20.880	1503.297	1501.099	1495.971	-1.282	0.641	-1.863	-0.536	-1.225	-9.340
187048.431	NaN	-5.707	2.413	21.185	1504.029	1500.366	1495.971	-1.023	0.656	-1.893	-0.459	-1.301	-9.340
187049.408	NaN	-5.978	2.359	20.978	1503.297	1499.634	1495.971	-0.870	0.595	-1.969	-0.536	-1.148	-9.493
187050.385	NaN	-5.957	2.326	20.913	1504.029	1500.366	1495.238	-0.840	0.504	-1.893	-0.306	-1.072	-9.340
187051.361	NaN	-5.967	2.315	21.087	1503.297	1500.366	1495.238	-1.237	0.458	-1.939	-0.689	-1.531	-9.416
187052.338	NaN	-5.870	2.359	21.065	1504.029	1500.366	1496.703	-1.435	0.427	-2.000	0.000	-1.301	-9.340
187053.314	NaN	-5.902	2.326	20.946	1504.029	1500.366	1495.238	-1.328	0.580	-2.000	-0.612	-1.225	-9.340
187054.291	NaN	-5.880	2.370	20.793	1504.029	1500.366	1495.238	-0.962	0.626	-1.908	-0.383	-1.301	-9.493
187055.267	NaN	-5.772	2.380	20.989	1505.495	1500.366	1495.971	-1.130	0.534	-1.847	-0.842	-2.297	-9.493
187056.244	NaN	-6.033	2.380	20.891	1504.762	1501.099	1495.971	-1.344	0.412	-2.000	-0.153	-1.225	-9.340
187057.220	NaN	-5.739	2.326	21.130	1504.762	1500.366	1495.238	-1.359	0.366	-2.015	-0.689	-1.072	-9.722
187058.197	NaN	-5.837	2.348	21.022	1503.297	1499.634	1495.971	-1.130	0.458	-2.031	-0.459	-1.301	-9.493
187059.174	NaN	-5.761	2.424	21.011	1503.297	1498.901	1495.238	-1.313	0.275	-1.893	-0.459	-1.455	-9.187
187060.150	NaN	-6.087	2.337	20.859	1504.029	1501.099	1496.703	-1.420	0.504	-2.076	-0.766	-1.225	-9.493
187061.127	NaN	-5.674	2.413	21.196	1504.029	1500.366	1495.971	-1.328	0.687	-2.076	-0.306	-1.301	-9.340
187062.103	NaN	-5.957	2.380	21.022	1502.564	1499.634	1496.703	-1.282	0.595	-2.092	-0.306	-1.225	-9.493
187063.080	NaN	-5.935	2.370	20.946	1503.297	1500.366	1495.238	-1.206	0.489	-2.137	-0.383	-1.148	-9.493
187064.056	NaN	-6.011	2.326	21.011	1504.029	1501.099	1494.505	-1.344	0.458	-2.076	-0.612	-1.225	-9.416
187065.033	NaN	-5.761	2.391	21.076	1504.029	1499.634	1495.971	-1.313	0.473	-1.924	0.000	-1.301	-9.340
187066.010	NaN	-5.902	2.359	20.957	1504.029	1501.099	1495.971	-1.313	0.565	-2.046	-0.536	-1.148	-9.416
187066.986	NaN	-5.913	2.326	20.848	1501.832	1501.099	1495.971	-1.221	0.443	-2.000	-0.536	-1.378	-9.416
187067.963	NaN	-5.826	2.348	21.163	1504.029	1501.099	1495.971	-1.374	0.214	-1.756	-0.689	-1.531	-9.263
187068.939	NaN	-5.946	2.359	21.043	1504.029	1499.634	1497.436	-1.450	0.336	-1.679	-0.153	-1.225	-9.187
187069.916	NaN	-5.750	2.348	21.228	1504.029	1501.099	1495.971	-1.374	0.397	-1.786	-0.536	-1.148	-9.416
187070.892	NaN	-5.902	2.370	21.011	1504.762	1500.366	1495.971	-1.206	0.412	-2.076	-0.459	-1.455	-9.416
187071.869	NaN	-5.783	2.435	20.967	1504.029	1500.366	1493.773	-1.267	0.305	-2.076	-0.306	-1.148	-9.263
187072.845	NaN	-6.098	2.359	20.891	1504.029	1501.099	1495.971	-1.313	0.183	-2.137	-0.306	-1.148	-9.187
187073.822	NaN	-5.685	2.380	21.228	1504.029	1501.099	1495.971	-1.282	0.397	-1.908	-0.306	-1.225	-9.187
187074.799	NaN	-5.935	2.348	21.022	1504.029	1500.366	1497.436	-1.298	0.443	-1.740	-0.383	-1.148	-9.416
187075.775	NaN	-5.848	2.315	20.924	1504.762	1501.099	1494.505	-1.282	0.382	-1.786	-0.230	-1.148	-9.340
187076.752	NaN	-5.946	2.304	21.033	1504.029	1501.099	1495.238	-1.298	0.290	-1.985	-0.842	-1.301	-9.493
187077.728	NaN	-5.717	2.326	21.163	1503.297	1499.634	1496.703	-1.237	0.366	-1.817	-0.306	-1.378	-9.340
187078.705	NaN	-5.978	2.380	20.967	1504.029	1501.099	1495.238	-1.344	0.366	-1.969	-0.612	-1.072	-9.493
187079.681	NaN	-5.924	2.326	20.815	1503.297	1500.366	1495.971	-1.313	0.321	-1.908	-0.153	-1.225	-9.263
187080.658	NaN	-5.826	2.348	21.076	1504.029	1500.366	1495.238	-1.405	0.351	-2.122	-0.383	-1.378	-9.416
187081.635	NaN	-5.902	2.348	21.054	1504.029	1501.099	1495.238	-1.206	0.351	-2.031	-0.153	-1.148	-9.187
187082.611	NaN	-5.793	2.326	21.087	1504.762	1501.099	1495.238	-1.084	0.351	-1.969	-0.612	-1.148	-9.569
187083.588	NaN	-5.967	2.380	20.978	1504.029	1500.366	1494.505	-1.435	0.198	-1.924	-0.306	-1.301	-9.493
187084.564	NaN	-5.783	2.424	21.011	1503.297	1498.901	1495.971	-1.542	0.290	-1.985	-0.612	-1.455	-9.416
187085.541	NaN	-6.065	2.402	20.913	1506.227	1500.366	1495.971	-1.542	0.305	-1.969	-0.612	-1.301	-9.416
187086.517	NaN	-5.696	2.359	21.174	1504.029	1501.099	1495.971	-1.252	0.412	-2.046	-0.459	-1.301	-9.263
187087.494	NaN	-5.924	2.359	21.130	1503.297	1501.099	1495.971	-1.221	0.656	-2.107	-0.536	-1.148	-9.340
187088.470	NaN	-5.848	2.348	20.978	1504.029	1500.366	1497.436	-1.634	0.504	-2.061	-0.077	-0.995	-9.187
187089.447	NaN	-6.054	2.326	20.880	1502.564	1501.099	1495.238	-1.756	0.321	-2.153	-0.306	-1.225	-9.340
187090.424	NaN	-5.707	2.391	21.152	1504.762	1500.366	1495.971	-1.511	0.336	-2.198	-0.077	-1.225	-9.340
187091.400	NaN	-5.924	2.370	20.913	1504.029	1500.366	1496.703	-1.252	0.290	-2.122	-0.383	-1.225	-9.416
187092.377	NaN	-5.902	2.337	20.913	1504.029	1500.366	1495.971	-1.084	0.382	-1.924	-0.536	-1.301	-9.722
187093.353	NaN	-5.902	2.315	21.043	1504.029	1500.366	1495.238	-1.252	0.351	-2.031	-0.766	-1.225	-9.493
187094.330	NaN	-5.837	2.380	21.196	1504.029	1500.366	1495.971	-1.389	0.244	-2.015	-0.153	-1.225	-9.187
187095.306	NaN	-5.880	2.304	21.065	1504.762	1500.366	1495.971	-1.252	0.305	-2.076	-0.612	-1.225	-9.569
187096.283	NaN	-5.924	2.337	20.902	1504.029	1500.366	1495.971	-1.237	0.382	-2.031	-0.383	-1.378	-9.493
187097.260	NaN	-5.750	2.402	21.022	1501.099	1500.366	1495.238	-1.527	0.473	-1.939	-0.306	-1.225	-9.340
187098.236	NaN	-6.033	2.391	20.859	1502.564	1501.099	1494.505	-1.496	0.458	-2.046	-0.077	-1.301	-9.263
187099.213	NaN	-5.750	2.380	21.185	1503.297	1500.366	1495.238	-1.328	0.214	-2.076	-0.383	-1.301	-9.340
187100.189	NaN	-5.891	2.359	21.011	1503.297	1500.366	1495.971	-1.481	0.244	-2.061	-0.383	-1.225	-9.416
187101.166	NaN	-5.837	2.391	20.967	1504.762	1500.366	1493.773	-1.603	0.336	-2.061	-0.306	-1.072	-9.416
187102.142	NaN	-6.043	2.326	20.848	1502.564	1499.634	1495.971	-1.557	0.351	-2.046	-0.612	-0.995	-9.340
187103.119	NaN	-5.663	2.348	21.109	1503.297	1499.634	1495.238	-1.420	0.305	-1.954	-0.459	-1.225	-9.110
187104.095	NaN	-5.989	2.370	20.935	1504.762	1500.366	1495.971	-1.328	0.382	-1.924	-0.612	-1.225	-9.416
187105.072	NaN	-5.924	2.326	20.935	1504.762	1500.366	1495.238	-1.145	0.351	-1.954	-0.153	-1.072	-9.340
187106.049	NaN	-5.902	2.315	21.043	1503.297	1501.099	1496.703	-1.405	0.366	-1.924	-0.766	-1.531	-9.340
187107.025	NaN	-5.739	2.380	21.174	1503.297	1500.366	1495.238	-1.557	0.290	-1.908	0.077	-1.148	-9.263
187108.002	NaN	-5.891	2.348	21.022	1502.564	1500.366	1495.971	-1.649	0.473	-2.000	-0.536	-1.301	-9.340
187108.978	NaN	-5.924	2.370	20.935	1503.297	1499.634	1495.971	-1.466	0.580	-2.046	-0.383	-1.148	-9.569
187109.955	NaN	-5.772	2.370	20.989	1504.029	1501.099	1495.971	-1.496	0.489	-2.092	-0.842	-1.531	-9.493
187110.931	NaN	-6.011	2.370	20.913	1504.029	1500.366	1495.238	-1.634	0.351	-2.107	-0.230	-1.301	-9.263
187111.908	NaN	-5.783	2.337	21.196	1503.297	1500.366	1495.238	-1.359	0.137	-2.076	-0.766	-1.225	-9.416
187112.885	NaN	-5.913	2.359	21.065	1504.762	1501.832	1496.703	-1.176	0.031	-2.061	-0.536	-1.225	-9.416
187113.861	3731581548.624	-5.772	2.413	20.957	1504.762	1501.099	1495.238	-1.511	0.198	-2.107	-0.230	-1.301	-9.110
187114.838	NaN	-6.076	2.348	20.946	1504.029	1501.099	1494.505	-1.817	0.427	-2.153	-0.842	-1.148	-9.340
187115.814	NaN	-5.663	2.380	21.130	1503.297	1499.634	1495.971	-1.618	0.244	-2.153	-0.383	-1.378	-9.340
187116.791	NaN	-5.924	2.337	20.989	1504.029	1500.366	1493.773	-1.252	0.260	-2.031	-0.306	-1.301	-9.416
187117.767	NaN	-5.902	2.326	20.891	1504.029	1499.634	1496.703	-1.298	0.290	-1.924	-0.536	-1.225	-9.416
187118.744	NaN	-6.022	2.293	21.043	1504.029	1500.366	1495.238	-1.511	0.336	-1.985	-0.612	-0.995	-9.493
187119.720	NaN	-5.815	2.348	21.087	1504.029	1499.634	1496.703	-1.527	0.321	-1.954	-0.077	-1.225	-9.187
187120.697	NaN	-5.967	2.348	21.000	1504.029	1500.366	1496.703	-1.511	0.397	-2.137	-0.612	-1.301	-9.493
187121.674	NaN	-5.924	2.359	20.837	1504.762	1501.099	1495.238	-1.466	0.473	-2.168	-0.306	-1.301	-9.187
187122.650	NaN	-5.891	2.359	21.076	1504.762	1499.634	1495.971	-1.466	0.305	-2.153	-0.612	-1.455	-9.569
187123.627	NaN	-5.935	2.359	21.033	1503.297	1501.099	1495.238	-1.710	0.275	-2.183	0.000	-1.148	-9.340
187124.603	NaN	-5.804	2.337	21.185	1503.297	1500.366	1494.505	-1.817	0.275	-2.076	-0.612	-1.378	-9.110
187125.580	NaN	-5.913	2.380	21.011	1504.762	1500.366	1495.238	-1.710	0.290	-1.985	-0.459	-1.301	-9.569
187126.556	NaN	-5.750	2.435	21.043	1504.762	1500.366	1496.703	-1.664	0.321	-2.122	-0.153	-1.148	-9.263
187127.533	NaN	-6.109	2.359	20.826	1504.029	1500.366	1495.238	-1.664	0.290	-2.260	-0.383	-1.148	-9.263
187128.510	NaN	-5.696	2.391	21.120	1503.297	1500.366	1496.703	-1.481	0.137	-2.153	-0.689	-2.373	-9.416
187129.486	NaN	-5.967	2.337	21.011	1504.029	1500.366	1495.238	-1.328	0.031	-2.168	-0.459	-1.225	-9.416
187130.463	NaN	-5.967	2.337	20.935	1504.029	1499.634	1495.238	-1.450	0.168	-1.908	-0.230	-1.072	-9.187
187131.439	NaN	-6.076	2.304	21.022	1501.832	1500.366	1494.505	-1.634	0.076	-2.107	-0.842	-1.225	-9.493
187132.416	NaN	-5.772	2.370	21.098	1504.029	1501.099	1495.971	-1.588	0.122	-2.092	-0.230	-1.225	-9.263
187133.392	NaN	-5.978	2.370	20.957	1504.029	1501.099	1495.238	-1.511	0.305	-2.244	-0.536	-1.301	-9.493
187134.369	NaN	-5.902	2.337	20.859	1503.297	1500.366	1495.238	-1.267	0.382	-2.214	-0.306	-1.301	-9.493
187135.345	NaN	-5.826	2.337	21.065	1503.297	1501.099	1494.505	-1.481	0.244	-2.061	-0.766	-0.153	-9.493
187136.322	NaN	-5.913	2.348	21.152	1503.297	1500.366	1495.971	-1.634	0.153	-1.939	-0.077	-1.225	-9.187
187137.299	NaN	-5.793	2.370	21.174	1504.029	1501.832	1495.971	-1.618	0.397	-1.939	-0.766	-1.225	-9.493
187138.275	NaN	-5.913	2.391	21.043	1504.029	1500.366	1496.703	-1.511	0.534	-2.031	-0.383	-1.378	-9.416
187139.252	NaN	-5.826	2.402	21.033	1504.029	1500.366	1495.971	-1.405	0.412	-1.985	-0.536	-1.378	-9.493
187140.228	NaN	-6.087	2.359	20.859	1504.029	1500.366	1494.505	-1.481	0.137	-2.153	-0.689	-1.148	-9.493
187141.205	NaN	-5.707	2.326	21.141	1504.029	1500.366	1495.971	-1.603	0.107	-2.153	-0.536	-1.225	-9.263
187142.181	NaN	-5.924	2.359	20.989	1503.297	1499.634	1495.238	-1.511	0.168	-2.183	-0.459	-1.225	-9.569
187143.158	NaN	-5.772	2.413	20.989	1502.564	1500.366	1494.505	-1.344	0.397	-2.229	-0.230	-0.995	-9.263
187144.135	NaN	-6.065	2.326	20.957	1504.029	1501.099	1495.238	-1.298	0.321	-2.183	-0.383	-1.225	-9.416
187145.111	NaN	-5.750	2.380	21.120	1502.564	1501.099	1495.238	-1.557	0.046	-2.076	0.000	-1.225	-9.187
187146.088	NaN	-5.957	2.402	20.946	1504.762	1500.366	1495.971	-1.618	0.275	-2.183	-0.536	-1.225	-9.569
187147.064	NaN	-5.935	2.293	20.826	1504.029	1499.634	1495.971	-1.756	0.366	-2.076	-0.459	-1.301	-9.493
187148.041	NaN	-5.967	2.283	20.978	1504.029	1501.099	1494.505	-2.015	0.290	-2.183	-0.842	-1.378	-9.493
187149.017	NaN	-5.859	2.315	21.033	1504.762	1501.099	1497.436	-1.969	0.321	-2.153	-0.153	-1.301	-9.187
187149.994	NaN	-5.891	2.337	21.022	1504.029	1500.366	1496.703	-1.954	0.458	-2.229	-0.612	-1.225	-9.416
187150.970	NaN	-5.946	2.337	20.848	1504.029	1500.366	1496.703	-1.832	0.229	-2.046	-0.459	-1.301	-9.416
187151.947	NaN	-5.707	2.391	21.011	1504.029	1500.366	1495.238	-1.588	0.122	-1.954	-0.230	-1.225	-9.340
187152.924	NaN	-6.043	2.391	20.902	1503.297	1501.099	1495.971	-1.374	0.168	-2.000	-0.153	-1.378	-9.340
187153.900	NaN	-5.717	2.348	21.174	1504.029	1501.099	1496.703	-1.389	0.107	-2.153	-0.153	-1.455	-9.263
187154.877	NaN	-5.957	2.380	21.054	1503.297	1500.366	1496.703	-1.695	0.153	-2.137	-0.306	-1.301	-9.416
187155.853	NaN	-5.826	2.402	21.011	1504.029	1499.634	1496.703	-1.786	0.061	-2.260	-0.536	-1.378	-9.263
187156.830	NaN	-6.141	2.315	20.880	1503.297	1499.634	1496.703	-1.771	0.015	-2.244	-0.766	-1.148	-9.569
187157.806	NaN	-5.696	2.337	21.141	1504.029	1500.366	1496.703	-1.740	0.153	-2.168	-0.383	-1.301	-9.187
187158.783	NaN	-5.957	2.359	20.989	1504.029	1500.366	1495.971	-1.710	0.290	-2.244	-0.612	-1.301	-9.493
187159.760	NaN	-5.935	2.337	20.859	1503.297	1501.099	1496.703	-1.725	-0.031	-2.153	-0.230	-1.225	-9.340
187160.736	NaN	-5.967	2.304	21.054	1503.297	1500.366	1496.703	-1.863	-0.031	-2.168	-0.536	-1.378	-9.416
187161.713	NaN	-5.772	2.348	21.196	1504.029	1500.366	1495.971	-1.695	0.015	-2.305	0.000	-1.072	-9.263
187162.689	NaN	-5.913	2.348	21.000	1504.762	1500.366	1496.703	-1.573	0.198	-2.260	-0.383	-1.225	-9.416
187163.666	NaN	-5.891	2.359	20.870	1504.029	1501.099	1495.971	-1.496	0.260	-2.183	-0.383	-1.301	-9.493
187164.642	NaN	-5.761	2.380	20.967	1504.029	1501.099	1495.238	-1.618	0.107	-2.107	-0.842	-1.378	-9.416
187165.619	NaN	-6.011	2.359	20.924	1504.762	1499.634	1496.703	-1.740	0.076	-2.260	-0.383	-1.148	-9.340
187166.595	NaN	-5.707	2.315	21.174	1501.832	1500.366	1494.505	-1.756	0.107	-2.214	-0.689	-1.301	-9.493
187167.572	NaN	-5.946	2.359	21.022	1504.029	1499.634	1496.703	-1.618	0.107	-2.412	-0.383	-1.301	-9.263
187168.549	NaN	-5.804	2.446	20.913	1504.029	1500.366	1495.238	-1.603	-0.015	-2.473	-0.383	-1.225	-9.187
187169.525	NaN	-6.076	2.337	20.870	1503.297	1500.366	1494.505	-2.046	-0.015	-2.244	-0.077	-1.301	-9.263
187170.502	NaN	-5.717	2.402	21.141	1504.762	1498.901	1496.703	-1.954	0.015	-2.046	-0.153	-1.301	-9.187
187171.478	NaN	-6.033	2.348	20.989	1503.297	1501.099	1495.238	-1.679	0.107	-2.260	-0.459	-1.148	-9.340
187172.455	NaN	-5.880	2.304	20.859	1504.029	1499.634	1496.703	-1.405	0.153	-2.305	-0.383	-1.225	-9.493
187173.431	NaN	-5.957	2.283	20.978	1503.297	1500.366	1493.773	-1.542	0.137	-2.305	-0.689	-1.301	-9.493
187174.408	NaN	-5.717	2.348	21.076	1504.029	1498.901	1496.703	-1.847	0.000	-2.122	-0.077	-1.225	-9.187
187175.385	NaN	-5.967	2.348	20.935	1502.564	1500.366	1495.238	-1.969	0.153	-2.122	-0.689	-1.301	-9.340
187176.361	NaN	-5.891	2.348	20.804	1502.564	1499.634	1495.971	-1.725	0.290	-2.107	-0.383	-1.148	-9.263
187177.338	NaN	-5.848	2.315	20.957	1504.029	1500.366	1495.238	-1.664	0.397	-2.168	-0.689	-1.455	-9.340
187178.314	NaN	-5.913	2.326	21.000	1503.297	1500.366	1495.238	-1.679	0.305	-2.168	0.000	-1.301	-9.263
187179.291	NaN	-5.739	2.304	21.120	1504.762	1501.099	1495.971	-1.588	0.168	-2.214	-0.612	-1.378	-9.263
187180.267	NaN	-5.957	2.370	20.935	1504.029	1500.366	1495.971	-1.603	0.183	-2.305	-0.230	-1.301	-9.646
187181.244	NaN	-5.804	2.402	20.935	1504.029	1500.366	1497.436	-1.695	0.122	-2.458	-0.230	-1.225	-9.187
187182.220	NaN	-6.065	2.359	20.924	1504.029	1500.366	1495.238	-1.985	-0.015	-2.519	-0.383	-1.225	-9.493
187183.197	NaN	-5.685	2.359	21.207	1502.564	1500.366	1493.773	-1.954	0.153	-2.382	-0.612	-1.378	-9.340
187184.174	NaN	-5.957	2.348	21.011	1502.564	1500.366	1495.971	-1.817	0.489	-2.122	-0.536	-1.148	-9.340
187185.150	NaN	-5.924	2.380	20.870	1504.762	1501.099	1495.238	-1.634	0.504	-2.000	-0.153	-1.072	-9.263
187186.127	NaN	-6.076	2.326	20.935	1504.029	1500.366	1496.703	-1.710	0.214	-2.153	-0.919	-1.378	-9.569
187187.103	NaN	-5.761	2.370	21.098	1503.297	1500.366	1495.971	-1.847	-0.092	-2.107	-0.153	-1.301	-9.187
187188.080	NaN	-5.967	2.370	20.967	1503.297	1501.099	1495.971	-1.802	-0.122	-2.366	-0.766	-1.148	-9.340
187189.056	NaN	-5.935	2.326	20.880	1504.029	1501.099	1495.238	-1.618	0.015	-2.336	-0.536	-1.378	-9.493
187190.033	NaN	-5.870	2.272	21.033	1503.297	1501.099	1495.971	-1.985	0.061	-2.290	-0.842	-1.301	-9.569
187191.010	NaN	-5.837	2.326	20.989	1504.029	1500.366	1495.971	-1.771	0.107	-2.153	-0.077	-1.225	-9.187
187191.986	NaN	-5.891	2.326	21.087	1503.297	1500.366	1495.238	-1.786	0.183	-2.351	-0.842	-1.225	-9.569
187192.963	NaN	-5.902	2.359	20.957	1503.297	1500.366	1496.703	-1.802	0.061	-2.412	-0.459	-1.225	-9.493
187193.939	NaN	-5.783	2.402	21.033	1504.029	1501.099	1495.971	-2.000	-0.031	-2.382	-0.383	-1.455	-9.263
187194.916	NaN	-6.076	2.380	20.935	1504.029	1499.634	1497.436	-1.969	0.092	-2.305	-0.766	-1.072	-9.187
187195.892	NaN	-5.717	2.359	21.207	1504.029	1500.366	1495.971	-1.893	0.107	-2.183	-0.383	-1.301	-9.340
187196.869	NaN	-5.946	2.304	21.076	1504.029	1500.366	1494.505	-1.649	0.092	-2.214	-0.383	-1.301	-9.569
187197.845	NaN	-5.815	2.380	21.022	1502.564	1500.366	1493.773	-1.802	0.137	-2.244	-0.230	-0.995	-9.340
187198.822	NaN	-6.109	2.304	20.924	1505.495	1501.832	1495.971	-1.679	0.122	-2.290	-0.536	-1.225	-9.263
187199.799	NaN	-5.793	2.413	21.130	1504.029	1500.366	1495.971	-1.756	0.137	-2.107	-0.153	-1.072	-9.263
187200.775	NaN	-5.967	2.359	21.033	1504.762	1498.901	1495.971	-1.878	0.183	-2.214	-0.383	-1.225	-9.340
187201.752	NaN	-5.957	2.337	20.978	1504.762	1500.366	1495.971	-1.847	0.015	-2.290	-0.383	-1.378	-9.340
187202.728	NaN	-5.946	2.315	21.087	1504.029	1500.366	1495.971	-2.122	0.137	-2.489	-0.842	-1.378	-9.569
187203.705	NaN	-5.848	2.348	21.109	1503.297	1500.366	1493.773	-2.046	0.168	-2.336	-0.077	-1.378	-9.263
187204.681	NaN	-5.891	2.326	21.033	1502.564	1500.366	1493.773	-1.908	0.076	-2.260	-0.689	-1.301	-9.416
187205.658	NaN	-5.913	2.370	20.880	1503.297	1500.366	1495.238	-1.847	0.061	-2.519	-0.459	-1.301	-9.493
187206.635	NaN	-5.772	2.402	20.978	1503.297	1500.366	1495.238	-1.725	0.015	-2.412	-0.306	-1.225	-9.263
187207.611	NaN	-6.065	2.380	20.913	1504.029	1500.366	1495.971	-1.817	0.046	-2.229	-0.153	-1.148	-9.187
187208.588	NaN	-5.739	2.337	21.185	1503.297	1499.634	1496.703	-2.015	0.107	-2.183	-0.230	-1.301	-9.493
187209.564	NaN	-5.902	2.359	21.033	1504.029	1498.901	1495.971	-1.924	0.198	-2.153	-0.383	-1.225	-9.493
187210.541	NaN	-5.793	2.413	21.000	1504.762	1500.366	1496.703	-1.985	-0.031	-2.137	-0.459	-1.301	-9.263
187211.517	NaN	-6.120	2.337	20.848	1504.029	1500.366	1496.703	-2.153	-0.107	-2.382	-0.766	-1.148	-9.493
187212.494	NaN	-5.717	2.380	21.087	1503.297	1500.366	1494.505	-1.969	0.015	-2.397	-0.383	-1.301	-9.340
187213.470	NaN	-5.957	2.370	21.022	1502.564	1501.099	1496.703	-1.924	-0.031	-2.412	-0.536	-1.148	-9.416
187214.447	NaN	-5.967	2.304	20.989	1504.029	1499.634	1495.971	-2.061	-0.031	-2.260	-0.153	-1.148	-9.263
187215.424	NaN	-5.902	2.326	21.076	1504.762	1501.099	1495.971	-2.183	0.107	-2.198	-0.612	-0.230	-9.416
187216.400	NaN	-5.783	2.359	21.217	1504.029	1500.366	1496.703	-2.214	0.000	-2.137	0.000	-1.072	-9.263
187217.377	NaN	-5.880	2.348	21.022	1503.297	1501.099	1495.238	-1.863	-0.076	-2.198	-0.612	-1.225	-9.416
187218.353	NaN	-5.891	2.348	20.859	1504.029	1500.366	1495.238	-1.679	-0.031	-2.443	-0.459	-1.301	-9.569
187219.330	NaN	-5.793	2.370	21.120	1504.029	1501.099	1495.238	-1.924	-0.122	-2.412	-0.766	-1.531	-9.493
187220.306	NaN	-5.989	2.359	21.054	1503.297	1500.366	1495.971	-2.122	0.061	-2.214	-0.536	-1.225	-9.263
187221.283	NaN	-5.696	2.359	21.228	1501.832	1500.366	1495.238	-2.046	0.122	-2.244	-0.612	-1.378	-9.340
187222.260	NaN	-5.935	2.380	21.098	1504.029	1499.634	1495.971	-2.031	0.168	-2.458	-0.459	-1.225	-9.493
187223.236	NaN	-5.848	2.424	20.989	1504.029	1499.634	1495.971	-2.000	0.107	-2.504	-0.230	-1.225	-9.187
187224.213	NaN	-6.163	2.370	20.870	1504.029	1501.099	1497.436	-2.031	0.076	-2.321	-0.230	-1.148	-9.187
187225.189	NaN	-5.696	2.359	21.174	1502.564	1500.366	1495.971	-1.985	0.031	-2.122	-0.230	-1.225	-9.263
187226.166	NaN	-5.989	2.337	20.989	1503.297	1500.366	1494.505	-1.588	0.092	-2.260	-0.383	-1.148	-9.416
187227.142	NaN	-5.913	2.370	20.924	1504.029	1500.366	1495.971	-1.450	0.015	-2.412	-0.383	-1.148	-9.493
187228.119	NaN	-6.054	2.326	21.065	1504.762	1501.099	1495.971	-1.573	-0.076	-2.565	-0.766	-1.301	-9.416
187229.095	NaN	-5.696	2.359	21.163	1503.297	1500.366	1495.238	-2.137	0.061	-2.458	-0.306	-1.225	-9.263
187230.072	NaN	-5.924	2.370	20.935	1503.297	1499.634	1495.971	-2.458	0.107	-2.534	-0.689	-1.225	-9.416
187231.049	NaN	-5.848	2.359	20.891	1504.029	1501.099	1495.971	-2.107	-0.046	-2.366	-0.383	-1.225	-9.340
187232.025	NaN	-5.859	2.359	21.130	1504.029	1500.366	1496.703	-1.847	-0.092	-2.137	-0.536	-1.378	-9.416
187233.002	NaN	-6.022	2.348	21.043	1503.297	1500.366	1494.505	-1.817	-0.061	-2.153	-0.077	-1.301	-9.263
187233.978	NaN	-5.815	2.337	21.120	1504.029	1499.634	1495.238	-1.908	0.107	-2.107	-0.459	-1.378	-9.263
187234.955	NaN	-5.891	2.402	20.935	1503.297	1499.634	1495.238	-1.878	-0.031	-2.183	-0.459	-1.225	-9.569
187235.931	NaN	-5.772	2.446	20.957	1503.297	1498.901	1495.971	-2.107	-0.092	-2.412	-0.766	-1.531	-9.340
187236.908	NaN	-6.120	2.380	20.924	1500.366	1500.366	1495.238	-2.000	0.122	-2.397	-0.459	-1.148	-9.340
187237.885	NaN	-5.717	2.380	21.217	1504.762	1499.634	1497.436	-1.954	0.061	-2.122	-0.612	-1.225	-9.340
187238.861	NaN	-5.913	2.348	21.087	1503.297	1501.099	1495.971	-1.924	-0.015	-2.260	-0.459	-1.301	-9.263
187239.838	NaN	-5.880	2.348	20.989	1504.029	1500.366	1495.238	-1.924	-0.107	-2.397	-0.153	-1.148	-9.263
187240.814	NaN	-6.098	2.304	21.054	1504.029	1500.366	1495.971	-2.122	0.046	-2.489	-0.919	-1.301	-9.493
187241.791	NaN	-5.739	2.348	21.174	1504.029	1501.099	1495.238	-2.092	0.092	-2.260	-0.153	-1.301	-9.110
187242.767	NaN	-5.978	2.380	21.011	1503.297	1500.366	1493.773	-2.000	0.092	-2.229	-0.459	-1.225	-9.340
187243.744	NaN	-5.957	2.315	20.891	1502.564	1499.634	1495.238	-1.863	0.336	-2.305	-0.459	-1.148	-9.569
187244.720	NaN	-5.957	2.326	21.033	1502.564	1500.366	1495.971	-2.183	0.229	-2.412	-0.842	-1.301	-9.493
187245.697	NaN	-5.870	2.348	21.120	1501.832	1499.634	1495.971	-2.122	0.061	-2.321	-0.077	-1.301	-9.263
187246.674	NaN	-5.859	2.348	21.087	1504.029	1500.366	1496.703	-1.969	-0.031	-2.412	-0.612	-1.225	-9.493
187247.650	NaN	-5.880	2.380	20.848	1503.297	1500.366	1495.238	-2.107	-0.061	-2.458	-0.459	-1.225	-9.340
187248.627	NaN	-5.717	2.435	21.043	1504.029	1500.366	1495.238	-2.366	-0.092	-2.458	-0.306	-1.301	-9.263
187249.603	NaN	-6.065	2.391	20.957	1504.029	1500.366	1495.238	-2.290	0.015	-2.489	-0.230	-1.225	-9.263
187250.580	NaN	-5.739	2.359	21.250	1504.029	1501.099	1495.238	-1.939	-0.031	-2.412	-0.306	-1.301	-9.263
187251.556	NaN	-5.880	2.359	21.098	1503.297	1501.099	1495.971	-1.802	0.000	-2.489	-0.459	-1.225	-9.569
187252.533	NaN	-5.848	2.380	20.902	1504.762	1500.366	1495.971	-1.939	0.031	-2.458	-0.230	-1.072	-9.340
187253.510	NaN	-6.152	2.337	20.913	1504.029	1500.366	1495.971	-2.260	-0.015	-2.473	-0.536	-1.225	-9.416
187254.486	NaN	-5.772	2.380	21.011	1504.029	1500.366	1496.703	-2.275	-0.015	-2.397	-0.153	-1.378	-9.340
187255.463	NaN	-6.000	2.370	20.913	1504.762	1499.634	1495.971	-2.137	0.122	-2.611	-0.459	-1.225	-9.340
187256.439	NaN	-5.957	2.315	20.848	1503.297	1500.366	1495.238	-1.969	0.061	-2.534	-0.153	-1.072	-9.340
187257.416	NaN	-5.967	2.304	20.967	1504.029	1500.366	1495.238	-2.198	-0.015	-2.626	-0.842	-1.455	-9.416
187258.392	NaN	-5.826	2.402	21.098	1503.297	1500.366	1495.971	-2.214	0.061	-2.427	-0.230	-1.301	-9.263
187259.369	NaN	-5.913	2.348	21.076	1504.029	1500.366	1494.505	-2.015	0.137	-2.366	-0.612	-1.225	-9.493
187260.345	NaN	-5.957	2.370	20.957	1504.762	1501.099	1497.436	-2.076	0.168	-2.473	-0.459	-1.301	-9.569
187261.322	NaN	-5.848	2.391	21.043	1503.297	1499.634	1497.436	-2.275	0.092	-2.626	-0.306	-1.225	-9.340
187262.299	NaN	-6.022	2.370	20.891	1504.029	1500.366	1495.971	-2.183	0.092	-2.580	-0.077	-1.225	-9.187
187263.275	NaN	-5.739	2.337	21.098	1503.297	1500.366	1495.971	-2.061	0.214	-2.366	-0.766	-1.148	-9.493
187264.252	NaN	-5.967	2.348	21.076	1503.297	1501.099	1495.238	-2.076	0.290	-2.458	-0.383	-1.301	-9.493
187265.228	NaN	-5.739	2.402	20.989	1504.762	1500.366	1495.238	-2.107	0.214	-2.534	-0.383	-1.378	-9.340
187266.205	NaN	-6.011	2.337	20.946	1504.029	1501.099	1495.238	-2.076	0.076	-2.702	-0.689	-1.148	-9.569
187267.181	NaN	-5.652	2.380	21.087	1504.762	1500.366	1495.971	-2.107	0.198	-2.519	-0.306	-1.301	-9.187
187268.158	NaN	-5.957	2.370	20.913	1504.029	1499.634	1497.436	-2.290	0.137	-2.687	-0.766	-1.148	-9.493
187269.135	NaN	-5.891	2.304	20.880	1504.762	1501.099	1495.238	-1.924	-0.046	-2.427	-0.306	-1.225	-9.416
187270.111	NaN	-5.989	2.304	20.935	1502.564	1500.366	1494.505	-2.031	0.137	-2.260	-0.612	-1.225	-9.646
187271.088	NaN	-5.848	2.337	21.033	1504.029	1498.901	1497.436	-1.954	0.122	-2.260	0.000	-1.225	-9.110
187272.064	NaN	-5.967	2.359	20.946	1504.029	1500.366	1495.971	-1.969	0.015	-2.382	-0.536	-1.148	-9.340
187273.041	NaN	-5.989	2.370	20.902	1502.564	1500.366	1494.505	-2.107	-0.107	-2.427	-0.536	-1.301	-9.569
187274.017	NaN	-5.891	2.370	21.076	1503.297	1500.366	1495.238	-2.107	0.000	-2.534	-0.689	-1.455	-9.416
187274.994	NaN	-6.022	2.370	20.989	1503.297	1500.366	1495.238	-2.198	0.137	-2.641	-0.459	-1.072	-9.263
187275.970	NaN	-5.750	2.337	21.217	1503.297	1501.099	1495.971	-2.015	0.260	-2.641	-0.689	-1.378	-9.340
187276.947	NaN	-5.978	2.337	21.098	1502.564	1501.099	1495.971	-1.863	0.351	-2.412	-0.536	-1.301	-9.416
187277.924	NaN	-5.783	2.413	21.065	1504.762	1501.099	1496.703	-2.183	0.107	-2.260	-0.230	-1.148	-9.110
187278.900	NaN	-6.098	2.359	20.935	1504.029	1500.366	1495.238	-2.305	0.046	-2.412	-0.306	-1.225	-9.416
187279.877	NaN	-5.663	2.402	21.174	1503.297	1501.099	1496.703	-2.107	0.092	-2.412	-0.230	-1.301	-9.187
187280.853	NaN	-5.989	2.348	20.989	1504.762	1500.366	1494.505	-1.832	0.244	-2.427	-0.536	-1.225	-9.340
187281.830	NaN	-5.935	2.326	20.859	1505.495	1501.099	1495.971	-1.679	0.137	-2.473	-0.306	-1.148	-9.263
187282.806	NaN	-6.109	2.283	20.957	1504.762	1501.099	1495.238	-1.969	-0.031	-2.580	-0.842	-1.148	-9.416
187283.783	NaN	-5.815	2.391	21.120	1504.029	1500.366	1496.703	-2.290	-0.153	-2.305	-0.153	-1.301	-9.187
187284.760	NaN	-6.000	2.359	20.935	1503.297	1501.099	1495.971	-2.366	-0.015	-2.458	-0.842	-1.225	-9.646
187285.736	NaN	-5.957	2.326	20.870	1503.297	1500.366	1494.505	-2.183	0.290	-2.504	-0.383	-1.301	-9.340
187286.713	NaN	-5.859	2.359	21.043	1504.029	1500.366	1496.703	-1.985	0.229	-2.550	-0.383	-1.455	-9.263
187287.689	NaN	-5.957	2.370	21.054	1504.762	1500.366	1495.238	-1.939	0.153	-2.550	-0.077	-1.378	-9.263
187288.666	NaN	-5.772	2.370	21.141	1502.564	1500.366	1495.238	-1.939	0.153	-2.656	-0.689	-2.373	-9.416
187289.642	NaN	-5.946	2.391	20.946	1504.029	1499.634	1495.238	-1.954	0.122	-2.840	-0.383	-1.301	-9.569
187290.619	NaN	-5.772	2.457	21.000	1504.029	1501.099	1495.971	-1.939	0.107	-2.702	-0.536	-1.531	-9.263
187291.595	NaN	-6.152	2.391	20.793	1504.762	1501.099	1497.436	-2.107	0.153	-2.397	-0.612	-1.148	-9.416
187292.572	NaN	-5.772	2.380	21.120	1504.029	1499.634	1497.436	-2.092	0.244	-2.214	-0.612	-1.225	-9.416
187293.549	NaN	-6.000	2.337	21.033	1503.297	1500.366	1497.436	-2.015	0.504	-2.458	-0.459	-1.301	-9.416
187294.525	NaN	-5.902	2.359	21.000	1504.762	1500.366	1495.238	-1.908	0.366	-2.519	-0.230	-1.072	-9.187
187295.502	NaN	-6.098	2.337	21.022	1504.762	1500.366	1495.971	-1.832	0.214	-2.626	-0.306	-0.153	-9.340
187296.478	NaN	-5.761	2.380	21.207	1504.029	1500.366	1496.703	-2.107	0.076	-2.397	-0.153	-1.301	-9.263
187297.455	NaN	-5.957	2.413	20.978	1503.297	1501.099	1496.703	-2.214	0.137	-2.687	-0.459	-1.225	-9.340
187298.431	3731581548.799	-5.946	2.315	20.859	1503.297	1500.366	1493.040	-2.046	0.336	-2.641	-0.459	-1.301	-9.646
187299.408	NaN	-5.935	2.326	21.054	1504.029	1500.366	1495.971	-1.985	0.290	-2.687	-0.766	-1.301	-9.493
187300.385	NaN	-5.902	2.359	21.054	1504.029	1500.366	1495.971	-1.969	0.183	-2.702	-0.153	-1.301	-9.263
187301.361	NaN	-5.880	2.348	21.087	1503.297	1501.099	1495.238	-1.985	0.382	-2.626	-0.689	-1.301	-9.493
187302.338	NaN	-5.946	2.380	20.913	1502.564	1500.366	1495.238	-2.031	0.412	-2.565	-0.383	-1.301	-9.416
187303.314	NaN	-5.815	2.424	21.022	1503.297	1499.634	1496.703	-2.046	0.198	-2.550	-0.230	-1.301	-9.187
187304.291	NaN	-6.065	2.380	20.946	1504.029	1500.366	1496.703	-2.183	0.015	-2.611	-0.153	-1.225	-9.263
187305.267	NaN	-5.739	2.337	21.239	1504.762	1501.099	1496.703	-2.153	0.061	-2.641	-0.383	-1.301	-9.263
187306.244	NaN	-5.924	2.326	21.076	1503.297	1500.366	1495.971	-2.061	0.183	-2.702	-0.230	-1.301	-9.416
187307.220	NaN	-5.837	2.370	21.011	1503.297	1501.099	1495.971	-2.031	0.183	-2.702	-0.230	-1.072	-9.416
187308.197	NaN	-6.141	2.337	20.848	1504.762	1501.099	1494.505	-2.015	0.168	-2.626	-0.766	-1.225	-9.416
187309.174	NaN	-5.772	2.359	21.141	1503.297	1499.634	1496.703	-2.183	0.229	-2.565	-0.612	-1.301	-9.416
187310.150	NaN	-5.989	2.370	21.011	1503.297	1499.634	1495.971	-2.229	0.214	-2.809	-0.536	-1.225	-9.493
187311.127	NaN	-5.967	2.337	20.859	1503.297	1500.366	1495.238	-1.924	0.183	-2.824	-0.306	-1.072	-9.187
187312.103	NaN	-5.989	2.304	20.978	1502.564	1500.366	1496.703	-1.710	0.183	-2.702	-0.689	-1.455	-9.493
187313.080	NaN	-5.793	2.391	21.087	1503.297	1499.634	1495.971	-2.092	0.137	-2.595	0.000	-1.225	-9.187
187314.056	NaN	-5.967	2.348	21.043	1503.297	1500.366	1495.971	-2.321	0.061	-2.443	-0.612	-1.301	-9.493
187315.033	NaN	-5.935	2.391	20.870	1504.029	1500.366	1495.238	-2.092	0.092	-2.412	-0.383	-1.225	-9.646
187316.010	NaN	-5.815	2.380	21.065	1503.297	1500.366	1495.238	-2.153	0.153	-2.626	-0.842	-1.378	-9.493
187316.986	NaN	-6.011	2.370	20.957	1502.564	1500.366	1495.238	-2.275	0.397	-2.672	-0.306	-1.225	-9.263
187317.963	NaN	-5.793	2.326	21.207	1503.297	1500.366	1495.971	-2.031	0.305	-2.733	-0.766	-1.225	-9.416
187318.939	NaN	-5.946	2.370	21.022	1504.762	1501.099	1495.238	-2.046	0.122	-2.611	-0.612	-1.301	-9.340
187319.916	NaN	-5.826	2.424	20.967	1503.297	1500.366	1495.238	-2.244	0.214	-2.427	-0.306	-1.225	-9.110
187320.892	NaN	-6.174	2.359	20.880	1503.297	1500.366	1494.505	-2.427	0.229	-2.611	-0.842	-1.225	-9.493
187321.869	NaN	-5.728	2.359	21.152	1504.029	1500.366	1496.703	-2.183	0.122	-2.534	-0.230	-1.225	-9.263
187322.845	NaN	-6.022	2.337	20.946	1503.297	1500.366	1494.505	-1.924	0.122	-2.595	-0.230	-1.225	-9.416
187323.822	NaN	-5.935	2.359	20.880	1503.297	1498.901	1495.971	-1.924	0.107	-2.840	-0.383	-1.225	-9.340
187324.799	NaN	-6.054	2.326	21.043	1504.762	1501.099	1495.971	-2.214	0.214	-2.794	-0.689	-1.225	-9.493
187325.775	NaN	-5.826	2.337	21.152	1503.297	1498.901	1494.505	-2.473	0.183	-2.504	0.000	-1.301	-9.263
187326.752	NaN	-5.967	2.348	20.967	1504.029	1500.366	1495.238	-2.519	0.214	-2.489	-0.612	-1.148	-9.493
187327.728	NaN	-5.891	2.348	20.815	1504.762	1500.366	1495.238	-2.031	0.137	-2.534	-0.383	-1.378	-9.569
187328.705	NaN	-5.826	2.326	21.000	1503.297	1500.366	1496.703	-1.863	0.260	-2.748	-0.689	-1.455	-9.416
187329.681	NaN	-5.989	2.380	21.022	1500.366	1499.634	1495.971	-2.076	0.382	-2.809	0.000	-1.225	-9.187
187330.658	NaN	-5.793	2.315	21.207	1503.297	1500.366	1495.971	-2.229	0.366	-2.550	-0.766	-1.455	-9.416
187331.635	NaN	-5.967	2.359	21.076	1503.297	1500.366	1493.773	-2.153	0.473	-2.504	-0.536	-1.301	-9.493
187332.611	NaN	-5.793	2.391	21.054	1503.297	1498.901	1495.971	-2.137	0.382	-2.534	-0.077	-1.072	-9.263
187333.588	NaN	-6.120	2.359	20.935	1502.564	1499.634	1495.971	-2.137	0.290	-2.763	-0.459	-1.225	-9.263
187334.564	NaN	-5.739	2.380	21.207	1503.297	1500.366	1495.971	-2.092	0.107	-2.824	-0.077	-1.225	-9.110
187335.541	NaN	-6.033	2.348	21.011	1504.029	1499.634	1495.238	-1.969	0.061	-2.870	-0.536	-1.301	-9.340
187336.517	NaN	-5.935	2.348	20.880	1504.029	1500.366	1495.238	-1.908	0.168	-2.702	-0.306	-1.148	-9.110
187337.494	NaN	-6.065	2.304	20.880	1504.029	1501.099	1495.971	-1.847	0.229	-2.718	-0.842	-1.225	-9.493
187338.470	NaN	-5.826	2.370	20.978	1503.297	1499.634	1498.168	-1.893	0.382	-2.687	-0.077	-1.148	-9.263
187339.447	NaN	-6.033	2.370	20.946	1504.029	1499.634	1495.971	-1.847	0.305	-2.840	-0.536	-1.301	-9.493
187340.424	NaN	-5.967	2.359	20.859	1505.495	1501.099	1495.238	-1.924	0.275	-2.779	-0.459	-1.148	-9.493
187341.400	NaN	-5.859	2.326	21.000	1503.297	1501.099	1497.436	-1.969	0.183	-2.595	-0.383	-1.378	-9.416
187342.377	NaN	-5.967	2.391	21.043	1503.297	1500.366	1495.238	-2.137	0.122	-2.595	-0.077	-1.225	-9.033
187343.353	NaN	-5.870	2.337	21.130	1504.029	1499.634	1497.436	-2.122	0.214	-2.672	-0.766	-1.225	-9.646
187344.330	NaN	-6.011	2.348	20.989	1504.762	1501.099	1494.505	-2.198	0.214	-2.763	-0.459	-1.148	-9.340
187345.306	NaN	-5.772	2.413	21.022	1503.297	1498.901	1495.971	-2.321	0.290	-2.855	-0.536	-1.378	-9.340
187346.283	NaN	-6.076	2.380	20.935	1503.297	1501.099	1494.505	-2.168	0.336	-2.794	-0.689	-1.301	-9.416
187347.260	NaN	-5.717	2.337	21.141	1503.297	1500.366	1495.238	-2.061	0.290	-2.550	-0.459	-1.301	-9.340
187348.236	NaN	-5.989	2.359	21.000	1504.762	1500.366	1495.971	-2.122	0.260	-2.489	-0.536	-1.225	-9.416
187349.213	NaN	-5.837	2.402	20.924	1504.029	1500.366	1497.436	-1.985	0.260	-2.565	-0.230	-1.148	-9.340
187350.189	NaN	-6.054	2.326	20.902	1504.029	1501.099	1495.971	-2.031	0.397	-2.763	-0.459	-1.225	-9.493
187351.166	NaN	-5.815	2.370	21.109	1503.297	1500.366	1495.238	-2.153	0.458	-2.779	0.000	-1.148	-9.110
187352.142	NaN	-6.011	2.391	20.935	1504.029	1501.099	1495.971	-2.122	0.321	-2.718	-0.536	-1.148	-9.416
187353.119	NaN	-5.946	2.304	20.859	1504.762	1500.366	1494.505	-1.954	0.168	-2.687	-0.459	-1.455	-9.646
187354.095	NaN	-5.880	2.326	21.087	1504.029	1501.099	1496.703	-1.954	0.137	-2.641	-0.842	-1.378	-9.493
187355.072	NaN	-5.837	2.348	21.087	1503.297	1500.366	1495.971	-2.092	0.244	-2.672	-0.230	-1.225	-9.263
187356.049	NaN	-5.804	2.370	20.978	1504.762	1501.099	1495.971	-2.366	0.275	-2.779	-0.612	-1.148	-9.493
187357.025	NaN	-5.935	2.370	20.870	1504.029	1501.099	1495.971	-2.366	0.290	-2.763	-0.459	-1.148	-9.646
187358.002	NaN	-5.783	2.446	21.011	1504.029	1501.099	1495.238	-2.305	0.321	-2.885	-0.306	-1.301	-9.187
187358.978	NaN	-6.065	2.370	20.880	1504.029	1500.366	1495.238	-2.214	0.305	-2.718	-0.153	-1.225	-9.187
187359.955	NaN	-5.815	2.370	21.207	1504.029	1500.366	1496.703	-2.122	0.336	-2.565	-0.230	-1.378	-9.263
187360.931	NaN	-6.011	2.326	21.011	1504.029	1500.366	1496.703	-2.000	0.321	-2.733	-0.459	-1.301	-9.416
187361.908	NaN	-5.935	2.402	20.913	1503.297	1498.901	1496.703	-2.031	0.076	-2.809	-0.536	-1.225	-9.187
187362.885	NaN	-6.120	2.315	20.870	1504.029	1501.099	1496.703	-2.183	0.122	-2.992	-0.842	-1.148	-9.493
187363.861	NaN	-5.685	2.380	21.087	1504.762	1500.366	1495.971	-2.153	0.260	-2.702	-0.459	-1.301	-9.187
187364.838	NaN	-5.935	2.370	20.957	1504.762	1500.366	1495.238	-1.954	0.290	-2.763	-0.612	-1.148	-9.493
187365.814	NaN	-5.957	2.315	20.815	1504.029	1501.099	1495.238	-1.832	0.290	-2.794	-0.230	-1.072	-9.493
187366.791	NaN	-5.978	2.315	21.043	1504.762	1501.099	1494.505	-2.229	0.489	-2.824	-0.689	-1.378	-9.416
187367.767	NaN	-5.815	2.337	21.043	1504.029	1500.366	1496.703	-2.229	0.473	-2.687	-0.077	-1.225	-9.187
187368.744	NaN	-5.880	2.337	20.967	1504.029	1500.366	1496.703	-1.939	0.336	-2.855	-0.612	-0.153	-9.493
187369.720	NaN	-5.913	2.370	20.880	1504.029	1500.366	1495.238	-1.725	0.183	-2.992	-0.306	-1.225	-9.416
187370.697	NaN	-5.772	2.380	21.054	1503.297	1500.366	1497.436	-1.802	0.198	-3.038	-0.842	-1.455	-9.493
187371.674	NaN	-6.000	2.380	20.978	1503.297	1501.099	1496.703	-2.107	0.153	-2.885	-0.306	-1.301	-9.340
187372.650	NaN	-5.728	2.337	21.185	1504.762	1500.366	1495.971	-2.153	0.290	-2.718	-0.612	-1.148	-9.493
187373.627	NaN	-5.891	2.359	20.978	1504.762	1501.099	1495.971	-1.939	0.351	-2.779	-0.459	-1.148	-9.493
187374.603	NaN	-5.793	2.402	21.022	1504.029	1501.099	1494.505	-1.878	0.244	-2.733	-0.230	-1.301	-9.340
187375.580	NaN	-6.130	2.326	20.848	1504.762	1501.099	1495.971	-2.229	0.321	-2.702	-0.077	-1.225	-9.340
187376.556	NaN	-5.674	2.380	21.217	1502.564	1499.634	1495.971	-2.198	0.275	-2.611	-0.153	-1.301	-9.263
187377.533	NaN	-5.957	2.370	21.011	1504.762	1501.099	1495.971	-2.000	0.229	-2.733	-0.536	-1.148	-9.416
187378.510	NaN	-5.957	2.359	20.924	1504.762	1499.634	1496.703	-1.969	0.046	-2.855	-0.383	-1.225	-9.340
187379.486	NaN	-5.989	2.326	21.022	1503.297	1501.099	1493.773	-2.000	0.153	-2.992	-0.919	-0.995	-9.569
187380.463	NaN	-5.739	2.326	21.152	1502.564	1499.634	1494.505	-2.076	0.305	-2.763	-0.077	-1.301	-9.187
187381.439	NaN	-5.946	2.370	21.033	1501.832	1499.634	1495.971	-2.061	0.290	-2.916	-0.612	-1.225	-9.416
187382.416	NaN	-5.913	2.348	21.000	1504.029	1500.366	1493.773	-2.076	0.260	-2.931	-0.230	-1.148	-9.340
187383.392	NaN	-5.815	2.402	21.120	1504.762	1499.634	1497.436	-2.290	0.244	-2.809	-0.612	-1.301	-9.263
187384.369	NaN	-6.033	2.359	21.098	1504.029	1499.634	1497.436	-2.397	0.183	-2.779	0.000	-1.301	-9.263
187385.345	NaN	-5.815	2.348	21.207	1503.297	1501.099	1494.505	-2.214	0.290	-2.641	-0.536	-1.378	-9.416
187386.322	NaN	-5.946	2.413	21.098	1503.297	1500.366	1495.971	-1.939	0.321	-2.824	-0.459	-1.378	-9.416
187387.299	NaN	-5.783	2.424	20.978	1504.762	1500.366	1496.703	-2.000	0.229	-2.809	-0.306	-1.148	-9.263
187388.275	NaN	-6.109	2.326	20.891	1504.762	1499.634	1497.436	-2.260	0.214	-2.855	-0.459	-1.301	-9.263
187389.252	NaN	-5.739	2.380	21.152	1503.297	1501.099	1494.505	-2.183	0.321	-2.687	-0.536	-1.301	-9.493
187390.228	NaN	-6.011	2.359	21.120	1504.762	1500.366	1495.971	-1.908	0.458	-2.672	-0.383	-1.225	-9.263
187391.205	NaN	-5.924	2.348	20.946	1504.029	1500.366	1495.971	-1.893	0.336	-2.748	-0.230	-1.148	-9.187
187392.181	NaN	-6.054	2.326	21.000	1503.297	1501.099	1493.773	-2.198	0.214	-3.008	-0.919	-1.301	-9.569
187393.158	NaN	-5.804	2.380	21.185	1503.297	1500.366	1495.971	-2.198	0.153	-2.916	-0.153	-1.301	-9.187
187394.135	NaN	-6.033	2.391	21.011	1504.029	1500.366	1496.703	-2.046	0.229	-3.023	-0.612	-1.225	-9.340
187395.111	NaN	-5.946	2.326	20.848	1504.762	1500.366	1495.238	-1.786	0.229	-2.809	-0.383	-1.301	-9.569
187396.088	NaN	-5.935	2.337	21.065	1503.297	1500.366	1495.238	-1.878	0.336	-2.748	-0.919	-1.072	-9.416
187397.064	NaN	-5.826	2.337	21.120	1504.029	1499.634	1496.703	-2.137	0.321	-2.870	-0.077	-1.225	-9.263
187398.041	NaN	-5.793	2.326	21.185	1503.297	1501.099	1495.971	-2.336	0.427	-2.824	-0.612	-1.301	-9.263
187399.017	NaN	-5.924	2.337	20.946	1504.029	1499.634	1496.703	-2.198	0.443	-2.626	-0.536	-1.301	-9.493
187399.994	NaN	-5.750	2.402	20.978	1504.029	1500.366	1495.971	-2.000	0.473	-2.595	-0.459	-1.378	-9.263
187400.970	NaN	-6.033	2.380	20.902	1504.029	1501.099	1495.238	-1.939	0.458	-2.885	-0.689	-1.148	-9.416
187401.947	NaN	-5.717	2.380	21.207	1503.297	1499.634	1495.238	-1.939	0.244	-2.794	-0.459	-1.301	-9.263
187402.924	NaN	-5.913	2.359	21.076	1504.762	1500.366	1495.971	-1.893	0.229	-2.855	-0.536	-1.148	-9.569
187403.900	NaN	-5.793	2.359	20.957	1504.029	1501.099	1495.238	-1.939	0.244	-3.023	-0.306	-1.072	-9.187
187404.877	NaN	-6.065	2.315	20.957	1504.762	1500.366	1495.238	-2.031	0.214	-3.008	-0.459	-1.148	-9.340
187405.853	NaN	-5.728	2.370	21.141	1504.029	1500.366	1495.971	-1.939	0.229	-2.702	0.000	-1.225	-9.263
187406.830	NaN	-5.989	2.370	20.946	1504.762	1501.832	1495.238	-2.198	0.336	-2.840	-0.459	-1.072	-9.416
187407.806	NaN	-5.913	2.326	20.870	1503.297	1500.366	1495.238	-2.290	0.275	-3.023	-0.383	-1.225	-9.416
187408.783	NaN	-5.848	2.304	21.022	1503.297	1500.366	1495.971	-2.198	0.153	-3.069	-0.689	-1.378	-9.493
187409.760	NaN	-5.859	2.402	21.043	1503.297	1500.366	1496.703	-2.137	0.122	-2.855	-0.077	-1.225	-9.110
187410.736	NaN	-5.913	2.380	21.022	1504.029	1500.366	1496.703	-2.198	0.214	-2.687	-0.689	-1.301	-9.416
187411.713	NaN	-5.978	2.402	20.870	1504.029	1500.366	1495.971	-1.969	0.427	-2.641	-0.536	-1.148	-9.646
187412.689	NaN	-5.772	2.391	21.065	1504.029	1500.366	1496.703	-2.122	0.382	-2.931	-0.230	-1.301	-9.110
187413.666	NaN	-6.033	2.380	20.870	1504.029	1500.366	1495.971	-2.473	0.198	-3.038	-0.153	-1.148	-9.263
187414.642	NaN	-5.750	2.359	21.141	1504.029	1500.366	1495.971	-2.275	0.260	-2.840	-0.306	-1.225	-9.493
187415.619	NaN	-5.978	2.337	21.065	1504.029	1501.099	1497.436	-2.046	0.275	-2.794	-0.383	-1.225	-9.569
187416.595	NaN	-5.804	2.435	21.033	1504.029	1501.832	1495.971	-1.954	0.275	-2.702	-0.383	-1.378	-9.110
187417.572	NaN	-6.130	2.359	20.924	1504.029	1501.099	1495.238	-2.000	0.244	-2.794	-0.842	-1.148	-9.340
187418.549	NaN	-5.717	2.413	21.120	1504.029	1500.366	1495.238	-2.000	0.198	-2.824	-0.306	-1.301	-9.340
187419.525	NaN	-5.989	2.370	20.989	1504.029	1501.099	1495.238	-2.214	0.336	-2.840	-0.689	-1.072	-9.416
187420.502	NaN	-5.880	2.293	20.880	1504.029	1501.099	1494.505	-1.893	0.321	-2.885	-0.306	-1.225	-9.340
187421.478	NaN	-5.935	2.304	20.957	1504.762	1500.366	1495.971	-1.908	0.244	-2.947	-0.689	-0.306	-9.340
187422.455	NaN	-5.804	2.359	21.076	1504.029	1500.366	1495.238	-2.168	0.168	-2.687	-0.077	-1.225	-9.263
187423.431	NaN	-5.935	2.370	20.967	1504.762	1499.634	1495.971	-2.290	0.107	-2.733	-0.612	-1.225	-9.340
187424.408	NaN	-5.967	2.380	20.891	1504.029	1499.634	1494.505	-2.137	0.168	-2.947	-0.459	-1.301	-9.646
187425.385	NaN	-5.826	2.391	21.065	1503.297	1498.901	1495.971	-2.290	0.076	-2.977	-0.766	-1.378	-9.416
187426.361	NaN	-6.033	2.370	20.957	1504.029	1498.901	1495.971	-2.168	0.046	-2.870	-0.536	-1.148	-9.340
187427.338	NaN	-5.739	2.359	21.250	1503.297	1499.634	1497.436	-2.153	0.137	-3.038	-0.612	-1.301	-9.493
187428.314	NaN	-5.891	2.359	21.065	1504.762	1499.634	1495.238	-2.214	0.153	-3.008	-0.536	-1.301	-9.569
187429.291	NaN	-5.848	2.424	21.043	1503.297	1499.634	1497.436	-2.198	0.229	-2.779	-0.230	-1.148	-9.187
187430.267	NaN	-6.152	2.348	20.935	1502.564	1500.366	1494.505	-2.061	0.382	-2.901	-0.230	-1.148	-9.263
187431.244	NaN	-5.652	2.402	21.217	1503.297	1500.366	1495.971	-1.939	0.229	-2.794	-0.153	-1.301	-9.187
187432.220	NaN	-5.902	2.370	21.033	1504.029	1501.099	1495.238	-2.168	0.183	-2.702	-0.536	-1.301	-9.340
187433.197	NaN	-5.913	2.348	20.891	1503.297	1501.099	1495.971	-2.275	0.351	-2.687	-0.536	-1.225	-9.569
187434.174	NaN	-6.011	2.315	20.957	1504.762	1501.832	1495.238	-2.321	0.565	-2.962	-0.919	-1.301	-9.493
187435.150	NaN	-5.826	2.370	21.087	1503.297	1501.099	1495.238	-2.473	0.504	-2.901	-0.153	-1.301	-9.187
187436.127	NaN	-5.913	2.370	20.946	1504.029	1501.099	1495.971	-2.122	0.412	-2.885	-0.612	-1.148	-9.493
187437.103	NaN	-5.902	2.348	20.880	1503.297	1500.366	1495.238	-1.924	0.366	-2.779	-0.383	-1.148	-9.340
187438.080	NaN	-5.848	2.348	21.109	1503.297	1500.366	1493.773	-1.954	0.183	-2.687	-0.459	-1.378	-9.263
187439.056	NaN	-6.022	2.348	21.076	1504.029	1500.366	1495.971	-2.122	0.153	-2.779	-0.153	-1.301	-9.187
187440.033	NaN	-5.750	2.359	21.283	1504.029	1501.832	1495.971	-2.046	0.198	-2.916	-0.306	-1.301	-9.187
187441.010	NaN	-5.935	2.402	21.054	1503.297	1501.099	1495.238	-1.939	0.183	-3.099	-0.459	-1.225	-9.569
187441.986	NaN	-5.783	2.413	21.065	1504.029	1499.634	1496.703	-1.939	0.137	-2.931	-0.766	-1.531	-9.416
187442.963	NaN	-6.130	2.380	20.935	1504.029	1501.099	1496.703	-2.061	0.107	-2.870	-0.536	-1.225	-9.493
187443.939	NaN	-5.707	2.370	21.174	1503.297	1500.366	1495.971	-1.878	0.153	-2.794	-0.689	-1.301	-9.569
187444.916	NaN	-6.011	2.348	20.989	1504.029	1500.366	1495.971	-1.924	0.229	-2.885	-0.459	-1.225	-9.340
187445.892	NaN	-5.870	2.380	20.891	1504.762	1499.634	1495.971	-2.183	0.397	-2.748	-0.230	-1.072	-9.263
187446.869	NaN	-6.087	2.337	20.989	1504.029	1500.366	1495.971	-2.244	0.336	-2.947	-0.689	-1.378	-9.340
187447.845	NaN	-5.750	2.348	21.130	1504.029	1501.099	1496.703	-2.214	0.153	-3.069	-0.077	-1.225	-9.340
187448.822	NaN	-6.000	2.391	20.891	1502.564	1501.099	1495.238	-2.458	0.183	-3.084	-0.383	-1.225	-9.416
187449.799	NaN	-5.924	2.337	20.870	1503.297	1501.099	1495.971	-2.565	0.229	-2.794	-0.306	-1.225	-9.569
187450.775	NaN	-5.848	2.348	21.000	1503.297	1501.099	1494.505	-2.489	0.351	-2.809	-0.919	-1.225	-9.569
187451.752	NaN	-5.935	2.359	20.978	1504.029	1501.099	1495.971	-2.473	0.366	-2.794	-0.306	-1.378	-9.263
187452.728	NaN	-5.859	2.359	21.087	1504.029	1501.099	1495.238	-2.244	0.183	-2.901	-0.766	-1.148	-9.493
187453.705	NaN	-5.957	2.391	20.891	1504.762	1499.634	1496.703	-1.924	0.214	-2.901	-0.459	-1.148	-9.416
187454.681	NaN	-5.761	2.435	20.957	1504.029	1500.366	1495.971	-2.092	0.244	-2.809	-0.459	-1.301	-9.263
187455.658	NaN	-6.054	2.391	20.870	1503.297	1499.634	1496.703	-2.244	0.229	-2.901	-0.077	-1.455	-9.263
187456.635	NaN	-5.707	2.359	21.207	1504.029	1501.099	1496.703	-2.092	0.321	-2.748	-0.306	-1.225	-9.187
187457.611	NaN	-5.935	2.348	21.022	1504.029	1500.366	1495.971	-2.092	0.214	-2.748	-0.383	-1.225	-9.416
187458.588	NaN	-5.837	2.380	20.935	1503.297	1500.366	1495.971	-2.153	0.031	-2.977	-0.306	-1.148	-9.416
187459.564	NaN	-6.098	2.326	20.880	1504.029	1500.366	1495.971	-2.122	-0.031	-2.992	-0.766	-1.148	-9.569
187460.541	NaN	-5.674	2.359	21.098	1504.029	1501.099	1495.238	-2.031	0.137	-2.855	-0.077	-1.301	-9.187
187461.517	NaN	-5.924	2.359	20.924	1504.762	1501.099	1495.238	-2.137	0.305	-3.069	-0.536	-1.225	-9.416
187462.494	NaN	-5.946	2.293	20.880	1504.762	1500.366	1494.505	-2.046	0.244	-2.885	-0.230	-1.225	-9.340
187463.470	3731581548.987	-5.913	2.293	21.033	1502.564	1501.099	1493.773	-2.076	0.290	-2.962	-0.766	-1.455	-9.493
187464.447	NaN	-5.848	2.370	21.109	1504.029	1498.901	1496.703	-2.046	0.290	-2.916	-0.077	-1.148	-9.263
187465.424	NaN	-5.913	2.326	21.043	1502.564	1499.634	1495.971	-2.229	0.183	-3.069	-0.612	-1.301	-9.416
187466.400	NaN	-5.946	2.359	20.837	1503.297	1498.901	1495.971	-2.183	0.168	-3.023	-0.383	-1.455	-9.569
187467.377	NaN	-5.804	2.402	21.000	1503.297	1500.366	1495.238	-2.260	0.107	-2.947	-0.153	-1.225	-9.416
187468.353	NaN	-6.043	2.359	20.826	1502.564	1500.366	1496.703	-2.305	0.107	-3.053	-0.230	-1.148	-9.263
187469.330	NaN	-5.750	2.326	21.141	1504.029	1500.366	1495.238	-2.153	0.122	-3.023	-0.689	-1.225	-9.493
187470.306	NaN	-5.978	2.370	21.054	1504.029	1500.366	1494.505	-2.183	0.137	-3.084	-0.459	-1.301	-9.416
187471.283	NaN	-5.859	2.402	20.891	1503.297	1500.366	1495.971	-2.275	0.122	-3.069	-0.230	-1.225	-9.187
187472.260	NaN	-6.065	2.348	20.870	1504.029	1501.099	1496.703	-2.473	0.076	-3.084	-0.842	-1.378	-9.493
187473.236	NaN	-5.696	2.380	21.076	1502.564	1499.634	1495.238	-2.305	0.168	-3.023	-0.230	-1.225	-9.263
187474.213	NaN	-5.978	2.413	21.011	1504.029	1500.366	1495.238	-2.107	0.290	-3.008	-0.766	-1.301	-9.493
187475.189	NaN	-5.978	2.326	20.902	1502.564	1499.634	1495.238	-2.000	0.229	-2.870	-0.306	-1.148	-9.416
187476.166	NaN	-5.957	2.283	20.978	1503.297	1498.168	1495.971	-2.305	0.214	-3.221	-0.689	-1.072	-9.416
187477.142	NaN	-5.739	2.359	21.120	1503.297	1500.366	1494.505	-2.427	0.229	-3.221	0.000	-1.301	-9.187
187478.119	NaN	-5.880	2.337	21.033	1501.832	1500.366	1494.505	-2.351	0.183	-3.053	-0.459	-1.301	-9.416
187479.095	NaN	-5.880	2.348	20.880	1502.564	1501.832	1495.971	-2.382	0.168	-2.870	-0.459	-1.225	-9.493
187480.072	NaN	-5.750	2.370	21.022	1503.297	1500.366	1495.238	-2.382	0.183	-2.809	-0.689	-1.455	-9.340
187481.049	NaN	-5.902	2.370	20.891	1502.564	1499.634	1495.971	-2.382	0.168	-2.901	-0.612	-1.148	-9.187
187482.025	NaN	-5.717	2.326	21.163	1502.564	1501.099	1495.238	-2.305	0.137	-3.008	-0.536	-1.301	-9.340
187483.002	NaN	-5.935	2.370	21.011	1505.495	1501.099	1495.971	-2.168	0.153	-3.115	-0.459	-1.301	-9.493
187483.978	NaN	-5.772	2.413	21.065	1503.297	1500.366	1494.505	-2.214	0.168	-3.115	-0.153	-1.072	-9.110
187484.955	NaN	-6.098	2.326	20.967	1504.029	1501.099	1495.238	-2.260	0.015	-3.023	-0.383	-1.301	-9.340
187485.931	NaN	-5.717	2.380	21.228	1503.297	1500.366	1494.505	-2.351	-0.168	-2.794	-0.153	-1.148	-9.110
187486.908	NaN	-5.957	2.359	21.043	1504.029	1500.366	1495.971	-2.290	0.076	-2.931	-0.536	-1.148	-9.416
187487.885	NaN	-5.935	2.326	20.891	1504.029	1501.099	1495.238	-2.244	0.244	-3.176	-0.306	-0.230	-9.110
187488.861	NaN	-5.989	2.326	20.967	1503.297	1501.099	1495.238	-2.305	0.092	-3.221	-0.842	-1.225	-9.493
187489.838	NaN	-5.815	2.348	21.087	1503.297	1500.366	1495.238	-2.198	-0.015	-2.992	-0.306	-1.072	-9.263
187490.814	NaN	-5.989	2.359	20.957	1504.762	1500.366	1495.971	-2.183	-0.031	-2.824	-0.689	-1.225	-9.340
187491.791	NaN	-5.924	2.337	20.859	1503.297	1500.366	1495.971	-2.092	0.107	-2.779	-0.306	-1.301	-9.493
187492.767	NaN	-5.815	2.315	21.109	1504.762	1501.099	1495.971	-2.107	-0.076	-3.069	-0.459	-1.455	-9.340
187493.744	NaN	-5.989	2.370	21.033	1504.762	1500.366	1495.971	-2.198	-0.061	-3.008	-0.077	-1.301	-9.187
187494.720	NaN	-5.804	2.359	21.185	1504.029	1500.366	1494.505	-2.321	-0.046	-2.992	-0.689	-1.225	-9.569
187495.697	NaN	-5.989	2.370	21.000	1504.029	1500.366	1495.971	-2.321	0.046	-3.053	-0.230	-1.378	-9.416
187496.674	NaN	-5.826	2.424	21.054	1504.029	1498.901	1496.703	-2.366	0.198	-3.145	-0.612	-1.378	-9.416
187497.650	NaN	-6.130	2.359	20.967	1504.762	1501.099	1495.238	-2.290	0.107	-3.084	-0.612	-1.225	-9.416
187498.627	NaN	-5.641	2.359	21.293	1504.029	1500.366	1495.971	-2.122	-0.046	-2.855	-0.689	-1.378	-9.340
187499.603	NaN	-5.935	2.326	21.054	1503.297	1500.366	1495.238	-2.229	0.031	-2.962	-0.459	-1.225	-9.493
187500.580	NaN	-5.848	2.359	20.946	1502.564	1500.366	1495.238	-2.275	0.153	-3.145	-0.230	-1.072	-9.340
187501.556	NaN	-5.989	2.315	21.000	1504.762	1501.099	1496.703	-2.534	0.046	-3.160	-0.383	-0.153	-9.340
187502.533	NaN	-5.728	2.391	21.152	1504.029	1500.366	1495.238	-2.443	-0.031	-3.069	-0.077	-1.225	-9.263
187503.510	NaN	-5.946	2.391	21.033	1504.029	1500.366	1495.971	-2.458	-0.107	-3.298	-0.459	-1.072	-9.340
187504.486	NaN	-5.902	2.326	20.946	1504.029	1499.634	1497.436	-2.382	-0.229	-3.298	-0.536	-1.455	-9.493
187505.463	NaN	-5.837	2.304	21.098	1504.029	1501.099	1495.238	-2.626	0.061	-3.130	-0.842	-1.301	-9.493
187506.439	NaN	-5.935	2.370	21.011	1504.029	1500.366	1495.971	-2.489	0.092	-3.084	-0.383	-1.148	-9.493
187507.416	NaN	-5.739	2.370	21.130	1503.297	1501.099	1495.971	-2.229	0.137	-3.099	-0.612	-1.225	-9.569
187508.392	NaN	-5.848	2.370	20.924	1503.297	1500.366	1495.971	-2.092	0.061	-3.115	-0.459	-1.225	-9.569
187509.369	NaN	-5.707	2.402	21.033	1504.029	1500.366	1494.505	-2.198	0.015	-2.977	-0.383	-1.301	-9.263
187510.345	NaN	-6.000	2.348	20.946	1504.762	1500.366	1496.703	-2.382	-0.015	-3.023	0.000	-1.301	-9.263
187511.322	NaN	-5.641	2.337	21.217	1503.297	1500.366	1495.238	-2.366	-0.046	-3.130	-0.230	-1.072	-9.340
187512.299	NaN	-5.902	2.337	21.043	1503.297	1500.366	1494.505	-2.489	-0.015	-3.267	-0.383	-1.225	-9.493
187513.275	NaN	-5.826	2.402	20.946	1504.029	1500.366	1495.971	-2.397	-0.015	-3.191	-0.383	-0.995	-9.340
187514.252	NaN	-6.120	2.315	20.913	1503.297	1500.366	1493.773	-2.489	0.107	-3.115	-0.536	-1.148	-9.416
187515.228	NaN	-5.707	2.380	21.163	1504.029	1500.366	1495.238	-2.580	0.061	-3.176	-0.459	-1.378	-9.263
187516.205	NaN	-5.891	2.413	20.967	1504.029	1500.366	1494.505	-2.519	0.214	-3.328	-0.612	-1.225	-9.493
187517.181	NaN	-5.989	2.326	20.913	1503.297	1499.634	1495.971	-2.336	0.153	-3.130	-0.306	-1.072	-9.416
187518.158	NaN	-6.000	2.304	20.957	1503.297	1501.832	1494.505	-2.290	0.107	-3.130	-0.612	-1.378	-9.340
187519.135	NaN	-5.848	2.337	21.065	1503.297	1500.366	1495.238	-2.336	0.000	-3.053	0.000	-1.301	-9.110
187520.111	NaN	-5.848	2.348	20.978	1504.762	1500.366	1495.971	-2.382	0.031	-3.252	-0.689	-1.378	-9.263
187521.088	NaN	-5.902	2.380	20.924	1503.297	1499.634	1495.971	-2.183	0.107	-3.328	-0.306	-1.455	-9.569
187522.064	NaN	-5.772	2.413	21.022	1503.297	1501.099	1496.703	-2.244	0.046	-3.267	-0.766	-1.455	-9.493
187523.041	NaN	-6.011	2.391	20.946	1504.762	1500.366	1495.238	-2.611	-0.107	-3.115	-0.230	-1.148	-9.263
187524.017	NaN	-5.761	2.359	21.228	1503.297	1500.366	1495.238	-2.687	-0.137	-3.084	-0.612	-1.225	-9.493
187524.994	NaN	-5.902	2.380	21.011	1504.029	1500.366	1495.971	-2.733	0.046	-2.992	-0.459	-1.378	-9.263
187525.970	NaN	-5.783	2.391	20.924	1504.029	1499.634	1496.703	-2.489	0.015	-3.069	-0.306	-1.301	-9.187
187526.947	NaN	-6.130	2.337	20.815	1502.564	1500.366	1495.238	-2.443	0.015	-2.947	-0.842	-1.301	-9.569
187527.924	NaN	-5.630	2.370	21.109	1504.029	1501.099	1498.168	-2.382	0.000	-2.977	-0.230	-1.301	-9.263
187528.900	NaN	-5.978	2.402	20.924	1503.297	1501.832	1495.971	-2.473	0.076	-3.023	-0.383	-1.378	-9.416
187529.877	NaN	-5.913	2.326	20.793	1504.029	1500.366	1495.971	-2.412	-0.076	-2.916	-0.306	-1.072	-9.416
187530.853	NaN	-5.935	2.315	20.967	1502.564	1501.099	1495.238	-2.534	-0.260	-3.130	-0.689	-1.225	-9.416
187531.830	NaN	-5.707	2.359	21.109	1503.297	1500.366	1496.703	-2.672	-0.275	-3.084	-0.153	-1.301	-9.263
187532.806	NaN	-5.902	2.337	20.989	1503.297	1500.366	1495.971	-2.641	-0.229	-3.115	-0.536	-1.225	-9.493
187533.783	NaN	-5.870	2.359	20.848	1504.029	1500.366	1495.971	-2.550	-0.122	-2.992	-0.383	-1.301	-9.569
187534.760	NaN	-5.793	2.391	21.054	1503.297	1500.366	1495.238	-2.519	-0.046	-3.023	-0.689	-1.455	-9.416
187535.736	NaN	-6.033	2.370	20.978	1504.029	1500.366	1495.971	-2.519	-0.122	-3.053	0.000	-1.301	-9.263
187536.713	NaN	-5.815	2.315	21.152	1504.762	1501.099	1495.238	-2.504	0.031	-3.023	-0.612	-1.301	-9.340
187537.689	NaN	-5.913	2.359	20.989	1504.029	1501.099	1495.238	-2.305	0.031	-3.191	-0.383	-1.378	-9.646
187538.666	NaN	-5.815	2.413	20.967	1504.029	1499.634	1495.238	-2.427	-0.214	-3.176	-0.230	-0.995	-9.187
187539.642	NaN	-6.087	2.359	20.891	1503.297	1500.366	1494.505	-2.687	-0.275	-3.115	-0.459	-1.225	-9.340
187540.619	NaN	-5.739	2.370	21.152	1504.029	1499.634	1495.971	-2.702	-0.092	-3.069	-0.077	-1.301	-9.263
187541.595	NaN	-6.054	2.337	20.935	1504.762	1500.366	1495.971	-2.397	0.031	-3.160	-0.536	-1.225	-9.340
187542.572	NaN	-5.913	2.337	20.848	1503.297	1500.366	1495.238	-2.122	-0.107	-3.130	-0.230	-1.148	-9.187
187543.549	NaN	-6.033	2.304	20.946	1503.297	1501.099	1496.703	-2.366	-0.244	-3.206	-0.842	-1.378	-9.416
187544.525	NaN	-5.750	2.380	21.087	1504.029	1500.366	1495.971	-2.656	-0.061	-3.084	-0.230	-1.148	-9.340
187545.502	NaN	-5.946	2.370	20.957	1503.297	1501.099	1495.238	-2.534	0.122	-3.053	-0.612	-1.301	-9.493
187546.478	NaN	-5.902	2.315	20.783	1504.029	1501.099	1495.238	-2.351	0.061	-3.282	-0.306	-1.148	-9.569
187547.455	NaN	-5.891	2.337	20.967	1504.029	1499.634	1495.971	-2.412	0.076	-3.389	-0.306	-1.378	-9.569
187548.431	NaN	-5.967	2.370	20.924	1502.564	1499.634	1496.703	-2.351	-0.076	-3.420	-0.077	-1.378	-9.110
187549.408	NaN	-5.793	2.326	21.141	1504.029	1500.366	1494.505	-2.473	-0.122	-3.252	-0.689	-1.072	-9.493
187550.385	NaN	-5.957	2.370	20.924	1502.564	1500.366	1493.773	-2.427	-0.122	-3.145	-0.536	-1.148	-9.416
187551.361	NaN	-5.772	2.402	20.924	1502.564	1499.634	1495.238	-2.458	-0.153	-2.962	-0.612	-1.455	-9.416
187552.338	NaN	-6.054	2.370	20.935	1503.297	1501.099	1495.971	-2.687	-0.092	-3.160	-0.612	-1.148	-9.263
187553.314	NaN	-5.739	2.391	21.163	1503.297	1499.634	1496.703	-2.489	0.092	-3.206	-0.612	-1.301	-9.416
187554.291	NaN	-5.967	2.348	21.054	1504.029	1500.366	1495.238	-2.443	0.107	-3.252	-0.612	-1.225	-9.493
187555.267	NaN	-5.859	2.337	20.902	1503.297	1499.634	1495.238	-2.275	-0.031	-3.130	-0.230	-0.995	-9.340
187556.244	NaN	-6.098	2.293	20.913	1503.297	1499.634	1495.971	-2.473	-0.260	-3.252	-0.459	-0.995	-9.187
187557.220	NaN	-5.728	2.380	21.043	1503.297	1500.366	1495.971	-2.702	-0.397	-3.160	-0.153	-1.225	-9.416
187558.197	NaN	-5.902	2.359	20.924	1504.029	1499.634	1496.703	-2.748	-0.229	-3.160	-0.459	-1.301	-9.340
187559.174	NaN	-5.935	2.315	20.913	1504.029	1501.099	1495.971	-2.580	-0.183	-2.931	-0.459	-1.378	-9.569
187560.150	NaN	-5.870	2.293	20.967	1504.029	1500.366	1496.703	-2.733	-0.305	-2.977	-0.766	-1.378	-9.416
187561.127	NaN	-5.761	2.391	20.989	1504.029	1500.366	1496.703	-2.870	-0.260	-3.176	-0.153	-1.301	-9.263
187562.103	NaN	-5.804	2.337	21.087	1503.297	1500.366	1495.971	-2.672	-0.290	-3.313	-0.689	-1.301	-9.493
187563.080	NaN	-5.924	2.359	20.913	1502.564	1499.634	1494.505	-2.336	-0.275	-3.237	-0.306	-1.225	-9.493
187564.056	NaN	-5.761	2.413	20.989	1504.029	1500.366	1496.703	-2.443	-0.168	-3.053	-0.459	-1.301	-9.263
187565.033	NaN	-6.000	2.370	20.880	1504.029	1500.366	1495.238	-2.550	-0.214	-3.023	-0.230	-1.225	-9.110
187566.010	NaN	-5.728	2.348	21.163	1503.297	1501.099	1495.971	-2.733	-0.321	-3.130	-0.306	-1.301	-9.263
187566.986	NaN	-5.946	2.348	21.011	1503.297	1500.366	1495.238	-2.718	-0.260	-3.282	-0.459	-1.225	-9.416
187567.963	NaN	-5.804	2.391	21.000	1504.029	1500.366	1496.703	-2.687	-0.183	-3.069	-0.306	-1.225	-9.340
187568.939	NaN	-6.065	2.293	20.924	1504.029	1501.099	1495.971	-2.885	-0.137	-3.206	-0.766	-1.225	-9.416
187569.916	NaN	-5.707	2.370	21.109	1504.029	1500.366	1495.971	-2.840	-0.092	-3.145	-0.383	-1.225	-9.263
187570.892	NaN	-5.967	2.370	20.924	1504.762	1500.366	1495.238	-2.595	-0.122	-3.191	-0.612	-1.148	-9.340
187571.869	NaN	-5.946	2.315	20.859	1503.297	1501.099	1494.505	-2.519	0.015	-3.130	-0.153	-0.995	-9.263
187572.845	NaN	-5.967	2.315	21.054	1504.029	1501.099	1496.703	-2.840	-0.076	-3.176	-0.536	-1.455	-9.416
187573.822	NaN	-5.902	2.359	21.141	1504.029	1499.634	1497.436	-3.038	-0.244	-3.145	-0.077	-1.225	-9.187
187574.799	NaN	-5.837	2.359	21.033	1504.029	1500.366	1495.971	-2.931	-0.076	-3.252	-0.383	-1.378	-9.416
187575.775	NaN	-5.902	2.348	20.902	1503.297	1500.366	1495.971	-2.687	-0.183	-3.282	-0.306	-1.378	-9.569
187576.752	NaN	-5.783	2.413	20.978	1504.029	1501.832	1495.238	-2.611	-0.336	-3.328	-0.842	-1.455	-9.646
187577.728	NaN	-6.054	2.348	20.913	1503.297	1500.366	1493.773	-2.672	-0.244	-3.282	-0.306	-1.148	-9.263
187578.705	NaN	-5.750	2.326	21.152	1502.564	1499.634	1495.971	-2.641	-0.244	-3.389	-0.766	-1.301	-9.416
187579.681	NaN	-5.913	2.337	20.989	1503.297	1500.366	1496.703	-2.687	-0.153	-3.328	-0.383	-1.301	-9.340
187580.658	NaN	-5.793	2.391	20.967	1505.495	1500.366	1495.238	-2.748	-0.153	-3.344	-0.230	-1.301	-9.187
187581.635	NaN	-6.109	2.315	20.891	1504.029	1501.099	1495.238	-2.611	-0.290	-3.405	-0.766	-1.148	-9.340
187582.611	NaN	-5.685	2.380	21.228	1504.029	1501.099	1495.238	-2.489	-0.305	-3.282	-0.153	-1.301	-9.340
187583.588	NaN	-5.902	2.359	20.989	1503.297	1500.366	1495.238	-2.565	-0.153	-3.267	-0.459	-1.301	-9.493
187584.564	NaN	-5.935	2.293	20.967	1504.762	1500.366	1494.505	-2.504	-0.046	-3.374	-0.383	-1.225	-9.493
187585.541	NaN	-6.022	2.293	21.011	1504.029	1501.099	1495.971	-2.855	-0.107	-3.298	-0.766	-1.072	-9.416
187586.517	NaN	-5.783	2.348	21.087	1504.029	1499.634	1496.703	-3.053	-0.183	-3.267	-0.153	-1.148	-9.187
187587.494	NaN	-5.946	2.348	21.043	1504.029	1500.366	1495.971	-2.824	-0.351	-3.328	-0.612	-1.148	-9.493
187588.470	NaN	-5.891	2.359	21.033	1504.762	1500.366	1494.505	-2.519	-0.229	-3.237	-0.383	-1.301	-9.416
187589.447	NaN	-5.826	2.402	21.196	1504.029	1500.366	1494.505	-2.489	-0.214	-3.267	-0.459	-1.455	-9.416
187590.424	NaN	-5.978	2.402	21.065	1504.762	1500.366	1494.505	-2.626	-0.168	-3.237	-0.077	-1.301	-9.416
187591.400	NaN	-5.728	2.348	21.326	1504.029	1500.366	1495.971	-2.580	-0.305	-3.267	-0.459	-1.301	-9.493
187592.377	NaN	-5.880	2.380	21.130	1504.029	1501.099	1495.971	-2.626	-0.229	-3.206	-0.306	-1.378	-9.493
187593.353	NaN	-5.707	2.424	21.022	1502.564	1499.634	1495.971	-2.641	-0.244	-3.221	-0.153	-0.995	-9.416
187594.330	NaN	-6.141	2.359	20.891	1504.029	1500.366	1497.436	-2.595	-0.305	-3.221	-0.383	-1.225	-9.340
187595.306	NaN	-5.783	2.380	21.217	1503.297	1501.099	1496.703	-2.443	-0.214	-3.130	0.000	-1.148	-9.187
187596.283	NaN	-6.033	2.337	21.022	1503.297	1500.366	1495.238	-2.519	0.015	-3.069	-0.536	-1.225	-9.340
187597.260	NaN	-5.946	2.337	20.957	1504.029	1500.366	1495.971	-2.794	-0.031	-3.038	-0.306	-1.225	-9.416
187598.236	NaN	-6.022	2.315	21.054	1501.832	1501.099	1495.238	-3.053	-0.214	-3.267	-0.842	-1.225	-9.493
187599.213	NaN	-5.761	2.370	21.207	1504.029	1500.366	1495.238	-2.855	-0.275	-3.252	-0.306	-1.455	-9.263
187600.189	NaN	-5.957	2.370	21.043	1502.564	1500.366	1495.238	-2.702	-0.168	-3.374	-0.766	-1.301	-9.416
187601.166	NaN	-5.891	2.348	20.880	1504.029	1500.366	1495.238	-2.611	-0.153	-3.313	-0.230	-1.378	-9.569
187602.142	NaN	-5.870	2.348	21.076	1503.297	1501.099	1495.238	-2.489	-0.153	-3.237	-0.306	-1.378	-9.340
187603.119	NaN	-5.989	2.326	21.065	1501.832	1499.634	1494.505	-2.794	-0.290	-3.282	-0.077	-1.225	-9.033
187604.095	NaN	-5.793	2.348	21.141	1503.297	1500.366	1495.238	-2.977	-0.397	-3.328	-0.689	-1.148	-9.493
187605.072	NaN	-5.891	2.359	20.978	1504.029	1500.366	1495.971	-2.763	-0.198	-3.420	-0.383	-1.301	-9.340
187606.049	NaN	-5.750	2.424	21.130	1503.297	1500.366	1495.238	-2.718	-0.061	-3.267	-0.459	-1.455	-9.340
187607.025	NaN	-6.022	2.380	20.935	1503.297	1500.366	1496.703	-2.733	-0.046	-3.145	-0.612	-1.148	-9.416
187608.002	NaN	-5.685	2.359	21.293	1504.762	1500.366	1494.505	-2.748	-0.092	-3.374	-0.383	-1.301	-9.340
187608.978	NaN	-5.957	2.326	21.076	1504.029	1501.099	1495.971	-2.733	0.015	-3.511	-0.612	-1.225	-9.493
187609.955	NaN	-5.859	2.370	20.946	1504.762	1500.366	1494.505	-2.489	-0.015	-3.252	-0.230	-1.148	-9.340
187610.931	NaN	-6.011	2.315	20.913	1503.297	1501.099	1495.238	-2.641	-0.198	-3.191	-0.536	-1.301	-9.340
187611.908	NaN	-5.739	2.391	21.130	1503.297	1499.634	1496.703	-2.687	-0.229	-3.130	0.000	-1.225	-9.110
187612.885	NaN	-5.957	2.402	20.978	1503.297	1501.099	1496.703	-2.611	-0.076	-3.237	-0.306	-1.148	-9.416
187613.861	NaN	-5.978	2.326	20.837	1504.029	1501.099	1495.238	-2.473	-0.107	-3.191	-0.306	-1.378	-9.569
187614.838	NaN	-5.957	2.326	21.011	1503.297	1501.099	1496.703	-2.611	-0.244	-3.374	-0.919	-1.225	-9.416
187615.814	NaN	-5.848	2.370	21.152	1504.029	1500.366	1495.971	-2.702	-0.351	-3.496	-0.230	-1.225	-9.263
187616.791	NaN	-5.902	2.348	21.109	1503.297	1501.099	1495.238	-2.779	-0.137	-3.481	-0.689	-1.225	-9.493
187617.767	NaN	-5.935	2.370	20.880	1504.762	1500.366	1495.971	-2.519	-0.076	-3.405	-0.306	-1.301	-9.416
187618.744	NaN	-5.750	2.413	21.000	1504.762	1498.901	1496.703	-2.611	-0.092	-3.359	-0.306	-1.225	-9.340
187619.720	NaN	-6.054	2.380	20.913	1503.297	1501.099	1496.703	-2.779	-0.031	-3.405	-0.077	-1.301	-9.187
187620.697	NaN	-5.750	2.359	21.185	1504.029	1500.366	1495.238	-2.763	-0.046	-3.328	-0.230	-1.301	-9.033
187621.674	NaN	-5.967	2.359	21.000	1504.029	1501.099	1496.703	-2.794	-0.076	-3.374	-0.383	-1.072	-9.493
187622.650	NaN	-5.891	2.391	20.978	1504.029	1500.366	1495.971	-2.779	-0.122	-3.374	-0.383	-1.148	-9.493
187623.627	NaN	-6.120	2.315	20.946	1504.029	1501.099	1495.238	-2.992	0.000	-3.435	-0.689	-1.072	-9.493
187624.603	NaN	-5.717	2.370	21.087	1501.099	1500.366	1495.238	-2.992	-0.031	-3.313	-0.383	-1.378	-9.263
187625.580	NaN	-5.978	2.370	21.043	1504.029	1501.099	1494.505	-2.702	0.000	-3.267	-0.612	-1.301	-9.493
187626.556	NaN	-5.924	2.326	20.946	1504.029	1501.099	1495.971	-2.504	-0.107	-3.252	-0.306	-0.995	-9.263
187627.533	NaN	-6.033	2.326	21.022	1503.297	1501.099	1495.238	-2.611	-0.076	-3.282	-0.689	-1.455	-9.340
187628.510	NaN	-5.891	2.391	21.120	1504.029	1499.634	1495.238	-2.504	-0.061	-3.328	-0.077	-1.225	-8.957
187629.486	NaN	-6.011	2.337	21.065	1504.029	1500.366	1495.238	-2.656	0.076	-3.420	-0.536	-1.225	-9.340
187630.463	NaN	-5.957	2.370	20.870	1504.029	1499.634	1497.436	-2.641	0.122	-3.389	-0.459	-1.301	-9.569
187631.439	NaN	-5.804	2.380	21.000	1503.297	1500.366	1496.703	-2.656	-0.061	-3.481	-0.766	-1.455	-9.340
187632.416	NaN	-6.109	2.359	20.902	1503.297	1500.366	1495.971	-2.519	-0.198	-3.435	-0.306	-1.148	-9.263
187633.392	NaN	-5.783	2.326	21.152	1503.297	1498.901	1496.703	-2.794	-0.198	-3.450	-0.842	-1.301	-9.569
187634.369	NaN	-6.000	2.348	20.957	1503.297	1501.099	1495.971	-2.855	-0.076	-3.511	-0.459	-1.301	-9.416
187635.345	NaN	-5.815	2.435	20.870	1504.762	1500.366	1495.238	-2.763	-0.046	-3.405	-0.306	-1.301	-9.110
187636.322	NaN	-6.098	2.359	20.880	1503.297	1500.366	1496.703	-2.977	-0.015	-3.466	-0.766	-1.378	-9.493
187637.299	NaN	-5.674	2.391	21.163	1504.029	1498.901	1495.971	-2.931	-0.015	-3.389	-0.306	-1.225	-9.187
187659.760	NaN	-5.946	2.380	21.000	1502.564	1500.366	1494.505	-2.901	-0.244	-3.359	-0.459	-1.148	-9.493
187660.736	NaN	-5.859	2.446	21.033	1504.029	1499.634	1496.703	-2.702	-0.092	-3.420	-0.536	-1.301	-9.416
187661.713	3731581549.168	-6.163	2.370	20.837	1504.762	1501.099	1495.971	-2.687	-0.229	-3.573	-0.612	-1.225	-9.340
187662.689	NaN	-5.728	2.380	21.174	1503.297	1501.832	1495.238	-2.748	-0.137	-3.511	-0.459	-1.301	-9.340
187663.666	NaN	-5.989	2.359	21.098	1503.297	1501.099	1494.505	-2.702	0.122	-3.496	-0.536	-1.225	-9.416
187664.642	NaN	-5.891	2.391	20.967	1505.495	1499.634	1497.436	-2.443	0.153	-3.435	-0.153	-1.072	-9.263
187665.619	NaN	-6.109	2.326	21.033	1504.029	1500.366	1494.505	-2.489	0.168	-3.527	-0.612	-1.301	-9.340
187666.595	NaN	-5.772	2.348	21.228	1503.297	1501.099	1495.971	-2.580	0.046	-3.344	0.000	-1.225	-9.187
187667.572	NaN	-5.967	2.370	21.033	1504.029	1501.099	1494.505	-2.672	-0.046	-3.557	-0.459	-1.301	-9.416
187668.549	NaN	-6.000	2.304	20.946	1504.029	1500.366	1493.773	-2.840	-0.153	-3.527	-0.536	-1.225	-9.569
187669.525	NaN	-5.946	2.304	21.033	1504.029	1500.366	1496.703	-2.977	-0.198	-3.573	-0.842	-1.378	-9.493
187670.502	NaN	-5.902	2.337	21.098	1503.297	1500.366	1496.703	-2.931	-0.198	-3.664	-0.230	-1.378	-9.263
187671.478	NaN	-5.793	2.337	21.098	1503.297	1500.366	1495.971	-2.916	-0.153	-3.649	-0.689	-1.378	-9.493
187672.455	NaN	-5.924	2.380	20.967	1504.029	1501.099	1495.238	-2.718	0.076	-3.450	-0.383	-1.225	-9.493
187673.431	NaN	-5.772	2.413	21.000	1503.297	1500.366	1495.238	-2.809	0.168	-3.481	-0.383	-1.148	-9.263
187674.408	NaN	-5.978	2.370	20.913	1503.297	1500.366	1494.505	-2.794	0.015	-3.405	-0.153	-1.301	-9.110
187675.385	NaN	-5.707	2.348	21.228	1502.564	1500.366	1495.238	-2.733	0.061	-3.374	-0.306	-1.225	-9.263
187676.361	NaN	-5.913	2.380	21.087	1504.029	1500.366	1494.505	-2.794	0.122	-3.389	-0.383	-1.301	-9.416
187677.338	NaN	-5.826	2.380	21.000	1504.762	1500.366	1495.971	-2.901	0.153	-3.420	-0.459	-0.995	-9.493
187678.314	NaN	-6.109	2.315	20.902	1502.564	1500.366	1494.505	-2.733	0.153	-3.542	-0.689	-1.225	-9.416
187679.291	NaN	-5.750	2.380	21.163	1502.564	1498.901	1495.238	-2.489	0.107	-3.557	-0.536	-1.301	-9.340
187680.267	NaN	-5.967	2.391	20.989	1504.762	1501.099	1495.238	-2.534	0.153	-3.679	-0.689	-1.301	-9.569
187681.244	NaN	-5.902	2.337	20.804	1504.029	1500.366	1495.971	-2.595	0.076	-3.603	-0.306	-1.072	-9.263
187682.220	NaN	-6.011	2.304	21.000	1504.029	1499.634	1495.971	-2.748	0.198	-3.496	-0.766	-1.531	-9.416
187683.197	NaN	-5.804	2.359	21.109	1501.832	1499.634	1495.971	-2.794	0.244	-3.450	-0.077	-1.225	-9.263
187684.174	NaN	-5.870	2.337	20.957	1504.029	1501.099	1495.971	-2.931	0.214	-3.542	-0.689	-1.378	-9.493
187685.150	NaN	-5.924	2.359	20.826	1503.297	1498.901	1495.971	-2.718	0.153	-3.649	-0.689	-1.301	-9.646
187686.127	NaN	-5.793	2.380	21.022	1502.564	1498.901	1495.238	-2.733	0.046	-3.542	-0.766	-1.455	-9.493
187687.103	NaN	-6.000	2.391	20.913	1503.297	1499.634	1495.238	-2.656	-0.031	-3.466	-0.383	-1.148	-9.263
187688.080	NaN	-5.717	2.326	21.174	1503.297	1499.634	1496.703	-2.702	0.031	-3.527	-0.612	-1.148	-9.569
187689.056	NaN	-5.935	2.359	21.011	1502.564	1500.366	1493.773	-2.763	0.183	-3.527	-0.536	-1.225	-9.493
187690.033	NaN	-5.837	2.446	21.011	1503.297	1500.366	1495.238	-2.656	0.275	-3.618	-0.153	-1.148	-9.033
187691.010	NaN	-6.120	2.370	20.924	1504.029	1500.366	1495.238	-2.458	0.214	-3.618	-0.766	-1.225	-9.187
187691.986	NaN	-5.707	2.380	21.141	1502.564	1499.634	1496.703	-2.534	0.229	-3.405	-0.230	-1.148	-9.340
187692.963	NaN	-5.967	2.337	20.967	1504.029	1500.366	1495.238	-2.611	0.198	-3.618	-0.383	-1.225	-9.416
187693.939	NaN	-5.946	2.337	20.924	1503.297	1499.634	1494.505	-2.595	0.153	-3.725	-0.230	-1.148	-9.493
187694.916	NaN	-5.946	2.326	21.011	1504.029	1499.634	1496.703	-2.855	0.305	-3.817	-0.842	-1.072	-9.493
187695.892	NaN	-5.750	2.370	21.163	1504.762	1500.366	1495.971	-2.840	0.412	-3.664	-0.153	-1.225	-9.263
187696.869	NaN	-5.957	2.326	20.967	1503.297	1500.366	1494.505	-2.702	0.305	-3.603	-0.689	-1.301	-9.340
187697.845	NaN	-5.935	2.359	20.870	1503.297	1501.099	1495.971	-2.611	0.183	-3.389	-0.383	-1.301	-9.263
187698.822	NaN	-5.880	2.326	21.011	1503.297	1500.366	1495.238	-2.656	0.137	-3.511	-0.766	-1.301	-9.263
187699.799	NaN	-5.978	2.359	20.989	1503.297	1501.099	1495.971	-2.718	0.076	-3.664	-0.077	-1.225	-9.263
187700.775	NaN	-5.826	2.337	21.141	1504.029	1501.099	1495.238	-2.779	0.122	-3.466	-0.689	-1.301	-9.340
187701.752	NaN	-5.913	2.391	20.946	1504.029	1500.366	1495.971	-2.595	0.321	-3.374	-0.306	-1.301	-9.569
187702.728	NaN	-5.793	2.424	20.989	1504.762	1500.366	1495.238	-2.504	0.260	-3.420	-0.230	-1.225	-9.416
187703.705	NaN	-6.141	2.359	20.891	1504.029	1501.099	1495.238	-2.733	0.046	-3.664	-0.383	-1.301	-9.263
187704.681	NaN	-5.739	2.370	21.141	1504.029	1500.366	1495.971	-2.550	0.122	-3.542	-0.153	-1.072	-9.646
187705.658	NaN	-6.000	2.370	20.967	1503.297	1500.366	1495.971	-2.626	0.351	-3.542	-0.383	-1.378	-9.263
187706.635	NaN	-5.924	2.337	20.946	1504.762	1501.099	1495.971	-2.580	0.336	-3.542	-0.230	-1.148	-9.263
187707.611	NaN	-6.087	2.315	20.967	1503.297	1501.099	1495.971	-2.763	0.275	-3.511	-0.919	-1.301	-9.569
187708.588	NaN	-5.837	2.402	21.011	1505.495	1500.366	1495.971	-2.733	0.122	-3.420	-0.230	-1.225	-9.110
187709.564	NaN	-6.043	2.380	20.880	1504.029	1500.366	1494.505	-2.641	0.153	-3.420	-0.612	-1.301	-9.493
187710.541	NaN	-5.935	2.337	20.826	1504.029	1501.099	1496.703	-2.580	0.168	-3.573	-0.383	-1.148	-9.569
187711.517	NaN	-5.924	2.315	21.054	1504.029	1501.099	1494.505	-2.779	0.168	-3.557	-0.383	-1.378	-9.569
187712.494	NaN	-5.891	2.337	21.043	1503.297	1500.366	1495.971	-2.855	0.107	-3.435	0.000	-1.148	-9.187
187713.470	NaN	-5.804	2.337	21.141	1504.029	1499.634	1496.703	-2.611	0.153	-3.710	-0.612	-1.301	-9.416
187714.447	NaN	-6.000	2.380	20.935	1502.564	1500.366	1495.238	-2.473	0.366	-3.847	-0.459	-1.148	-9.493
187715.424	NaN	-5.804	2.435	20.935	1504.029	1501.099	1496.703	-2.565	0.321	-3.649	-0.459	-1.378	-9.263
187716.400	NaN	-5.989	2.380	20.978	1504.029	1500.366	1494.505	-2.656	0.214	-3.664	-0.536	-1.301	-9.263
187717.377	NaN	-5.924	2.370	20.946	1504.029	1501.099	1495.971	-2.565	0.153	-3.649	-0.459	-1.148	-9.493
187718.353	NaN	-5.837	2.370	21.141	1504.029	1500.366	1494.505	-2.427	0.290	-3.527	-0.306	-0.077	-9.340
187719.330	NaN	-6.174	2.272	20.967	1504.029	1501.099	1495.971	-2.656	0.290	-3.618	-0.766	-1.301	-9.722
187720.306	NaN	-5.696	2.370	21.087	1504.029	1501.099	1495.971	-2.656	0.260	-3.374	-0.536	-1.225	-9.187
187721.283	NaN	-5.924	2.359	20.978	1504.029	1501.099	1495.971	-2.702	0.305	-3.435	-0.689	-1.378	-9.263
187722.260	NaN	-5.891	2.370	21.065	1504.029	1500.366	1496.703	-2.672	0.275	-3.588	-0.383	-1.225	-9.416
187723.236	NaN	-6.022	2.337	21.022	1504.029	1501.099	1496.703	-2.733	0.244	-3.679	-0.766	-1.301	-9.340
187724.213	NaN	-5.728	2.391	21.163	1504.029	1500.366	1495.971	-2.672	0.031	-3.679	-0.153	-1.148	-9.033
187725.189	NaN	-5.967	2.326	21.054	1504.029	1501.832	1495.971	-2.565	0.031	-3.679	-0.383	-1.301	-9.340
187726.166	NaN	-5.880	2.359	20.967	1503.297	1500.366	1495.971	-2.397	0.214	-3.725	-0.306	-1.225	-9.493
187727.142	NaN	-5.891	2.402	21.087	1504.029	1500.366	1496.703	-2.580	0.168	-3.679	-0.766	-1.455	-9.263
187728.119	NaN	-6.065	2.348	20.902	1504.029	1500.366	1494.505	-2.626	0.153	-3.450	-0.230	-1.072	-9.416
187729.095	NaN	-5.783	2.326	21.163	1503.297	1500.366	1496.703	-2.611	0.092	-3.252	-0.689	-1.072	-9.416
187730.072	NaN	-6.033	2.337	21.011	1503.297	1501.099	1495.238	-2.336	0.107	-3.679	-0.383	-1.301	-9.340
187731.049	NaN	-5.761	2.402	21.011	1503.297	1501.099	1495.971	-2.672	0.260	-3.878	-0.459	-1.148	-9.110
187732.025	NaN	-6.109	2.326	20.935	1504.029	1499.634	1496.703	-2.916	0.244	-3.863	-0.077	0.000	-9.187
187733.002	NaN	-5.739	2.348	21.239	1503.297	1499.634	1495.971	-2.763	0.198	-3.664	-0.230	-1.378	-9.340
187733.978	NaN	-6.022	2.380	20.935	1504.762	1501.099	1495.971	-2.611	0.198	-3.786	-0.383	-1.301	-9.493
187734.955	NaN	-5.924	2.348	20.848	1503.297	1500.366	1495.238	-2.321	0.107	-3.756	-0.383	-1.148	-9.416
187735.931	NaN	-5.967	2.348	21.043	1502.564	1500.366	1494.505	-2.443	0.183	-3.802	-0.842	-1.301	-9.646
187736.908	NaN	-5.761	2.413	21.120	1504.029	1498.901	1496.703	-2.840	0.260	-3.542	0.077	-1.148	-9.110
187737.885	NaN	-5.967	2.402	21.043	1503.297	1498.901	1495.238	-2.962	0.275	-3.740	-0.689	-0.995	-9.416
187738.861	NaN	-5.859	2.337	20.902	1503.297	1500.366	1495.238	-2.580	0.168	-3.664	-0.230	-0.077	-9.110
187739.838	NaN	-5.815	2.359	21.076	1504.029	1500.366	1496.703	-2.626	0.214	-3.771	-0.612	-1.531	-9.493
187740.814	NaN	-6.043	2.359	20.967	1503.297	1499.634	1495.971	-2.733	0.427	-3.618	0.000	-1.148	-9.187
187741.791	NaN	-5.772	2.370	21.141	1504.029	1501.099	1495.971	-2.702	0.382	-3.511	-0.459	-1.301	-9.263
187742.767	NaN	-6.011	2.348	21.065	1503.297	1500.366	1495.238	-2.733	0.183	-3.542	-0.536	-1.301	-9.646
187743.744	NaN	-5.848	2.380	21.065	1504.762	1500.366	1495.238	-2.656	0.137	-3.679	-0.230	-1.072	-9.263
187744.720	NaN	-6.152	2.326	20.870	1502.564	1500.366	1495.238	-2.656	0.122	-3.664	-0.536	-1.148	-9.416
187745.697	NaN	-5.728	2.348	21.109	1503.297	1499.634	1495.971	-2.473	0.122	-3.573	-0.536	-0.230	-9.263
187746.674	NaN	-5.978	2.359	21.054	1504.762	1501.832	1495.238	-2.443	0.397	-3.924	-0.459	-1.225	-9.416
187747.650	NaN	-5.924	2.359	20.957	1503.297	1500.366	1495.238	-2.382	0.489	-3.863	-0.306	-1.225	-9.340
187748.627	NaN	-6.022	2.337	20.967	1504.029	1501.099	1494.505	-2.427	0.382	-3.740	-0.689	-1.225	-9.493
187749.603	NaN	-5.772	2.424	21.087	1504.029	1499.634	1495.971	-2.565	0.183	-3.466	-0.230	-1.301	-9.187
187750.580	NaN	-6.011	2.402	20.967	1504.029	1501.099	1495.238	-2.473	0.183	-3.527	-0.536	-1.148	-9.340
187751.556	NaN	-5.946	2.337	20.935	1503.297	1500.366	1496.703	-2.351	0.229	-3.771	-0.230	-1.148	-9.340
187752.533	NaN	-5.870	2.304	21.109	1504.029	1501.099	1495.238	-2.550	0.489	-3.802	-0.766	-1.378	-9.569
187753.510	NaN	-5.924	2.370	21.011	1504.029	1500.366	1496.703	-2.656	0.427	-3.908	-0.077	-1.225	-9.263
187754.486	NaN	-5.815	2.370	21.054	1503.297	1500.366	1496.703	-2.672	0.366	-3.802	-0.536	-1.148	-9.416
187755.463	NaN	-5.913	2.380	20.946	1504.762	1501.099	1495.238	-2.733	0.290	-3.527	-0.383	-1.225	-9.340
187756.439	NaN	-5.761	2.380	21.054	1504.029	1501.099	1495.238	-2.702	0.214	-3.634	-0.612	-1.531	-9.187
187757.416	NaN	-6.043	2.348	20.946	1504.029	1500.366	1495.238	-2.702	0.153	-3.695	-0.689	-1.301	-9.493
187758.392	NaN	-5.750	2.326	21.196	1503.297	1499.634	1496.703	-2.565	0.336	-3.771	-0.536	-1.301	-9.416
187759.369	NaN	-5.880	2.370	21.011	1503.297	1500.366	1495.971	-2.427	0.244	-3.802	-0.383	-1.225	-9.646
187760.345	NaN	-5.859	2.391	20.913	1502.564	1499.634	1495.971	-2.458	0.229	-3.802	-0.230	-1.148	-9.340
187761.322	NaN	-6.000	2.359	20.902	1504.029	1501.099	1495.971	-2.489	0.260	-3.924	-0.383	-1.301	-9.416
187762.299	NaN	-5.598	2.413	21.098	1503.297	1500.366	1495.971	-2.473	0.305	-3.664	-0.077	-1.301	-9.263
187763.275	NaN	-5.946	2.359	20.902	1504.762	1500.366	1494.505	-2.656	0.183	-3.603	-0.459	-1.301	-9.416
187764.252	NaN	-5.913	2.359	20.870	1504.029	1500.366	1495.971	-2.672	0.046	-3.695	-0.383	-1.301	-9.646
187765.228	NaN	-5.913	2.337	20.967	1504.762	1500.366	1495.971	-2.687	0.061	-3.725	-0.842	-1.225	-9.493
187766.205	NaN	-5.815	2.402	21.033	1503.297	1499.634	1495.971	-2.580	0.260	-3.664	-0.153	-1.301	-9.187
187767.181	NaN	-5.848	2.348	20.957	1504.029	1500.366	1494.505	-2.565	0.473	-3.740	-0.689	-1.225	-9.416
187768.158	NaN	-5.902	2.337	20.793	1504.029	1500.366	1495.238	-2.580	0.397	-3.664	-0.383	-1.148	-9.493
187769.135	NaN	-5.750	2.402	20.978	1504.029	1500.366	1496.703	-2.641	0.305	-3.557	-0.306	-1.225	-9.263
187770.111	NaN	-6.098	2.326	20.891	1503.297	1500.366	1494.505	-2.565	0.336	-3.710	0.000	-1.225	-9.033
187771.088	NaN	-5.804	2.326	21.196	1504.029	1500.366	1495.238	-2.397	0.427	-3.939	-0.383	-1.378	-9.416
187772.064	NaN	-5.891	2.326	21.043	1503.297	1498.901	1495.971	-2.290	0.382	-3.878	-0.459	-1.301	-9.416
187773.041	NaN	-5.804	2.380	20.924	1504.762	1500.366	1495.971	-2.504	0.427	-3.649	-0.306	-1.378	-9.340
187774.017	NaN	-6.109	2.348	20.913	1504.029	1500.366	1495.238	-2.550	0.321	-3.649	-0.689	-1.225	-9.569
187774.994	NaN	-5.696	2.370	21.120	1502.564	1499.634	1495.971	-2.427	0.275	-3.542	-0.459	-1.301	-9.187
187775.970	NaN	-5.946	2.380	21.043	1501.832	1500.366	1494.505	-2.321	0.229	-3.664	-0.459	-1.225	-9.416
187776.947	NaN	-5.859	2.359	20.913	1504.029	1500.366	1495.971	-2.260	0.229	-3.695	-0.306	-1.225	-9.493
187777.924	NaN	-5.957	2.315	21.011	1503.297	1500.366	1495.238	-2.458	0.290	-3.725	-0.689	-1.455	-9.263
187778.900	NaN	-5.750	2.435	21.076	1504.029	1499.634	1494.505	-2.504	0.290	-3.588	0.000	-1.225	-9.187
187779.877	NaN	-5.902	2.402	21.000	1504.029	1501.099	1495.238	-2.534	0.275	-3.679	-0.383	-1.225	-9.493
187780.853	NaN	-5.924	2.359	20.891	1503.297	1501.099	1495.238	-2.504	0.214	-3.679	-0.459	-1.455	-9.646
187781.830	NaN	-5.793	2.391	21.043	1504.029	1500.366	1495.971	-2.473	0.229	-3.618	-0.842	-1.301	-9.569
187782.806	NaN	-5.978	2.380	20.935	1503.297	1500.366	1495.971	-2.504	0.244	-3.786	-0.459	-1.225	-9.340
187783.783	NaN	-5.772	2.337	21.141	1503.297	1501.099	1495.971	-2.672	0.153	-3.771	-0.689	-1.148	-9.569
187784.760	NaN	-6.000	2.348	21.011	1503.297	1501.099	1495.238	-2.687	0.214	-3.893	-0.536	-1.378	-9.493
187785.736	NaN	-5.848	2.413	21.043	1504.029	1500.366	1495.238	-2.550	0.275	-3.756	-0.230	-1.225	-9.187
187786.713	NaN	-6.109	2.370	20.848	1505.495	1501.099	1496.703	-2.504	0.611	-3.634	-0.306	-1.301	-9.187
187787.689	NaN	-5.717	2.359	21.109	1504.029	1500.366	1495.971	-2.443	0.519	-3.573	-0.153	-1.301	-9.416
187788.666	NaN	-5.902	2.380	21.000	1504.029	1500.366	1496.703	-2.427	0.489	-3.893	-0.383	-1.148	-9.416
187789.642	NaN	-5.837	2.380	20.848	1503.297	1501.099	1494.505	-2.489	0.397	-3.878	-0.306	-1.225	-9.493
187790.619	NaN	-6.000	2.370	20.924	1503.297	1501.099	1495.971	-2.611	0.183	-3.756	-0.842	-1.148	-9.493
187791.595	NaN	-5.739	2.413	21.109	1504.762	1500.366	1496.703	-2.534	0.198	-3.481	-1.225	-1.225	-9.340
187792.572	NaN	-5.924	2.391	20.946	1504.762	1500.366	1495.971	-2.443	0.122	-3.603	-0.689	-1.225	-9.416
187793.549	NaN	-5.913	2.359	20.870	1503.297	1500.366	1495.238	-2.458	0.183	-3.756	-0.230	-1.225	-9.340
187794.525	NaN	-5.848	2.359	21.098	1503.297	1501.099	1495.971	-2.565	0.275	-3.664	-0.383	-1.378	-9.263
187795.502	NaN	-5.978	2.348	21.011	1503.297	1499.634	1496.703	-2.779	0.275	-3.786	0.077	-1.301	-9.187
187796.478	NaN	-5.804	2.370	21.120	1504.029	1501.099	1496.703	-2.687	0.290	-3.649	-0.612	-1.225	-9.340
187797.455	NaN	-6.011	2.326	20.902	1504.029	1500.366	1495.238	-2.702	0.397	-3.771	-0.383	-1.301	-9.493
187798.431	NaN	-5.761	2.402	20.880	1503.297	1499.634	1496.703	-2.611	0.290	-3.802	-0.230	-1.148	-9.416
187799.408	NaN	-6.141	2.359	20.870	1504.029	1500.366	1495.238	-2.733	0.183	-3.924	-0.536	-1.225	-9.340
187800.385	NaN	-5.739	2.315	21.141	1504.762	1500.366	1495.971	-2.748	0.229	-3.832	-0.612	-1.225	-9.569
187801.361	NaN	-5.978	2.359	20.967	1504.029	1501.099	1496.703	-2.443	0.244	-3.832	-0.383	-1.378	-9.340
187802.338	NaN	-5.870	2.402	20.913	1504.029	1500.366	1494.505	-2.504	0.260	-3.954	-0.230	-1.378	-9.187
187803.314	NaN	-6.109	2.337	20.880	1504.029	1500.366	1496.703	-2.550	0.198	-3.939	-0.995	-1.378	-9.493
187804.291	NaN	-5.750	2.402	21.098	1504.762	1501.099	1495.971	-2.489	0.153	-3.786	-0.306	-1.378	-9.340
187805.267	NaN	-5.935	2.380	20.967	1504.029	1500.366	1495.971	-2.458	0.198	-3.756	-0.612	-1.225	-9.416
187806.244	NaN	-5.924	2.359	20.848	1504.029	1500.366	1495.238	-2.443	0.305	-3.847	-0.383	-1.225	-9.493
187807.220	NaN	-5.902	2.315	21.000	1504.029	1500.366	1495.238	-2.565	0.382	-3.863	-0.842	-1.225	-9.493
187808.197	NaN	-5.880	2.359	21.022	1504.029	1499.634	1495.971	-2.565	0.427	-3.847	0.000	-1.225	-9.110
187809.174	NaN	-5.804	2.380	21.087	1504.029	1501.099	1495.971	-2.580	0.260	-3.756	-0.612	-1.225	-9.340
187810.150	NaN	-6.000	2.337	20.946	1504.029	1499.634	1495.971	-2.656	0.153	-3.634	-0.306	-1.225	-9.416
187811.127	NaN	-5.804	2.359	21.000	1503.297	1498.901	1495.971	-2.702	0.183	-3.649	-0.536	-1.378	-9.263
187812.103	NaN	-6.098	2.326	20.859	1504.762	1500.366	1496.703	-2.931	0.229	-3.863	-0.077	-0.153	-9.110
187813.080	NaN	-5.717	2.293	21.261	1501.099	1499.634	1495.238	-2.855	0.244	-3.878	-0.459	-1.301	-9.340
187814.056	NaN	-5.924	2.348	21.087	1503.297	1499.634	1496.703	-2.641	0.290	-3.649	-0.536	-1.301	-9.416
187815.033	NaN	-5.848	2.413	20.967	1503.297	1500.366	1496.703	-2.656	0.183	-3.618	-0.306	-1.148	-9.340
187816.010	NaN	-6.065	2.359	20.902	1503.297	1500.366	1494.505	-2.824	0.168	-3.802	-0.536	-1.148	-9.493
187816.986	NaN	-5.696	2.413	21.087	1502.564	1500.366	1495.238	-2.748	0.214	-3.878	0.000	-1.225	-9.187
187817.963	NaN	-5.913	2.380	20.989	1503.297	1499.634	1494.505	-2.565	0.183	-3.878	-0.383	-1.225	-9.493
187818.939	NaN	-5.913	2.326	20.913	1504.029	1498.901	1495.238	-2.489	0.153	-3.695	-0.153	-0.077	-9.263
187819.916	NaN	-5.880	2.326	21.000	1502.564	1501.832	1494.505	-2.275	0.214	-3.710	-0.766	-1.455	-9.340
187820.892	NaN	-5.859	2.413	21.065	1503.297	1499.634	1496.703	-2.092	0.305	-3.847	0.000	-1.378	-9.187
187821.869	NaN	-5.902	2.380	20.946	1504.029	1500.366	1495.971	-2.382	0.397	-3.847	-0.536	-1.148	-9.416
187822.845	NaN	-5.935	2.359	20.957	1504.029	1500.366	1496.703	-2.794	0.489	-3.740	-0.383	-1.301	-9.493
187823.822	NaN	-5.772	2.402	21.065	1504.029	1501.099	1496.703	-2.809	0.290	-3.908	-0.383	-1.225	-9.340
187824.799	NaN	-6.000	2.359	20.924	1504.029	1500.366	1495.238	-2.855	0.107	-4.153	-0.230	-1.301	-9.110
187825.775	NaN	-5.739	2.326	21.207	1504.029	1499.634	1496.703	-2.641	0.031	-4.000	-0.536	-1.378	-9.416
187826.752	NaN	-5.978	2.359	21.043	1504.029	1500.366	1495.971	-2.656	0.183	-4.000	-0.383	-1.378	-9.340
187827.728	NaN	-5.783	2.424	21.043	1504.029	1501.099	1494.505	-2.580	0.321	-3.893	-0.306	-1.455	-9.187
187828.705	NaN	-6.087	2.380	20.902	1504.029	1500.366	1495.971	-2.565	0.336	-3.786	-0.766	-1.148	-9.493
187829.681	NaN	-5.685	2.380	21.163	1503.297	1500.366	1495.971	-2.641	0.336	-3.725	-0.383	-1.378	-9.340
187830.658	NaN	-5.978	2.359	21.043	1504.029	1500.366	1495.971	-2.672	0.137	-3.802	-0.536	-1.225	-9.493
187831.635	NaN	-5.859	2.370	20.913	1504.029	1501.099	1496.703	-2.580	-0.168	-3.618	-0.230	-1.072	-9.340
187832.611	NaN	-5.902	2.359	21.043	1504.029	1501.832	1496.703	-2.702	-0.061	-3.695	-0.612	-1.225	-9.340
187833.588	NaN	-5.750	2.435	21.130	1503.297	1499.634	1498.168	-2.855	0.061	-3.771	0.077	-1.225	-9.110
187834.564	NaN	-5.902	2.370	20.957	1504.029	1501.832	1495.971	-2.641	0.153	-3.802	-0.536	-1.378	-9.569
187835.541	NaN	-5.891	2.359	20.870	1505.495	1500.366	1495.238	-2.412	0.168	-3.573	-0.536	-1.225	-9.569
187836.517	NaN	-5.772	2.391	21.054	1504.029	1500.366	1496.703	-2.595	0.107	-3.618	-0.689	-1.378	-9.263
187837.494	NaN	-5.957	2.348	20.989	1503.297	1500.366	1495.971	-2.840	0.031	-3.756	-0.459	-1.148	-9.416
187838.470	3731581549.347	-5.750	2.380	21.120	1503.297	1500.366	1495.971	-2.641	0.107	-3.817	-0.612	-1.148	-9.493
187839.447	NaN	-5.989	2.370	20.957	1503.297	1500.366	1494.505	-2.473	0.137	-3.817	-0.459	-1.301	-9.569
187840.424	NaN	-5.793	2.413	21.043	1504.029	1501.099	1496.703	-2.580	0.168	-3.802	-0.153	-1.225	-9.033
187841.400	NaN	-6.087	2.337	20.902	1504.029	1499.634	1495.971	-2.718	0.061	-3.878	-0.230	-1.148	-9.263
187842.377	NaN	-5.707	2.337	21.217	1503.297	1500.366	1495.971	-2.534	-0.092	-4.031	-0.153	-1.455	-9.110
187843.353	NaN	-5.913	2.370	21.054	1504.029	1500.366	1495.971	-2.733	-0.046	-3.939	-0.459	-1.225	-9.493
187844.330	NaN	-5.870	2.359	20.870	1504.029	1501.099	1495.238	-2.534	0.198	-3.664	-0.306	-1.148	-9.493
187845.306	NaN	-5.989	2.326	21.054	1504.029	1501.099	1495.971	-2.595	0.183	-3.664	-0.766	-1.148	-9.569
187846.283	NaN	-5.685	2.413	21.196	1503.297	1499.634	1496.703	-2.672	0.137	-3.573	-0.306	-1.455	-9.340
187847.260	NaN	-5.935	2.380	20.989	1503.297	1500.366	1495.238	-2.626	0.168	-3.847	-0.612	-1.225	-9.493
187848.236	NaN	-5.902	2.337	20.935	1503.297	1501.099	1495.238	-2.443	0.168	-3.908	-0.306	-1.072	-9.493
187849.213	NaN	-5.848	2.315	21.120	1504.029	1499.634	1495.238	-2.443	0.092	-3.954	-0.383	-1.378	-9.340
187850.189	NaN	-5.913	2.337	21.033	1503.297	1499.634	1495.238	-2.641	0.198	-4.000	0.077	-1.225	-9.263
187851.166	NaN	-5.761	2.348	21.076	1504.029	1501.099	1496.703	-2.565	0.198	-3.847	-0.536	-1.225	-9.263
187852.142	NaN	-5.946	2.359	20.935	1504.029	1500.366	1495.971	-2.565	0.061	-3.557	-0.459	-1.301	-9.493
187853.119	NaN	-5.772	2.402	20.967	1503.297	1500.366	1495.238	-2.611	0.031	-3.527	-0.689	-1.455	-9.340
187854.095	NaN	-6.141	2.337	20.837	1504.762	1500.366	1495.238	-2.748	0.260	-3.954	-0.459	-1.148	-9.493
187855.072	NaN	-5.728	2.337	21.130	1503.297	1499.634	1495.238	-2.763	0.229	-4.000	-0.612	-1.148	-9.493
187856.049	NaN	-5.891	2.359	21.033	1504.029	1501.099	1496.703	-2.626	0.168	-3.924	-0.459	-1.225	-9.416
187857.025	NaN	-5.880	2.370	20.924	1504.029	1500.366	1495.971	-2.473	0.076	-3.756	-0.306	-1.225	-9.187
187858.002	NaN	-6.065	2.326	20.935	1504.029	1501.099	1495.238	-2.687	0.198	-3.893	-0.766	-1.378	-9.493
187858.978	NaN	-5.696	2.370	21.087	1502.564	1500.366	1494.505	-2.962	0.290	-3.924	-0.153	-1.378	-9.340
187859.955	NaN	-5.957	2.359	21.011	1503.297	1500.366	1494.505	-2.885	0.260	-3.817	-0.459	-1.378	-9.416
187860.931	NaN	-5.924	2.337	20.859	1504.762	1500.366	1495.238	-2.626	0.168	-3.695	-0.306	-1.301	-9.569
187861.908	NaN	-5.913	2.326	21.054	1503.297	1500.366	1495.238	-2.641	0.046	-3.786	-0.842	-1.301	-9.493
187862.885	NaN	-5.946	2.380	21.098	1503.297	1500.366	1495.238	-2.656	0.076	-3.832	-0.077	-1.225	-9.263
187863.861	NaN	-5.880	2.359	21.033	1504.029	1500.366	1495.238	-2.779	-0.015	-3.847	-0.612	-1.225	-9.416
187864.838	NaN	-5.935	2.348	20.837	1504.029	1500.366	1495.238	-2.748	0.031	-3.939	-0.459	-1.301	-9.569
187865.814	NaN	-5.685	2.370	20.935	1504.029	1499.634	1494.505	-2.794	0.229	-3.969	-0.383	-1.378	-9.340
187866.791	NaN	-6.087	2.348	20.837	1504.029	1501.099	1495.971	-2.870	0.290	-4.015	0.000	-1.148	-9.263
187867.767	NaN	-5.750	2.304	21.152	1503.297	1500.366	1496.703	-2.748	0.122	-4.046	-0.536	-1.378	-9.263
187868.744	NaN	-5.924	2.315	20.946	1503.297	1500.366	1495.971	-2.443	0.290	-3.893	-0.459	-1.301	-9.569
187869.720	NaN	-5.793	2.359	20.826	1504.029	1499.634	1495.971	-2.382	0.290	-3.969	-0.230	-1.072	-9.416
187870.697	NaN	-6.043	2.315	20.815	1503.297	1501.099	1494.505	-2.733	0.061	-4.076	-0.766	-1.301	-9.340
187871.674	NaN	-5.750	2.402	21.130	1504.762	1500.366	1495.971	-2.641	-0.015	-3.985	-1.148	-1.225	-9.340
187872.650	NaN	-5.978	2.359	20.902	1505.495	1501.099	1495.971	-2.504	-0.092	-4.046	-0.536	-1.301	-9.493
187873.627	NaN	-5.935	2.326	20.793	1503.297	1500.366	1496.703	-2.489	0.015	-3.893	-0.306	-1.225	-9.340
187874.603	NaN	-5.957	2.315	20.946	1503.297	1499.634	1495.238	-2.626	0.107	-3.878	-0.766	-1.455	-9.263
187875.580	NaN	-5.848	2.380	21.065	1503.297	1501.099	1496.703	-2.611	0.015	-3.695	-0.153	-1.301	-9.263
187876.556	NaN	-5.880	2.391	20.946	1504.762	1501.832	1496.703	-2.595	0.061	-3.679	-0.612	-1.072	-9.416
187877.533	NaN	-5.913	2.348	20.815	1503.297	1500.366	1494.505	-2.656	0.076	-3.893	-0.459	-1.301	-9.493
187878.510	NaN	-5.728	2.413	21.000	1503.297	1500.366	1494.505	-2.809	0.107	-3.954	-0.230	-1.225	-9.569
187879.486	NaN	-6.043	2.315	20.826	1503.297	1500.366	1495.238	-2.794	0.046	-4.031	-0.153	-1.148	-9.493
187880.463	NaN	-5.717	2.337	21.152	1503.297	1501.099	1495.971	-2.672	0.092	-3.924	-0.536	-1.225	-9.493
187881.439	NaN	-5.935	2.348	21.000	1504.762	1500.366	1494.505	-2.580	0.168	-4.092	-0.536	-1.378	-9.493
187882.416	NaN	-5.837	2.435	20.902	1504.029	1500.366	1495.238	-2.748	0.031	-4.061	-0.383	-1.301	-9.187
187883.392	NaN	-6.098	2.359	20.891	1503.297	1501.099	1495.971	-2.824	-0.153	-3.985	-0.919	-1.225	-9.569
187884.369	NaN	-5.674	2.391	21.109	1502.564	1499.634	1494.505	-2.565	-0.061	-3.969	-0.383	-1.531	-9.263
187885.345	NaN	-5.946	2.380	20.967	1503.297	1499.634	1495.971	-2.458	0.031	-3.969	-0.383	-1.301	-9.416
187886.322	NaN	-5.924	2.370	20.902	1504.029	1501.099	1495.971	-2.397	0.107	-3.939	-0.306	-1.148	-9.416
187887.299	NaN	-5.978	2.337	20.978	1504.762	1501.099	1495.238	-2.489	0.000	-3.893	-0.689	-1.378	-9.646
187888.275	NaN	-5.728	2.402	21.109	1504.029	1500.366	1495.238	-2.641	-0.107	-3.924	0.000	-1.148	-9.187
187889.252	NaN	-5.913	2.348	21.033	1503.297	1499.634	1496.703	-2.611	0.000	-3.924	-0.536	-1.225	-9.493
187890.228	NaN	-5.913	2.348	20.967	1502.564	1499.634	1496.703	-2.626	0.122	-3.786	-0.383	-1.301	-9.416
187891.205	NaN	-5.772	2.337	21.076	1503.297	1501.099	1495.238	-2.595	-0.046	-4.046	-0.536	-1.301	-9.416
187892.181	NaN	-5.946	2.348	20.967	1504.029	1499.634	1496.703	-2.412	0.076	-4.000	0.077	-1.301	-9.187
187893.158	NaN	-5.772	2.348	21.130	1503.297	1501.099	1495.971	-2.672	0.046	-3.985	-0.459	-1.225	-9.493
187894.135	NaN	-5.946	2.359	20.978	1504.029	1501.099	1495.238	-2.992	0.107	-3.985	-0.383	-1.225	-9.493
187895.111	NaN	-5.804	2.424	21.054	1504.029	1501.099	1495.971	-2.733	-0.015	-3.969	-0.153	-1.072	-9.416
187896.088	NaN	-6.141	2.337	20.935	1504.029	1500.366	1495.971	-2.687	-0.046	-4.031	-0.230	-1.301	-9.340
187897.064	NaN	-5.739	2.326	21.185	1503.297	1500.366	1494.505	-2.519	0.061	-3.939	-0.077	-1.301	-9.263
187898.041	NaN	-5.978	2.348	21.076	1505.495	1500.366	1494.505	-2.580	-0.046	-3.817	-0.459	-1.301	-9.416
187899.017	NaN	-5.891	2.359	20.902	1504.029	1501.099	1495.238	-2.763	-0.092	-3.756	-0.153	-1.378	-9.263
187899.994	NaN	-6.000	2.304	21.011	1502.564	1500.366	1495.971	-3.038	-0.076	-3.847	-0.995	-1.301	-9.416
187900.970	NaN	-5.728	2.391	21.130	1504.029	1500.366	1495.238	-3.053	0.015	-3.878	-0.230	-1.378	-9.187
187901.947	NaN	-5.989	2.380	20.946	1503.297	1501.099	1495.971	-2.779	0.107	-3.863	-0.612	-1.148	-9.493
187902.924	NaN	-5.848	2.337	20.913	1504.762	1500.366	1496.703	-2.351	0.092	-3.786	-0.383	-1.225	-9.416
187903.900	NaN	-5.848	2.380	21.163	1504.029	1500.366	1495.238	-2.534	0.092	-3.771	-0.459	-1.301	-9.110
187904.877	NaN	-5.891	2.370	21.076	1504.029	1500.366	1495.971	-2.824	0.031	-3.817	-0.077	-1.225	-9.263
187905.853	NaN	-5.728	2.359	21.109	1503.297	1500.366	1495.238	-2.763	0.046	-4.031	-0.612	-1.301	-9.340
187906.830	NaN	-5.924	2.315	21.000	1502.564	1499.634	1495.971	-2.504	0.137	-3.939	-0.459	-1.301	-9.569
187907.806	NaN	-5.739	2.370	20.967	1504.762	1500.366	1497.436	-2.840	0.076	-3.695	-0.536	-1.531	-9.416
187908.783	NaN	-6.033	2.348	20.880	1504.029	1501.099	1495.971	-2.840	-0.046	-3.908	-0.536	-1.301	-9.416
187909.760	NaN	-5.685	2.304	21.261	1504.029	1500.366	1495.971	-2.519	-0.107	-4.000	-0.459	-1.225	-9.416
187910.736	NaN	-5.957	2.359	21.087	1503.297	1500.366	1495.238	-2.672	-0.061	-4.015	-0.459	-1.301	-9.493
187911.713	NaN	-5.902	2.424	20.935	1504.762	1500.366	1495.971	-2.855	0.107	-3.969	-0.077	-1.148	-9.340
187912.689	NaN	-6.033	2.337	20.913	1502.564	1500.366	1495.971	-2.748	0.137	-3.939	-0.383	-1.148	-9.263
187913.666	NaN	-5.739	2.413	21.130	1503.297	1499.634	1498.168	-2.687	0.015	-3.786	-0.230	-1.301	-9.187
187914.642	NaN	-5.989	2.380	21.011	1503.297	1501.099	1497.436	-2.748	-0.076	-3.863	-0.536	-1.225	-9.416
187915.619	NaN	-5.978	2.348	20.935	1504.762	1500.366	1495.238	-2.672	-0.046	-3.817	-0.383	-1.301	-9.569
187916.595	NaN	-5.870	2.337	21.130	1504.029	1501.832	1495.971	-2.870	-0.015	-3.847	-0.766	-1.378	-9.493
187917.572	NaN	-5.848	2.380	21.141	1504.029	1501.099	1495.238	-2.641	0.046	-4.031	-0.153	-1.148	-9.340
187918.549	NaN	-5.804	2.370	21.054	1504.029	1501.099	1495.238	-2.763	-0.137	-4.061	-0.689	-1.225	-9.416
187919.525	NaN	-5.913	2.359	20.924	1503.297	1500.366	1495.238	-2.855	-0.168	-3.969	-0.306	-1.225	-9.340
187920.502	NaN	-5.739	2.413	21.120	1504.029	1501.099	1495.971	-2.824	0.031	-3.847	-0.306	-1.301	-9.263
187921.478	NaN	-6.120	2.337	20.935	1504.762	1501.099	1494.505	-2.916	-0.076	-3.893	0.000	-1.072	-9.110
187922.455	NaN	-5.783	2.326	21.228	1502.564	1500.366	1495.238	-2.779	-0.061	-4.031	-0.459	-1.301	-9.263
187923.431	NaN	-5.946	2.359	21.000	1504.029	1500.366	1494.505	-2.870	-0.015	-4.107	-0.459	-1.378	-9.493
187924.408	NaN	-5.859	2.370	21.011	1504.029	1500.366	1495.238	-2.855	0.000	-4.153	-0.383	-1.148	-9.340
187925.385	NaN	-6.054	2.337	21.011	1504.762	1501.099	1495.238	-2.733	0.015	-4.076	-0.766	-1.225	-9.569
187926.361	NaN	-5.707	2.359	21.185	1504.029	1500.366	1496.703	-2.718	-0.137	-4.015	-0.459	-1.225	-9.340
187927.338	NaN	-5.978	2.337	21.033	1503.297	1500.366	1497.436	-2.931	-0.092	-4.122	-0.383	-1.301	-9.416
187928.314	NaN	-5.946	2.293	20.891	1503.297	1498.901	1495.971	-2.901	-0.015	-3.939	-0.230	-1.072	-9.263
187929.291	NaN	-6.000	2.293	21.033	1504.029	1501.099	1494.505	-2.870	0.031	-3.878	-0.689	-1.608	-9.493
187930.267	NaN	-5.783	2.380	21.065	1504.029	1501.099	1495.971	-2.672	-0.092	-3.924	0.000	-1.225	-9.263
187931.244	NaN	-5.891	2.391	20.978	1504.029	1500.366	1495.238	-2.534	-0.015	-4.107	-0.536	-1.225	-9.340
187932.220	NaN	-5.902	2.359	20.957	1502.564	1500.366	1493.773	-2.565	0.015	-4.076	-0.536	-1.301	-9.416
187933.197	NaN	-5.739	2.391	21.054	1504.029	1499.634	1495.971	-2.916	0.076	-3.985	-0.766	-1.301	-9.493
187934.174	NaN	-6.000	2.337	20.967	1504.029	1499.634	1496.703	-2.626	0.153	-3.985	-0.230	-1.072	-9.340
187935.150	NaN	-5.750	2.326	21.163	1503.297	1500.366	1494.505	-2.443	0.092	-4.076	-0.459	-1.225	-9.340
187936.127	NaN	-5.978	2.326	21.011	1503.297	1501.099	1496.703	-2.366	-0.015	-4.031	-0.459	-1.225	-9.416
187937.103	NaN	-5.772	2.380	21.000	1503.297	1499.634	1495.238	-2.489	-0.107	-4.031	-0.230	-1.301	-9.187
187938.080	NaN	-6.065	2.348	20.891	1504.029	1500.366	1495.238	-2.901	-0.198	-4.092	-0.919	-1.301	-9.493
187939.056	NaN	-5.717	2.359	21.163	1504.762	1500.366	1495.971	-2.611	-0.183	-3.985	-0.230	-1.378	-9.263
187940.033	NaN	-5.946	2.326	21.065	1503.297	1500.366	1496.703	-2.519	0.000	-3.924	-0.306	-1.301	-9.416
187941.010	NaN	-5.902	2.315	20.891	1504.762	1499.634	1495.238	-2.672	0.076	-3.863	-0.230	-1.148	-9.493
187941.986	NaN	-5.967	2.293	21.033	1504.029	1501.099	1495.238	-2.779	0.061	-4.000	-0.689	-1.148	-9.416
187942.963	NaN	-5.761	2.413	21.228	1504.762	1500.366	1496.703	-2.626	-0.137	-3.893	-0.077	-1.225	-9.110
187943.939	NaN	-5.946	2.370	20.946	1504.029	1500.366	1495.971	-2.641	-0.061	-4.061	-0.612	-1.301	-9.416
187944.916	NaN	-5.913	2.326	20.837	1504.762	1500.366	1495.971	-2.840	0.061	-4.015	-0.383	-1.301	-9.569
187945.892	NaN	-5.859	2.380	21.076	1504.029	1499.634	1496.703	-2.931	-0.031	-4.000	-0.612	-1.378	-9.263
187946.869	NaN	-6.043	2.359	21.022	1504.029	1501.099	1495.238	-2.565	-0.229	-3.878	0.077	-1.225	-9.263
187947.845	NaN	-5.826	2.337	21.141	1503.297	1501.099	1496.703	-2.504	-0.122	-3.786	-0.459	-1.225	-9.416
187948.822	NaN	-5.967	2.370	20.989	1504.029	1499.634	1495.971	-2.565	-0.092	-3.954	-0.536	-1.455	-9.569
187949.799	NaN	-5.783	2.435	21.000	1502.564	1499.634	1495.238	-2.794	-0.153	-3.893	-0.153	-1.225	-9.263
187950.775	NaN	-6.185	2.326	20.870	1504.029	1500.366	1494.505	-2.931	-0.290	-4.000	-0.383	-1.225	-9.340
187951.752	NaN	-5.750	2.326	21.141	1504.029	1500.366	1495.238	-2.809	-0.183	-3.817	-0.153	-1.301	-9.416
187952.728	NaN	-5.957	2.348	21.033	1504.029	1500.366	1496.703	-2.748	0.000	-4.061	-0.459	-1.225	-9.416
187953.705	NaN	-5.913	2.380	20.859	1503.297	1500.366	1495.971	-2.718	-0.015	-4.092	-0.306	-1.301	-9.340
187954.681	NaN	-6.043	2.326	20.946	1504.762	1500.366	1495.971	-2.885	-0.153	-4.153	-0.766	-1.225	-9.416
187955.658	NaN	-5.761	2.391	21.076	1504.762	1499.634	1496.703	-2.916	-0.183	-3.893	-0.230	-1.378	-9.263
187956.635	NaN	-5.935	2.359	20.957	1504.029	1501.832	1495.238	-2.687	-0.137	-3.939	-0.612	-1.148	-9.493
187957.611	NaN	-5.957	2.348	20.870	1504.762	1499.634	1496.703	-2.656	-0.168	-3.908	-0.306	-1.148	-9.493
187958.588	NaN	-5.837	2.337	21.043	1503.297	1500.366	1494.505	-2.794	0.031	-4.061	-0.306	-1.455	-9.493
187959.564	NaN	-5.967	2.337	21.011	1504.029	1501.832	1495.971	-2.855	0.107	-3.908	-0.077	-1.225	-9.263
187960.541	NaN	-5.826	2.391	21.098	1504.762	1501.099	1495.238	-2.626	0.122	-3.893	-0.689	-1.225	-9.416
187961.517	NaN	-6.011	2.370	20.957	1504.029	1500.366	1495.971	-2.427	-0.015	-3.969	-0.383	-1.455	-9.493
187962.494	NaN	-5.750	2.413	21.000	1504.029	1500.366	1496.703	-2.565	0.031	-3.954	-0.459	-1.301	-9.263
187963.470	NaN	-6.130	2.359	20.837	1504.762	1499.634	1495.971	-2.855	-0.137	-3.924	-0.689	-1.301	-9.416
187964.447	NaN	-5.826	2.293	21.196	1502.564	1498.901	1495.971	-2.840	-0.122	-4.015	-0.383	-1.301	-9.416
187965.424	NaN	-5.935	2.326	21.087	1502.564	1498.901	1494.505	-2.656	-0.076	-4.153	-0.536	-1.225	-9.493
187966.400	NaN	-5.891	2.413	20.978	1504.029	1501.099	1495.971	-2.534	-0.076	-4.107	-0.153	-1.148	-9.340
187967.377	NaN	-6.065	2.348	20.957	1503.297	1500.366	1497.436	-2.824	0.031	-4.137	-0.459	-1.301	-9.416
187968.353	NaN	-5.728	2.391	21.109	1504.029	1500.366	1495.238	-2.672	-0.046	-3.954	-0.077	-1.225	-9.263
187969.330	NaN	-5.946	2.380	20.957	1504.029	1500.366	1495.238	-2.672	0.046	-3.954	-0.612	-1.225	-9.263
187970.306	NaN	-5.924	2.359	20.880	1503.297	1501.099	1495.238	-2.656	-0.031	-4.076	-0.306	-1.225	-9.493
187971.283	NaN	-5.826	2.326	21.022	1504.029	1501.099	1495.238	-2.824	-0.122	-4.107	-0.995	-1.455	-9.416
187972.260	3731581549.534	-5.848	2.380	21.054	1503.297	1500.366	1495.238	-2.947	-0.214	-4.122	-0.230	-1.225	-9.263
187973.236	NaN	-5.913	2.391	21.011	1504.029	1500.366	1495.971	-2.977	-0.153	-4.198	-0.612	-1.225	-9.416
187974.213	NaN	-5.946	2.370	20.902	1504.029	1501.099	1495.238	-2.672	0.061	-4.000	-0.306	-1.301	-9.646
187975.189	NaN	-5.793	2.380	21.022	1504.029	1499.634	1495.971	-2.580	-0.031	-3.954	-0.230	-1.301	-9.263
187976.166	NaN	-6.120	2.337	20.870	1503.297	1498.901	1495.238	-2.687	-0.290	-3.985	-0.153	-1.225	-9.263
187977.142	NaN	-5.761	2.348	21.185	1501.832	1500.366	1495.971	-2.824	-0.382	-4.031	-0.306	-1.301	-9.416
187978.119	NaN	-5.957	2.370	21.043	1504.029	1500.366	1495.971	-2.901	-0.076	-4.122	-0.383	-1.378	-9.569
187979.095	NaN	-5.848	2.413	20.957	1504.762	1500.366	1495.971	-2.916	-0.122	-4.198	-0.383	-1.225	-9.340
187980.072	NaN	-6.109	2.370	20.902	1502.564	1500.366	1495.238	-2.962	-0.153	-4.473	-0.766	-1.301	-9.493
187981.049	NaN	-5.728	2.380	21.109	1503.297	1500.366	1496.703	-2.718	-0.122	-4.198	-0.536	-1.225	-9.340
187982.025	NaN	-5.967	2.380	20.946	1503.297	1499.634	1495.238	-2.656	0.015	-4.015	-0.459	-1.378	-9.569
187983.002	NaN	-5.848	2.348	20.848	1503.297	1500.366	1495.238	-2.794	-0.061	-3.924	-0.230	-1.148	-9.340
187983.978	NaN	-5.946	2.315	20.978	1504.029	1501.099	1495.238	-2.840	-0.076	-4.061	-0.689	-1.378	-9.340
187984.955	NaN	-5.826	2.391	21.098	1504.762	1501.099	1495.238	-2.702	-0.153	-4.183	0.077	-1.301	-9.187
187985.931	NaN	-5.924	2.348	20.967	1504.762	1501.099	1495.971	-2.595	-0.061	-4.290	-0.536	-1.301	-9.340
187986.908	NaN	-5.935	2.326	20.913	1504.029	1499.634	1495.238	-2.656	-0.076	-4.260	-0.383	-1.301	-9.646
187987.885	NaN	-5.717	2.348	21.065	1504.029	1501.099	1497.436	-2.870	-0.137	-4.092	-0.842	-1.301	-9.416
187988.861	NaN	-6.043	2.337	20.978	1504.029	1501.099	1495.971	-2.931	-0.061	-4.061	-0.383	-1.148	-9.340
187989.838	NaN	-5.793	2.337	21.174	1504.029	1500.366	1495.971	-2.779	0.168	-3.939	-0.612	-0.995	-9.416
187990.814	NaN	-5.935	2.315	21.076	1504.029	1500.366	1495.238	-2.916	0.153	-4.122	-0.383	-1.301	-9.416
187991.791	NaN	-5.815	2.402	20.989	1504.029	1501.099	1495.238	-3.084	0.046	-4.244	-0.230	-1.301	-9.416
187992.767	NaN	-6.109	2.326	20.880	1504.029	1501.099	1496.703	-2.977	-0.168	-4.275	-0.077	-1.148	-9.340
187993.744	NaN	-5.750	2.326	21.228	1504.029	1501.099	1495.971	-2.855	-0.168	-4.153	-0.306	-1.455	-9.340
187994.720	NaN	-5.978	2.348	21.054	1504.029	1501.099	1495.971	-2.687	-0.122	-4.107	-0.306	-1.301	-9.569
187995.697	NaN	-5.935	2.370	20.935	1504.029	1500.366	1494.505	-2.733	-0.214	-4.107	-0.536	-1.225	-9.340
187996.674	NaN	-6.011	2.304	20.989	1504.029	1500.366	1495.238	-2.855	-0.031	-4.107	-0.842	-1.301	-9.569
187997.650	NaN	-5.728	2.413	21.098	1503.297	1500.366	1495.971	-2.779	0.076	-3.924	0.077	-1.225	-9.263
187998.627	NaN	-5.924	2.391	21.043	1503.297	1501.099	1495.238	-2.687	-0.046	-4.122	-0.689	-1.301	-9.493
187999.603	NaN	-5.924	2.337	20.957	1503.297	1500.366	1495.971	-2.672	-0.046	-4.321	-0.230	-1.301	-9.416
188000.580	NaN	-5.804	2.359	21.109	1504.029	1501.099	1495.238	-2.779	0.076	-4.382	-0.536	-1.301	-9.340
188001.556	NaN	-5.989	2.359	21.022	1504.029	1500.366	1496.703	-2.916	0.046	-4.260	0.077	-1.225	-9.263
188002.533	NaN	-5.793	2.359	21.163	1503.297	1500.366	1495.971	-2.763	-0.046	-4.183	-0.612	-1.301	-9.263
188003.510	NaN	-5.967	2.348	20.957	1501.832	1501.099	1496.703	-2.672	-0.092	-4.092	-0.612	-1.301	-9.646
188004.486	NaN	-5.793	2.402	21.022	1504.029	1499.634	1495.971	-2.641	0.000	-4.046	-0.230	-0.995	-9.340
188005.463	NaN	-6.152	2.315	20.913	1504.762	1501.099	1495.971	-2.611	0.046	-4.107	-0.459	-1.225	-9.263
188006.439	NaN	-5.739	2.326	21.228	1504.762	1500.366	1495.238	-2.626	-0.076	-4.168	-0.536	-1.072	-9.340
188007.416	NaN	-5.989	2.370	21.109	1503.297	1501.832	1495.971	-2.702	-0.244	-4.321	-0.536	-1.148	-9.340
188008.392	NaN	-5.935	2.380	20.935	1504.029	1500.366	1496.703	-2.687	-0.214	-4.427	-0.153	-1.225	-9.340
188009.369	NaN	-5.978	2.315	20.924	1503.297	1501.099	1495.238	-2.855	-0.260	-4.321	-0.919	-1.301	-9.493
188010.345	NaN	-5.685	2.391	21.087	1504.029	1500.366	1495.971	-2.779	-0.092	-4.122	-0.306	-1.378	-9.187
188011.322	NaN	-5.967	2.380	21.000	1503.297	1500.366	1496.703	-2.916	0.031	-4.107	-0.689	-1.225	-9.263
188012.299	NaN	-5.891	2.337	20.913	1504.029	1501.099	1497.436	-2.794	0.015	-4.153	-0.459	-1.225	-9.416
188013.275	NaN	-5.859	2.326	21.065	1503.297	1500.366	1494.505	-2.763	-0.046	-4.107	-0.842	-1.378	-9.569
188014.252	NaN	-5.902	2.370	21.120	1504.762	1500.366	1495.971	-2.809	-0.198	-3.954	-0.077	-1.148	-9.187
188015.228	NaN	-5.837	2.370	21.185	1501.832	1500.366	1493.773	-2.931	-0.076	-4.092	-0.536	-1.301	-9.416
188016.205	NaN	-6.022	2.380	21.011	1501.832	1499.634	1494.505	-2.718	0.153	-4.122	-0.383	-1.378	-9.569
188017.181	NaN	-5.750	2.435	21.076	1504.029	1500.366	1495.971	-2.733	0.137	-4.137	-0.383	-1.531	-9.340
188018.158	NaN	-6.174	2.337	20.935	1504.029	1501.099	1495.238	-2.916	-0.015	-4.198	-0.766	-1.225	-9.569
188019.135	NaN	-5.772	2.315	21.293	1504.029	1501.832	1495.971	-2.779	-0.183	-4.076	-0.536	-1.378	-9.493
188020.111	NaN	-5.978	2.326	21.130	1504.029	1500.366	1494.505	-2.763	-0.183	-3.969	-0.536	-1.225	-9.646
188021.088	NaN	-5.891	2.370	21.000	1503.297	1500.366	1494.505	-2.809	-0.122	-3.985	-0.383	-1.148	-9.340
188022.064	NaN	-6.087	2.326	20.967	1503.297	1501.099	1495.971	-2.855	-0.015	-4.137	-0.612	-1.301	-9.340
188023.041	NaN	-5.750	2.380	21.152	1503.297	1500.366	1495.971	-2.794	-0.031	-4.000	-0.077	-1.378	-9.187
188024.017	NaN	-5.957	2.359	21.043	1504.029	1500.366	1495.971	-2.626	-0.015	-4.168	-0.536	-1.378	-9.340
188024.994	NaN	-5.957	2.337	20.935	1504.762	1501.099	1495.238	-2.519	0.046	-4.092	-0.536	-1.225	-9.416
188025.970	NaN	-5.935	2.326	21.130	1504.762	1500.366	1495.971	-2.855	0.107	-4.305	-0.842	-1.455	-9.493
188026.947	NaN	-5.826	2.402	21.185	1503.297	1500.366	1494.505	-2.794	0.168	-4.168	-0.153	-1.378	-9.187
188027.924	NaN	-5.848	2.380	21.065	1504.029	1501.099	1495.971	-2.718	0.092	-3.908	-0.612	-1.072	-9.263
188028.900	NaN	-5.946	2.359	21.011	1504.029	1501.099	1495.238	-2.626	0.000	-4.137	-0.383	-1.378	-9.569
188029.877	NaN	-5.793	2.391	21.076	1504.762	1500.366	1494.505	-2.489	0.046	-4.305	-0.383	-1.225	-9.340
188030.853	NaN	-6.076	2.337	20.924	1503.297	1500.366	1496.703	-2.656	0.076	-4.214	-0.077	-1.148	-9.263
188031.830	NaN	-5.707	2.326	21.207	1504.029	1501.099	1495.971	-2.748	0.107	-4.168	-0.306	-1.301	-9.493
188032.806	NaN	-5.935	2.348	21.022	1504.762	1500.366	1496.703	-2.779	0.031	-4.351	-0.459	-1.301	-9.493
188033.783	NaN	-5.837	2.391	20.989	1504.029	1500.366	1495.238	-2.595	-0.031	-4.305	-0.306	-1.301	-9.263
188034.760	NaN	-6.065	2.326	20.957	1503.297	1500.366	1495.238	-2.550	0.092	-4.244	-0.689	-1.301	-9.493
188035.736	NaN	-5.685	2.370	21.141	1503.297	1500.366	1495.238	-2.687	0.046	-4.015	-0.459	-1.225	-9.416
188036.713	NaN	-5.913	2.380	21.076	1503.297	1501.099	1495.971	-2.870	-0.015	-4.137	-0.689	-1.225	-9.340
188037.689	NaN	-5.880	2.359	20.935	1504.762	1500.366	1497.436	-2.504	0.015	-4.092	-0.306	-1.301	-9.416
188038.666	NaN	-5.946	2.326	21.076	1503.297	1501.099	1495.971	-2.519	0.092	-4.229	-0.612	-1.378	-9.340
188039.642	NaN	-5.848	2.402	21.109	1504.029	1500.366	1495.238	-2.504	0.061	-4.427	0.077	-1.148	-9.263
188040.619	NaN	-5.935	2.380	21.011	1503.297	1500.366	1494.505	-2.550	-0.046	-4.183	-0.536	-1.378	-9.416
188041.595	NaN	-5.957	2.348	20.978	1503.297	1500.366	1496.703	-2.534	0.061	-3.939	-0.459	-1.455	-9.722
188042.572	NaN	-5.793	2.380	21.065	1502.564	1501.099	1496.703	-2.824	0.214	-4.183	-0.612	-1.301	-9.340
188043.549	NaN	-6.011	2.348	20.989	1503.297	1500.366	1495.971	-2.901	0.107	-4.260	-0.383	-1.148	-9.416
188044.525	NaN	-5.707	2.337	21.196	1503.297	1500.366	1495.238	-2.763	0.000	-4.137	-0.612	-1.225	-9.569
188045.502	NaN	-5.913	2.359	20.870	1504.029	1500.366	1496.703	-2.489	0.183	-4.137	-0.536	-1.225	-9.493
188046.478	NaN	-5.837	2.402	20.957	1504.029	1500.366	1495.238	-2.534	0.061	-4.092	-0.077	-1.225	-9.187
188047.455	NaN	-6.109	2.348	20.891	1504.029	1500.366	1495.238	-2.748	0.122	-4.122	-0.230	-1.148	-9.340
188048.431	NaN	-5.717	2.326	21.109	1504.762	1500.366	1495.238	-2.702	0.061	-4.061	-0.230	-1.378	-9.263
188049.408	NaN	-5.989	2.348	21.000	1503.297	1500.366	1494.505	-2.656	0.046	-4.198	-0.459	-1.225	-9.493
188050.385	NaN	-5.924	2.348	20.880	1503.297	1501.832	1495.971	-2.840	0.000	-4.305	-0.383	-1.148	-9.340
188051.361	NaN	-6.043	2.304	20.935	1504.029	1501.099	1495.971	-2.916	-0.046	-4.290	-0.842	-1.225	-9.416
188052.338	NaN	-5.750	2.402	21.109	1503.297	1500.366	1495.971	-2.519	0.092	-4.137	-0.383	-1.301	-9.187
188053.314	NaN	-5.913	2.370	20.989	1503.297	1501.099	1496.703	-2.565	0.153	-4.122	-0.689	-1.225	-9.416
188054.291	NaN	-5.913	2.337	20.935	1504.762	1501.099	1495.238	-2.397	0.122	-4.229	-0.306	-1.301	-9.340
188055.267	NaN	-5.859	2.326	21.098	1503.297	1501.099	1494.505	-2.534	0.076	-4.229	-0.536	-1.301	-9.187
188056.244	NaN	-5.946	2.337	21.043	1503.297	1500.366	1495.238	-2.565	-0.015	-4.137	0.077	-1.301	-9.263
188057.220	NaN	-5.815	2.370	21.130	1504.029	1500.366	1495.238	-2.626	0.122	-4.122	-0.459	-1.301	-9.416
188058.197	NaN	-6.011	2.348	20.924	1503.297	1500.366	1494.505	-2.580	0.076	-4.183	-0.230	-1.378	-9.416
188059.174	NaN	-5.815	2.413	21.000	1504.762	1501.099	1495.238	-2.733	0.031	-4.229	-0.689	-2.297	-9.416
188060.150	NaN	-6.217	2.359	20.891	1504.029	1501.099	1495.971	-2.794	0.137	-4.382	-0.612	-1.225	-9.416
188061.127	NaN	-5.772	2.326	21.196	1502.564	1501.099	1496.703	-2.855	-0.015	-4.351	-0.689	-1.148	-9.263
188062.103	NaN	-5.880	2.348	21.109	1503.297	1500.366	1494.505	-2.901	0.092	-4.290	-0.383	-1.148	-9.416
188063.080	NaN	-5.902	2.370	20.957	1504.762	1500.366	1494.505	-2.626	0.198	-4.137	-0.230	-0.995	-9.187
188064.056	NaN	-6.033	2.326	21.000	1504.762	1501.099	1495.971	-2.580	0.168	-4.473	-0.766	-1.301	-9.493
188065.033	NaN	-5.696	2.391	21.120	1502.564	1500.366	1495.971	-2.672	0.046	-4.244	-0.230	-1.301	-9.187
188066.010	NaN	-5.957	2.402	20.989	1501.099	1499.634	1494.505	-2.702	0.031	-4.168	-0.536	-1.301	-9.340
188066.986	NaN	-5.870	2.348	20.859	1504.029	1499.634	1496.703	-2.611	0.031	-4.137	-0.383	-1.148	-9.569
188067.963	NaN	-5.891	2.326	21.033	1504.029	1501.099	1495.238	-2.763	-0.031	-4.198	-0.766	-1.301	-9.569
188068.939	NaN	-5.946	2.370	21.033	1503.297	1500.366	1495.971	-2.687	-0.046	-4.137	-0.153	-1.148	-9.263
188069.916	NaN	-5.913	2.370	21.098	1503.297	1500.366	1495.238	-2.534	0.000	-4.260	-0.766	-1.301	-9.340
188070.892	NaN	-6.043	2.359	20.837	1503.297	1501.099	1493.773	-2.565	0.244	-4.305	-0.306	-1.301	-9.416
188071.869	NaN	-5.793	2.402	20.967	1503.297	1499.634	1495.238	-2.580	0.214	-4.321	-0.459	-1.301	-9.263
188072.845	NaN	-6.076	2.370	20.946	1502.564	1500.366	1494.505	-2.656	0.137	-4.137	-0.077	-1.072	-9.263
188073.822	NaN	-5.739	2.359	21.185	1504.762	1500.366	1495.971	-2.656	-0.015	-4.168	-0.459	-1.301	-9.493
188074.799	NaN	-5.924	2.391	21.033	1504.029	1500.366	1495.238	-2.580	-0.046	-4.229	-0.383	-1.301	-9.646
188075.775	NaN	-5.902	2.391	20.924	1503.297	1500.366	1496.703	-2.550	0.000	-4.122	-0.306	-1.072	-9.340
188076.752	NaN	-6.098	2.370	20.848	1504.029	1501.099	1495.971	-2.687	0.183	-4.260	-0.689	-1.378	-9.493
188077.728	NaN	-5.696	2.370	21.098	1503.297	1501.099	1495.238	-2.443	0.046	-4.336	0.000	-1.225	-9.110
188078.705	NaN	-5.967	2.370	21.011	1504.029	1501.099	1495.971	-2.412	0.015	-4.321	-0.536	-1.225	-9.340
188079.681	NaN	-5.978	2.359	20.913	1504.029	1500.366	1495.238	-2.382	-0.031	-4.412	0.000	-1.225	-9.416
188080.658	NaN	-5.935	2.348	21.043	1503.297	1500.366	1495.971	-2.656	0.198	-4.504	-0.689	-1.378	-9.416
188081.635	NaN	-5.826	2.391	21.109	1504.762	1500.366	1494.505	-2.794	0.168	-4.305	0.000	-1.301	-9.187
188082.611	NaN	-5.837	2.380	21.054	1504.762	1500.366	1496.703	-2.672	0.122	-4.397	-0.612	-1.072	-9.340
188083.588	NaN	-5.913	2.359	20.902	1504.762	1500.366	1495.971	-2.321	0.092	-4.168	-0.383	-1.225	-9.493
188084.564	NaN	-5.761	2.348	21.087	1503.297	1500.366	1497.436	-2.397	0.107	-4.076	-0.230	-1.225	-9.110
188085.541	NaN	-6.033	2.337	20.924	1504.762	1500.366	1495.971	-2.641	0.137	-4.260	-0.306	-1.225	-9.340
188086.517	NaN	-5.739	2.326	21.185	1503.297	1501.099	1495.238	-2.855	0.107	-4.366	-0.689	-1.148	-9.493
188087.494	NaN	-5.891	2.391	20.978	1504.029	1501.099	1495.238	-2.947	-0.046	-4.351	-0.459	-1.148	-9.569
188088.470	NaN	-5.793	2.424	20.913	1504.029	1500.366	1495.971	-2.748	0.000	-4.382	-0.383	-1.378	-9.187
188089.447	NaN	-6.076	2.359	20.924	1503.297	1501.099	1495.238	-2.397	0.076	-4.489	-0.689	-0.995	-9.340
188090.424	NaN	-5.696	2.359	21.152	1504.762	1501.099	1495.971	-2.427	0.168	-4.244	-0.306	-1.301	-9.416
