Timestamp	PC Timestamp	Low Noise Accelerometer X	Low Noise Accelerometer Y	Low Noise Accelerometer Z	Int A12	Int A13	Int A14	Gyroscope X	Gyroscope Y	Gyroscope Z	Wide Range Accelerometer X	Wide Range Accelerometer Y	Wide Range Accelerometer Z
186698.822	3731581548.172	-5.978	2.337	21.109	1504.029	1500.366	1495.971	-0.611	0.550	-1.237	-0.459	-1.225	-9.110
186699.799	NaN	-5.772	2.348	21.228	1504.029	1500.366	1495.971	-0.626	0.626	-1.023	-0.689	-1.378	-9.416
186700.775	NaN	-5.935	2.391	21.011	1503.297	1500.366	1495.971	-0.672	0.748	-1.053	-0.306	-1.378	-9.416
186701.752	NaN	-5.793	2.424	21.043	1504.029	1501.099	1497.436	-0.595	0.718	-1.115	-0.306	-1.072	-9.187
186702.728	NaN	-6.109	2.348	20.902	1503.297	1501.099	1497.436	-0.397	0.687	-1.267	-0.306	-1.148	-9.263
186703.705	NaN	-5.717	2.380	21.185	1503.297	1500.366	1496.703	-0.382	0.672	-1.176	-0.306	-1.225	-9.263
186704.681	NaN	-5.978	2.337	21.022	1503.297	1501.099	1495.238	-0.489	0.824	-1.221	-0.383	-1.148	-9.340
186705.658	NaN	-5.935	2.359	20.902	1503.297	1500.366	1495.238	-0.382	0.626	-1.176	-0.230	-1.301	-9.340
186706.635	NaN	-6.043	2.348	20.946	1504.762	1501.099	1496.703	-0.351	0.489	-1.145	-0.919	-1.225	-9.416
186707.611	NaN	-5.739	2.380	21.152	1504.029	1499.634	1496.703	-0.458	0.550	-1.099	-0.306	-1.225	-9.340
186708.588	NaN	-5.967	2.402	21.098	1504.029	1500.366	1495.971	-0.183	0.565	-1.084	-0.612	-1.148	-9.416
186709.564	NaN	-5.946	2.315	20.924	1503.297	1500.366	1495.971	-0.382	0.641	-1.237	-0.383	-1.072	-9.340
186710.541	NaN	-5.935	2.337	21.120	1504.762	1500.366	1495.238	-0.641	0.885	-1.313	-0.459	-1.378	-9.340
186711.517	NaN	-5.978	2.370	21.109	1504.762	1499.634	1498.168	-0.550	0.870	-1.252	-0.077	-1.225	-9.263
186712.494	NaN	-5.859	2.359	21.120	1504.029	1500.366	1494.505	-0.626	0.809	-0.992	-0.612	-1.378	-9.416
186713.470	NaN	-5.913	2.370	21.033	1504.762	1500.366	1495.971	-0.504	0.656	-1.008	-0.306	-1.301	-9.416
186714.447	NaN	-5.750	2.391	20.946	1502.564	1500.366	1495.238	-0.397	0.519	-1.038	-0.689	-1.531	-9.340
186715.424	NaN	-6.098	2.380	20.913	1504.029	1501.099	1496.703	-0.336	0.611	-1.191	-0.536	-1.148	-9.340
186716.400	NaN	-5.674	2.391	21.250	1503.297	1501.099	1495.238	-0.489	0.718	-1.038	-0.459	-1.378	-9.416
186717.377	NaN	-5.946	2.348	21.076	1503.297	1500.366	1495.971	-0.504	0.824	-1.099	-0.536	-1.148	-9.493
186718.353	NaN	-5.826	2.380	20.924	1504.029	1500.366	1495.238	-0.366	0.733	-1.313	-0.077	-1.148	-9.263
186719.330	NaN	-6.120	2.337	20.891	1504.029	1500.366	1494.505	-0.489	0.687	-1.450	-0.306	-0.306	-9.340
186720.306	NaN	-5.728	2.370	21.130	1504.029	1500.366	1495.238	-0.656	0.763	-1.206	-0.230	-1.378	-9.263
186721.283	NaN	-5.902	2.370	20.967	1504.762	1500.366	1495.971	-0.565	0.718	-0.977	-0.536	-1.225	-9.493
186722.260	NaN	-5.946	2.315	20.793	1504.029	1500.366	1497.436	-0.351	0.733	-0.962	-0.459	-1.301	-9.569
186723.236	NaN	-5.924	2.315	21.011	1503.297	1500.366	1495.971	-0.718	0.641	-1.237	-0.842	-1.148	-9.416
186724.213	NaN	-5.837	2.380	21.120	1503.297	1500.366	1495.238	-0.733	0.458	-1.252	-0.153	-1.225	-9.187
186725.189	NaN	-5.891	2.337	21.109	1504.029	1501.099	1495.238	-0.504	0.641	-1.328	-0.612	-1.148	-9.416
186726.166	NaN	-5.902	2.370	20.924	1503.297	1500.366	1495.971	-0.336	0.824	-1.237	-0.383	-0.077	-9.340
186727.142	NaN	-5.772	2.402	21.065	1504.029	1500.366	1495.238	-0.153	0.641	-1.206	-0.383	-1.301	-9.187
186728.119	NaN	-6.000	2.359	20.935	1504.762	1499.634	1495.971	-0.351	0.473	-1.389	-0.153	-1.301	-9.187
186729.095	NaN	-5.717	2.359	21.272	1503.297	1501.099	1495.971	-0.550	0.489	-1.344	-0.383	-1.225	-9.187
186730.072	NaN	-5.935	2.359	21.098	1503.297	1500.366	1495.971	-0.595	0.611	-1.420	-0.459	-1.225	-9.493
186731.049	NaN	-5.826	2.402	21.011	1504.029	1500.366	1495.238	-0.504	0.702	-1.435	-0.306	-1.225	-9.340
186732.025	NaN	-6.120	2.326	20.880	1502.564	1500.366	1495.971	-0.397	0.672	-1.237	-0.689	-1.225	-9.340
186733.002	NaN	-5.750	2.348	21.141	1502.564	1499.634	1495.971	-0.427	0.534	-1.130	-0.383	-1.225	-9.187
186733.978	NaN	-5.989	2.348	20.935	1505.495	1500.366	1494.505	-0.427	0.626	-1.328	-0.459	-1.148	-9.493
186734.955	NaN	-5.924	2.337	20.804	1504.029	1501.099	1495.238	-0.412	0.595	-1.435	-0.383	-0.995	-9.340
186735.931	NaN	-5.935	2.337	20.935	1503.297	1501.099	1495.238	-0.595	0.595	-1.405	-0.766	-1.455	-9.493
186736.908	NaN	-5.783	2.380	21.065	1504.029	1500.366	1495.971	-0.687	0.504	-1.145	-0.153	-1.148	-9.263
186737.885	NaN	-5.946	2.337	20.989	1504.029	1501.099	1497.436	-0.763	0.580	-1.145	-0.689	-1.225	-9.263
186738.861	NaN	-5.913	2.370	20.826	1505.495	1499.634	1496.703	-0.443	0.656	-1.328	-0.383	-1.378	-9.646
186739.838	NaN	-5.848	2.380	21.000	1504.029	1500.366	1496.703	-0.565	0.687	-1.237	-0.766	-1.378	-9.493
186740.814	NaN	-5.989	2.359	20.924	1504.029	1500.366	1496.703	-0.824	0.626	-1.176	-0.306	-1.072	-9.187
186741.791	NaN	-5.772	2.359	21.196	1502.564	1500.366	1495.238	-0.733	0.641	-1.145	-0.612	-1.225	-9.493
186742.767	NaN	-5.891	2.348	21.011	1503.297	1501.099	1495.971	-0.504	0.611	-1.313	-0.536	-1.225	-9.493
186743.744	NaN	-5.728	2.413	21.033	1504.029	1501.099	1494.505	-0.580	0.473	-1.267	-0.383	-1.301	-9.263
186744.720	NaN	-6.087	2.348	20.946	1503.297	1501.099	1495.971	-0.550	0.489	-1.267	-0.842	-1.148	-9.493
186745.697	NaN	-5.717	2.402	21.152	1503.297	1499.634	1496.703	-0.504	0.626	-1.221	-0.306	-1.301	-9.340
186746.674	NaN	-5.946	2.370	21.011	1504.029	1501.099	1495.971	-0.550	0.611	-1.221	-0.306	-1.225	-9.493
186747.650	NaN	-5.957	2.315	20.913	1504.762	1500.366	1497.436	-0.504	0.733	-1.206	-0.383	-1.225	-9.493
186748.627	NaN	-6.011	2.304	20.989	1504.762	1500.366	1495.238	-0.641	0.794	-1.191	-0.689	-1.225	-9.646
186749.603	NaN	-5.793	2.380	21.022	1504.029	1499.634	1497.436	-0.702	0.687	-1.237	-0.153	-1.301	-9.340
186750.580	NaN	-5.902	2.348	20.859	1502.564	1500.366	1495.971	-0.641	0.504	-1.344	-0.536	-1.225	-9.416
186751.556	NaN	-5.902	2.348	20.848	1504.762	1501.099	1495.238	-0.489	0.565	-1.603	-0.459	-1.301	-9.493
186752.533	NaN	-5.837	2.315	21.022	1503.297	1499.634	1496.703	-0.489	0.504	-1.618	-0.689	-1.455	-9.416
186753.510	NaN	-5.913	2.380	20.989	1504.762	1500.366	1495.971	-0.656	0.626	-1.282	-0.153	-1.148	-9.033
186754.486	NaN	-5.696	2.380	21.196	1504.029	1501.099	1495.238	-0.779	0.626	-1.160	-0.536	-1.301	-9.416
186755.463	NaN	-5.902	2.370	20.989	1503.297	1500.366	1495.238	-0.580	0.519	-1.176	-0.306	-1.378	-9.569
186756.439	NaN	-5.728	2.435	21.033	1503.297	1499.634	1495.238	-0.519	0.473	-1.374	-0.153	-1.148	-9.340
186757.416	NaN	-6.098	2.359	20.902	1504.029	1500.366	1494.505	-0.473	0.534	-1.527	-0.383	-1.148	-9.416
186758.392	NaN	-5.707	2.402	21.207	1503.297	1499.634	1495.971	-0.504	0.565	-1.466	-0.077	-1.301	-8.957
186759.369	NaN	-5.946	2.326	21.011	1503.297	1501.099	1495.238	-0.504	0.489	-1.328	-0.536	-1.301	-9.493
186760.345	NaN	-5.859	2.359	20.935	1503.297	1500.366	1495.971	-0.626	0.382	-1.237	-0.230	-1.148	-9.110
186761.322	NaN	-5.989	2.293	21.011	1504.029	1501.099	1494.505	-0.687	0.443	-1.282	-0.842	-1.301	-9.569
186762.299	NaN	-5.750	2.380	21.087	1502.564	1499.634	1495.971	-0.763	0.626	-1.298	-0.306	-1.301	-9.340
186763.275	NaN	-5.957	2.380	20.870	1503.297	1501.099	1495.971	-0.626	0.779	-1.496	-0.689	-1.225	-9.493
186764.252	NaN	-5.924	2.326	20.837	1503.297	1499.634	1496.703	-0.351	0.595	-1.420	-0.459	-1.301	-9.416
186765.228	NaN	-5.870	2.337	21.065	1503.297	1501.099	1495.238	-0.443	0.427	-1.191	-0.383	-1.378	-9.187
186766.205	NaN	-5.935	2.370	20.978	1503.297	1500.366	1495.971	-0.672	0.229	-1.221	-0.077	-1.378	-9.340
186767.181	NaN	-5.815	2.370	21.087	1502.564	1501.099	1495.238	-0.855	0.321	-1.389	-0.689	-1.378	-9.493
186768.158	NaN	-5.967	2.380	20.935	1504.029	1500.366	1496.703	-0.931	0.580	-1.328	-0.459	-1.301	-9.569
186769.135	NaN	-5.848	2.424	21.011	1503.297	1499.634	1495.238	-0.916	0.534	-1.206	-0.612	-1.455	-9.416
186770.111	NaN	-6.076	2.359	20.957	1504.029	1500.366	1495.971	-0.824	0.443	-1.298	-0.612	-1.225	-9.416
186771.088	NaN	-5.772	2.348	21.217	1503.297	1501.099	1495.238	-0.641	0.290	-1.344	-0.612	-1.225	-9.340
186772.064	NaN	-5.946	2.293	21.065	1504.762	1500.366	1495.238	-0.534	0.489	-1.359	-0.536	-1.301	-9.416
186773.041	NaN	-5.837	2.359	20.967	1504.029	1501.099	1495.971	-0.489	0.595	-1.313	-0.306	-1.148	-9.340
186774.017	NaN	-6.076	2.326	20.924	1504.029	1501.832	1496.703	-0.580	0.519	-1.405	-0.383	-1.148	-9.416
186774.994	NaN	-5.717	2.348	21.152	1504.029	1501.099	1495.971	-0.992	0.580	-1.344	-0.077	-1.301	-9.187
186775.970	NaN	-5.946	2.391	20.935	1504.029	1501.099	1495.971	-0.947	0.565	-1.313	-0.459	-1.225	-9.416
186776.947	NaN	-5.967	2.304	20.870	1503.297	1500.366	1495.238	-0.595	0.489	-1.252	-0.459	-1.301	-9.646
186777.924	NaN	-5.978	2.326	21.033	1504.029	1500.366	1495.238	-0.534	0.305	-1.206	-0.842	-1.225	-9.493
186778.900	NaN	-5.870	2.315	21.011	1503.297	1501.099	1497.436	-0.519	0.260	-1.359	-0.306	-1.225	-9.263
186779.877	NaN	-5.902	2.326	21.022	1503.297	1500.366	1496.703	-0.595	0.382	-1.282	-0.612	-1.225	-9.569
186780.853	NaN	-5.913	2.359	20.913	1504.762	1501.832	1495.238	-0.672	0.443	-1.160	-0.459	-1.301	-9.493
186781.830	NaN	-5.793	2.402	21.033	1505.495	1500.366	1495.238	-0.702	0.351	-1.282	-0.383	-1.225	-9.263
186782.806	NaN	-6.109	2.348	20.989	1504.029	1501.099	1495.971	-0.687	0.275	-1.328	0.000	-1.378	-9.187
186783.783	NaN	-5.815	2.359	21.207	1504.029	1501.099	1495.238	-0.550	0.412	-1.115	-0.383	-1.225	-9.187
186784.760	NaN	-5.989	2.370	21.022	1503.297	1499.634	1496.703	-0.672	0.565	-1.237	-0.383	-1.225	-9.493
186785.736	NaN	-5.880	2.391	21.000	1503.297	1500.366	1495.238	-0.824	0.534	-1.252	-0.383	-1.225	-9.263
186786.713	NaN	-6.120	2.326	20.946	1504.029	1501.099	1495.971	-0.947	0.290	-1.328	-0.689	-1.225	-9.340
186787.689	NaN	-5.685	2.359	21.141	1504.762	1500.366	1495.238	-0.931	0.397	-1.237	-0.459	-1.455	-9.340
186788.666	NaN	-5.967	2.380	21.022	1503.297	1500.366	1495.238	-0.870	0.519	-1.267	-0.612	-1.148	-9.416
186789.642	NaN	-5.935	2.337	20.946	1503.297	1499.634	1496.703	-0.702	0.534	-1.176	-0.230	-1.148	-9.263
186790.619	NaN	-6.000	2.315	21.054	1504.762	1501.099	1495.238	-0.916	0.489	-1.221	-0.689	-1.455	-9.493
186791.595	NaN	-5.783	2.391	21.109	1504.762	1500.366	1496.703	-0.947	0.626	-1.435	-0.077	-1.225	-9.263
186792.572	NaN	-5.978	2.348	21.022	1503.297	1501.099	1495.971	-0.565	0.672	-1.649	-0.766	-1.301	-9.416
186793.549	NaN	-5.935	2.370	20.880	1504.029	1499.634	1497.436	-0.504	0.611	-1.450	-0.459	-1.225	-9.493
186794.525	NaN	-5.826	2.348	21.076	1504.029	1501.099	1496.703	-0.779	0.351	-1.267	-0.766	-1.225	-9.263
186795.502	NaN	-6.011	2.380	21.000	1504.029	1501.099	1495.971	-0.962	0.244	-1.282	-0.306	-1.225	-9.340
186796.478	NaN	-5.772	2.348	21.283	1503.297	1501.099	1495.971	-0.870	0.580	-1.420	-0.689	-1.148	-9.340
186797.455	NaN	-5.946	2.370	21.054	1504.029	1501.099	1495.238	-0.733	0.733	-1.389	-0.459	-1.225	-9.416
186798.431	NaN	-5.837	2.435	20.924	1504.029	1499.634	1495.971	-0.763	0.641	-1.389	-0.230	-1.148	-9.263
186799.408	NaN	-6.120	2.348	20.783	1503.297	1501.099	1494.505	-1.176	0.397	-1.481	-0.919	-1.148	-9.263
186800.385	NaN	-5.739	2.370	21.163	1504.029	1501.099	1496.703	-1.115	0.427	-1.450	-0.230	-1.225	-9.263
186801.361	NaN	-6.033	2.359	21.098	1504.029	1501.099	1495.238	-0.626	0.504	-1.313	-0.383	-1.225	-9.493
186802.338	NaN	-5.891	2.326	20.902	1503.297	1500.366	1495.971	-0.687	0.412	-1.221	-0.383	-1.225	-9.416
186803.314	NaN	-6.033	2.293	21.043	1504.029	1501.099	1496.703	-0.824	0.519	-1.359	-0.612	-1.072	-9.493
186804.291	NaN	-5.772	2.380	21.196	1504.762	1500.366	1495.971	-0.931	0.458	-1.420	-0.077	-1.225	-9.187
186805.267	NaN	-5.989	2.380	21.054	1504.029	1501.099	1496.703	-0.748	0.397	-1.435	-0.689	-1.148	-9.263
186806.244	NaN	-5.978	2.391	20.859	1504.029	1500.366	1495.971	-0.718	0.427	-1.405	-0.459	-1.301	-9.416
186807.220	NaN	-5.902	2.348	21.054	1504.762	1500.366	1496.703	-0.733	0.458	-1.435	-0.766	-1.455	-9.340
186808.197	NaN	-5.913	2.370	20.989	1504.029	1501.099	1495.971	-0.947	0.382	-1.298	0.000	-1.072	-9.187
186809.174	NaN	-5.826	2.359	21.163	1502.564	1500.366	1493.773	-0.977	0.275	-1.160	-0.766	-1.378	-9.340
186810.150	NaN	-5.957	2.380	21.033	1503.297	1500.366	1493.773	-0.840	0.366	-1.389	-0.459	-1.378	-9.493
186811.127	NaN	-5.739	2.413	21.033	1504.029	1501.099	1496.703	-0.901	0.412	-1.481	-0.306	-0.995	-9.187
186812.103	NaN	-6.076	2.359	20.946	1504.029	1500.366	1495.238	-0.824	0.489	-1.511	-0.230	-1.225	-9.263
186813.080	NaN	-5.728	2.359	21.228	1504.029	1500.366	1494.505	-0.672	0.351	-1.344	-0.077	-1.072	-9.493
186814.056	NaN	-5.935	2.370	21.033	1503.297	1501.832	1496.703	-0.718	0.351	-1.282	-0.306	-1.225	-9.493
186815.033	NaN	-5.870	2.380	20.913	1504.029	1499.634	1496.703	-0.809	0.351	-1.206	-0.230	-1.225	-9.187
186816.010	NaN	-6.033	2.315	20.902	1502.564	1501.099	1495.238	-0.855	0.382	-1.298	-0.766	-1.378	-9.493
186816.986	NaN	-5.750	2.348	21.043	1504.029	1499.634	1495.238	-1.023	0.382	-1.389	-0.230	-1.225	-9.263
186817.963	NaN	-5.967	2.391	20.989	1504.029	1500.366	1495.971	-0.947	0.382	-1.527	-0.689	-1.301	-9.493
186818.939	NaN	-5.967	2.326	20.946	1504.029	1500.366	1495.971	-0.504	0.458	-1.511	-0.383	-1.225	-9.340
186819.916	NaN	-5.902	2.304	21.043	1504.762	1501.099	1495.971	-0.580	0.397	-1.542	-0.306	-1.455	-9.340
186820.892	NaN	-5.924	2.391	21.065	1503.297	1500.366	1496.703	-0.779	0.183	-1.496	-0.153	-1.225	-9.263
186821.869	NaN	-5.837	2.348	21.141	1504.029	1501.099	1496.703	-0.687	0.153	-1.481	-0.766	-1.301	-9.493
186822.845	NaN	-5.913	2.359	20.989	1504.029	1501.832	1495.238	-0.565	0.366	-1.496	-0.459	-1.378	-9.493
186823.822	NaN	-5.761	2.413	21.022	1503.297	1500.366	1495.238	-0.718	0.458	-1.328	-0.536	-1.378	-9.263
186824.799	NaN	-6.076	2.391	20.902	1503.297	1500.366	1494.505	-0.931	0.427	-1.099	-0.766	-1.225	-9.340
186825.775	NaN	-5.696	2.380	21.163	1504.029	1500.366	1494.505	-0.962	0.519	-1.176	-0.612	-1.378	-9.416
186826.752	NaN	-5.880	2.380	20.989	1504.029	1501.832	1495.971	-0.947	0.504	-1.557	-0.383	-1.225	-9.493
186827.728	NaN	-5.761	2.413	21.011	1503.297	1500.366	1495.238	-0.779	0.275	-1.603	-0.077	-1.148	-9.263
186828.705	NaN	-6.033	2.326	20.946	1504.029	1500.366	1494.505	-0.885	0.336	-1.634	-0.459	-1.301	-9.340
186829.681	NaN	-5.739	2.391	21.141	1502.564	1498.901	1494.505	-0.962	0.519	-1.359	0.000	-1.225	-9.033
186830.658	NaN	-5.967	2.391	21.011	1504.029	1500.366	1495.238	-1.053	0.519	-1.374	-0.383	-1.225	-9.340
186831.635	NaN	-5.978	2.326	20.935	1504.029	1498.901	1495.971	-0.901	0.305	-1.374	-0.383	-1.301	-9.493
186832.611	NaN	-5.913	2.337	20.989	1504.762	1501.099	1498.168	-0.824	0.321	-1.420	-0.842	-1.378	-9.493
186833.588	NaN	-5.815	2.370	21.087	1504.029	1500.366	1495.238	-0.901	0.351	-1.634	-0.230	-1.225	-9.110
186834.564	NaN	-5.880	2.315	20.989	1504.029	1498.901	1495.238	-0.916	0.244	-1.725	-0.612	-1.148	-9.416
186835.541	NaN	-5.946	2.359	20.924	1504.029	1500.366	1494.505	-0.702	0.153	-1.649	-0.383	-1.148	-9.493
186836.517	NaN	-5.793	2.402	20.978	1503.297	1498.901	1495.971	-0.672	0.183	-1.328	-0.383	-1.225	-9.416
186837.494	NaN	-6.011	2.370	20.902	1503.297	1499.634	1496.703	-0.779	0.336	-1.191	-0.077	-1.225	-9.263
186838.470	NaN	-5.739	2.348	21.163	1504.029	1501.099	1497.436	-0.809	0.336	-1.328	-0.306	-1.378	-9.187
186839.447	NaN	-5.946	2.348	21.011	1503.297	1500.366	1495.971	-0.855	0.351	-1.466	-0.383	-1.301	-9.493
186840.424	NaN	-5.793	2.413	21.011	1502.564	1499.634	1495.238	-0.870	0.229	-1.573	-0.689	-1.225	-9.416
186841.400	NaN	-6.130	2.326	20.859	1503.297	1500.366	1495.971	-0.992	0.214	-1.511	-0.766	-1.148	-9.493
186842.377	NaN	-5.641	2.370	21.120	1504.762	1500.366	1495.971	-0.901	0.382	-1.344	-0.459	-1.455	-9.263
186843.353	NaN	-5.913	2.370	21.022	1503.297	1500.366	1495.238	-0.870	0.550	-1.481	-0.612	-1.225	-9.263
186844.330	NaN	-5.924	2.348	20.902	1504.029	1501.099	1495.971	-0.794	0.519	-1.557	-0.383	-0.919	-9.340
186845.306	NaN	-6.011	2.326	20.957	1504.762	1501.099	1495.238	-0.763	0.489	-1.542	-0.536	-1.378	-9.493
186846.283	NaN	-5.761	2.337	21.054	1505.495	1500.366	1495.971	-0.794	0.214	-1.389	0.077	-1.301	-9.187
186847.260	NaN	-5.913	2.370	21.000	1503.297	1501.099	1495.238	-0.718	0.275	-1.328	-0.459	-1.225	-9.416
186848.236	NaN	-5.935	2.326	20.859	1504.762	1499.634	1495.971	-0.855	0.351	-1.313	-0.536	-1.455	-9.416
186849.213	NaN	-5.739	2.380	21.033	1504.029	1500.366	1497.436	-0.840	0.458	-1.466	-0.995	-1.531	-9.646
186850.189	NaN	-5.989	2.370	20.989	1504.029	1499.634	1496.703	-0.748	0.397	-1.450	-0.383	-1.301	-9.416
186851.166	NaN	-5.761	2.370	21.239	1503.297	1500.366	1495.971	-0.824	0.321	-1.344	-0.766	-1.225	-9.493
186852.142	NaN	-5.935	2.402	21.109	1503.297	1500.366	1495.971	-0.870	0.336	-1.405	-0.306	-1.225	-9.493
186853.119	NaN	-5.870	2.446	21.065	1504.762	1500.366	1495.238	-0.885	0.366	-1.267	-0.383	-1.301	-9.340
186854.095	NaN	-6.152	2.359	20.837	1504.029	1501.099	1495.238	-1.008	0.198	-1.542	-0.077	-1.225	-9.263
186855.072	NaN	-5.707	2.359	21.120	1503.297	1500.366	1495.971	-0.840	0.061	-1.649	-0.306	-1.148	-9.263
186856.049	NaN	-6.011	2.337	20.946	1503.297	1501.099	1495.971	-0.748	0.168	-1.649	-0.383	-1.301	-9.416
186857.025	NaN	-5.880	2.348	20.935	1504.029	1500.366	1495.971	-0.870	0.183	-1.679	-0.383	-1.072	-9.493
186858.002	NaN	-6.054	2.337	20.913	1504.029	1501.832	1495.971	-0.855	0.244	-1.588	-0.766	-1.072	-9.493
186858.978	NaN	-5.739	2.391	21.098	1503.297	1500.366	1495.238	-0.870	0.321	-1.450	0.000	-1.225	-9.187
186859.955	NaN	-5.967	2.370	20.913	1504.762	1500.366	1495.971	-0.901	0.382	-1.511	-0.536	-1.301	-9.493
186860.931	NaN	-5.946	2.337	20.826	1504.029	1501.099	1495.238	-0.855	0.412	-1.542	-0.383	-1.148	-9.187
186861.908	NaN	-5.870	2.359	21.000	1503.297	1500.366	1495.971	-0.992	0.336	-1.450	-0.689	-1.301	-9.416
186862.885	NaN	-5.978	2.359	20.957	1504.762	1500.366	1495.971	-1.069	0.214	-1.481	0.000	-1.225	-9.263
186863.861	NaN	-5.783	2.348	21.043	1503.297	1501.099	1495.971	-1.206	0.275	-1.664	-0.612	-1.378	-9.263
186864.838	NaN	-5.902	2.370	20.891	1504.029	1499.634	1496.703	-0.916	0.366	-1.710	-0.383	-1.301	-9.416
186865.814	NaN	-5.761	2.413	20.989	1504.029	1500.366	1494.505	-0.718	0.244	-1.481	-0.153	-0.919	-9.263
186866.791	NaN	-6.076	2.380	20.880	1504.029	1499.634	1496.703	-0.809	0.336	-1.328	-0.383	-1.072	-9.416
186867.767	NaN	-5.761	2.370	21.152	1504.762	1500.366	1496.703	-0.962	0.229	-1.191	-0.689	-1.148	-9.263
186868.744	NaN	-5.978	2.348	21.043	1504.029	1499.634	1496.703	-0.885	0.153	-1.618	-0.536	-1.378	-9.340
186869.720	NaN	-5.902	2.370	20.967	1504.029	1500.366	1495.238	-0.916	0.275	-1.557	-0.230	-1.148	-9.187
186870.697	NaN	-6.076	2.348	20.880	1503.297	1501.832	1495.238	-1.084	0.412	-1.420	-0.919	-1.378	-9.569
186871.674	NaN	-5.761	2.391	21.065	1504.762	1501.099	1495.238	-1.023	0.382	-1.298	-0.383	-1.531	-9.263
186872.650	NaN	-6.000	2.391	20.978	1504.762	1501.099	1495.971	-0.855	0.366	-1.573	-0.766	-1.225	-9.493
186873.627	NaN	-5.957	2.315	20.946	1503.297	1501.099	1495.971	-0.779	0.183	-1.603	-0.383	-1.225	-9.416
186874.603	NaN	-5.935	2.348	21.000	1504.029	1500.366	1495.971	-0.977	0.214	-1.634	-0.766	-1.072	-9.416
186875.580	NaN	-5.848	2.370	21.054	1502.564	1500.366	1495.971	-0.947	0.305	-1.389	0.000	-1.301	-9.263
186876.556	NaN	-5.880	2.315	21.054	1504.029	1501.099	1495.971	-0.809	0.351	-1.344	-0.612	-1.225	-9.493
186877.533	NaN	-5.967	2.370	20.924	1503.297	1501.099	1495.971	-0.687	0.229	-1.527	-0.383	-1.225	-9.493
186878.510	NaN	-5.772	2.391	21.000	1503.297	1499.634	1495.971	-0.748	0.229	-1.679	-0.612	-1.378	-9.340
186879.486	NaN	-6.098	2.370	20.924	1504.029	1500.366	1494.505	-0.870	0.305	-1.634	-0.536	-1.148	-9.340
186880.463	NaN	-5.826	2.359	21.250	1503.297	1500.366	1495.238	-0.870	0.275	-1.450	-0.536	-1.225	-9.340
186881.439	NaN	-6.043	2.359	21.087	1504.029	1499.634	1495.238	-0.840	0.321	-1.435	-0.459	-1.301	-9.646
186882.416	NaN	-5.891	2.380	21.000	1503.297	1500.366	1494.505	-0.763	0.321	-1.634	-0.230	-1.072	-9.340
186883.392	NaN	-6.065	2.315	21.000	1501.832	1500.366	1495.238	-1.053	0.336	-1.832	-0.459	-1.148	-9.416
186884.369	NaN	-5.750	2.359	21.207	1503.297	1500.366	1496.703	-0.885	0.137	-1.588	-0.153	-1.225	-9.187
186885.345	NaN	-5.967	2.337	20.967	1504.029	1501.099	1495.971	-0.840	0.122	-1.664	-0.383	-1.148	-9.416
186886.322	NaN	-5.946	2.326	20.891	1504.029	1500.366	1495.971	-0.901	0.305	-1.573	-0.459	-1.301	-9.569
186887.299	NaN	-5.978	2.304	21.011	1503.297	1500.366	1496.703	-1.237	0.626	-1.771	-0.919	-1.301	-9.493
186888.275	NaN	-5.793	2.391	21.087	1503.297	1500.366	1495.238	-1.313	0.473	-1.725	-0.306	-1.225	-9.187
186889.252	NaN	-5.967	2.348	21.033	1503.297	1500.366	1495.238	-0.824	0.260	-1.649	-0.536	-1.148	-9.416
186890.228	NaN	-5.946	2.370	20.913	1504.762	1500.366	1495.238	-0.687	0.214	-1.618	-0.306	-1.225	-9.493
186891.205	NaN	-5.848	2.348	21.065	1502.564	1500.366	1496.703	-0.931	0.198	-1.618	-0.383	-1.301	-9.187
186892.181	NaN	-6.033	2.359	20.957	1504.029	1499.634	1495.238	-1.130	0.290	-1.557	0.000	-1.301	-9.110
186893.158	NaN	-5.793	2.348	21.207	1504.029	1500.366	1495.971	-1.221	0.336	-1.496	-0.306	-1.225	-9.340
186894.135	NaN	-5.957	2.380	21.141	1504.029	1500.366	1495.971	-0.947	0.336	-1.573	-0.306	-1.225	-9.569
186895.111	NaN	-5.728	2.446	21.033	1504.029	1501.099	1495.971	-0.931	0.260	-1.527	-0.459	-1.378	-9.263
186896.088	NaN	-6.054	2.359	20.913	1503.297	1501.099	1496.703	-1.099	0.183	-1.618	-0.689	-1.225	-9.340
186897.064	NaN	-5.685	2.380	21.098	1504.029	1500.366	1497.436	-0.992	0.183	-1.573	-0.383	-1.301	-9.340
186898.041	NaN	-5.989	2.348	20.967	1504.762	1501.099	1495.971	-0.809	0.244	-1.588	-0.612	-1.148	-9.416
186899.017	NaN	-5.924	2.315	20.891	1504.029	1501.099	1496.703	-0.977	0.504	-1.710	-0.230	-1.148	-9.263
186899.994	NaN	-6.011	2.293	20.978	1503.297	1501.099	1495.971	-0.977	0.458	-1.634	-0.766	-1.455	-9.416
186911.713	NaN	-5.946	2.370	20.880	1504.762	1500.366	1495.971	-1.099	0.305	-1.374	-0.383	-1.225	-9.416
186912.689	NaN	-6.065	2.337	20.989	1504.029	1501.099	1496.703	-1.084	0.260	-1.588	-0.766	-1.225	-9.569
186913.666	NaN	-5.783	2.380	21.120	1504.029	1500.366	1496.703	-0.977	0.275	-1.557	-0.153	-1.301	-9.187
186914.642	NaN	-5.978	2.370	20.880	1502.564	1500.366	1494.505	-0.901	0.427	-1.679	-0.689	-1.378	-9.493
186915.619	NaN	-5.880	2.337	20.793	1504.762	1499.634	1495.971	-0.733	0.565	-1.618	-0.306	-0.995	-9.263
186916.595	NaN	-5.815	2.337	21.054	1504.762	1501.099	1497.436	-0.885	0.489	-1.664	-0.612	-1.455	-9.263
186917.572	NaN	-5.913	2.359	21.076	1504.029	1501.099	1496.703	-1.145	0.183	-1.756	0.000	-1.072	-9.187
186918.549	NaN	-5.793	2.326	21.174	1504.029	1500.366	1495.971	-1.267	0.122	-1.679	-0.383	-1.301	-9.340
186919.525	NaN	-5.957	2.391	21.000	1504.029	1501.099	1494.505	-0.901	0.244	-1.511	-0.383	-1.378	-9.493
186920.502	NaN	-5.815	2.435	21.022	1504.762	1500.366	1495.971	-0.718	0.229	-1.679	-0.230	-1.072	-9.187
186921.478	NaN	-6.076	2.380	20.848	1504.762	1500.366	1495.971	-0.916	0.336	-1.847	-0.459	-1.225	-9.263
186922.455	NaN	-5.750	2.391	21.163	1503.297	1500.366	1495.238	-0.855	0.443	-1.695	-0.689	-1.301	-9.416
186923.431	NaN	-5.989	2.370	20.989	1504.029	1500.366	1495.238	-0.779	0.427	-1.649	-0.536	-1.225	-9.416
186924.408	NaN	-5.870	2.391	20.891	1503.297	1500.366	1495.238	-0.977	0.244	-1.496	-0.306	-1.225	-9.263
186925.385	NaN	-6.043	2.348	20.924	1504.762	1501.832	1496.703	-1.176	0.275	-1.450	-0.842	-1.225	-9.569
186926.361	NaN	-5.739	2.380	21.065	1504.762	1499.634	1497.436	-0.901	0.412	-1.542	-0.306	-1.148	-9.187
186927.338	NaN	-5.989	2.424	20.924	1503.297	1501.099	1495.238	-0.870	0.321	-1.832	-0.689	-1.148	-9.493
186928.314	NaN	-5.924	2.326	20.880	1504.029	1500.366	1495.971	-0.870	0.336	-1.756	-0.459	-1.225	-9.416
186929.291	NaN	-5.924	2.337	21.022	1504.762	1501.099	1495.971	-0.977	0.519	-1.725	-0.766	-1.225	-9.340
186930.267	NaN	-5.880	2.370	21.054	1504.029	1499.634	1497.436	-0.855	0.427	-1.649	-0.077	-1.148	-9.110
186931.244	NaN	-5.804	2.359	21.043	1504.762	1501.099	1495.971	-1.069	0.351	-1.695	-0.689	-1.225	-9.340
186932.220	NaN	-5.957	2.391	20.946	1504.762	1500.366	1494.505	-1.160	0.427	-1.710	-0.536	-1.148	-9.416
186933.197	NaN	-5.772	2.413	21.120	1503.297	1500.366	1494.505	-1.450	0.580	-1.802	-0.536	-1.455	-9.340
186934.174	NaN	-6.054	2.413	20.978	1503.297	1501.099	1494.505	-1.328	0.458	-1.771	-0.689	-1.148	-9.187
186935.150	NaN	-5.739	2.359	21.250	1504.029	1501.099	1496.703	-0.901	0.351	-1.405	-0.306	-1.225	-9.263
186936.127	NaN	-5.913	2.370	21.054	1503.297	1500.366	1495.238	-0.901	0.351	-1.618	-0.306	-1.455	-9.646
186937.103	3731581548.448	-5.783	2.413	21.011	1504.029	1500.366	1495.238	-1.038	0.351	-1.756	-0.306	-0.995	-9.263
