Timestamp	PC Timestamp	Low Noise Accelerometer X	Low Noise Accelerometer Y	Low Noise Accelerometer Z	Int A12	Int A13	Int A14	Gyroscope X	Gyroscope Y	Gyroscope Z	Wide Range Accelerometer X	Wide Range Accelerometer Y	Wide Range Accelerometer Z
25082.916	NaN	2.707	7.478	-4.793	1510.623	1499.634	1501.099	-2.351	-1.618	-0.611	0.612	6.048	-7.196
25083.893	NaN	2.707	7.489	-4.793	1509.158	1499.634	1500.366	-2.214	-1.679	-0.580	0.689	6.048	-7.043
25084.869	NaN	2.707	7.489	-4.804	1511.355	1499.634	1501.099	-2.092	-1.374	-0.687	0.612	6.124	-7.120
25085.846	NaN	2.707	7.489	-4.804	1510.623	1500.366	1500.366	-1.939	-1.145	-0.550	0.536	5.971	-7.273
25086.823	NaN	2.707	7.489	-4.804	1510.623	1499.634	1501.832	-2.168	-1.267	-0.382	0.536	6.201	-7.196
25087.799	NaN	2.707	7.478	-4.804	1509.890	1499.634	1500.366	-2.336	-1.328	-0.198	0.612	6.124	-7.273
25088.776	NaN	2.696	7.467	-4.815	1509.890	1499.634	1501.832	-2.244	-1.374	-0.092	0.612	6.048	-7.120
25089.752	NaN	2.696	7.478	-4.815	1511.355	1500.366	1501.099	-2.122	-1.359	-0.321	0.689	7.273	-7.196
25090.729	NaN	2.685	7.467	-4.815	1510.623	1499.634	1501.832	-2.351	-1.252	-0.489	0.536	6.124	-6.967
25091.705	NaN	2.696	7.489	-4.804	1510.623	1500.366	1501.099	-2.504	-1.298	-0.565	0.612	6.124	-7.043
25092.682	NaN	2.685	7.478	-4.804	1510.623	1499.634	1501.832	-2.229	-1.282	-0.565	0.689	6.201	-7.120
25093.658	NaN	2.696	7.489	-4.815	1510.623	1500.366	1501.099	-1.908	-1.450	-0.489	0.536	6.201	-7.196
25094.635	NaN	2.707	7.478	-4.804	1511.355	1499.634	1501.099	-1.954	-1.313	-0.565	0.689	6.048	-7.043
25095.612	NaN	2.707	7.489	-4.804	1510.623	1499.634	1500.366	-2.290	-1.115	-0.595	0.689	6.048	-7.120
25096.588	NaN	2.717	7.478	-4.804	1510.623	1500.366	1499.634	-2.336	-1.252	-0.534	0.612	6.124	-7.120
25097.565	NaN	2.707	7.467	-4.804	1510.623	1499.634	1499.634	-2.427	-1.420	-0.489	0.536	6.124	-7.043
25098.541	NaN	2.707	7.467	-4.804	1510.623	1500.366	1501.099	-2.382	-1.267	-0.351	0.612	6.124	-7.196
25099.518	NaN	2.707	7.478	-4.804	1510.623	1499.634	1500.366	-2.198	-1.176	-0.214	0.536	6.201	-7.043
25100.494	NaN	2.717	7.489	-4.804	1510.623	1499.634	1500.366	-2.122	-1.023	-0.260	0.536	6.124	-7.120
25101.471	NaN	2.717	7.500	-4.793	1510.623	1499.634	1499.634	-2.168	-1.130	-0.366	0.689	6.048	-7.120
25102.448	NaN	2.717	7.478	-4.815	1511.355	1499.634	1500.366	-2.137	-1.160	-0.244	0.536	6.201	-7.349
25103.424	NaN	2.707	7.489	-4.815	1511.355	1499.634	1501.832	-1.985	-1.206	-0.290	0.612	6.124	-7.196
25104.401	NaN	2.696	7.478	-4.826	1510.623	1498.901	1500.366	-2.183	-1.344	-0.504	0.612	6.124	-7.196
25105.377	NaN	2.696	7.467	-4.815	1510.623	1500.366	1498.901	-2.321	-1.145	-0.473	0.459	6.124	-7.043
25106.354	NaN	2.696	7.467	-4.826	1511.355	1498.168	1499.634	-2.244	-1.038	-0.275	0.536	6.124	-7.120
25107.330	NaN	2.707	7.478	-4.804	1508.425	1499.634	1500.366	-2.443	-1.084	-0.336	0.612	6.124	-7.043
25108.307	NaN	2.707	7.489	-4.793	1510.623	1500.366	1500.366	-2.656	-1.099	-0.275	0.536	6.201	-6.967
25109.283	NaN	2.707	7.489	-4.804	1509.158	1498.901	1500.366	-2.595	-1.023	-0.198	0.689	6.201	-7.273
25110.260	NaN	2.696	7.478	-4.804	1509.890	1499.634	1500.366	-2.305	-1.160	-0.229	0.536	6.124	-7.043
25111.237	NaN	2.696	7.478	-4.804	1512.088	1498.901	1500.366	-2.168	-1.145	-0.305	0.459	6.048	-6.967
25112.213	NaN	2.696	7.478	-4.804	1510.623	1499.634	1501.099	-2.153	-0.931	-0.229	0.536	6.201	-6.967
25113.190	NaN	2.707	7.489	-4.793	1509.890	1499.634	1501.832	-2.061	-0.885	-0.076	0.459	6.278	-7.120
25114.166	NaN	2.707	7.478	-4.793	1509.890	1500.366	1500.366	-2.229	-1.069	-0.137	0.612	6.201	-7.043
25115.143	NaN	2.696	7.478	-4.793	1509.158	1500.366	1500.366	-2.443	-1.038	-0.366	0.689	6.278	-7.273
25116.119	NaN	2.696	7.467	-4.793	1509.890	1498.901	1499.634	-2.702	-1.160	-0.290	0.612	6.124	-7.120
25117.096	NaN	2.696	7.478	-4.772	1510.623	1500.366	1499.634	-2.473	-1.160	-0.168	0.612	6.278	-7.196
25118.073	NaN	2.696	7.478	-4.772	1511.355	1499.634	1501.832	-1.985	-1.069	-0.198	0.536	6.124	-7.120
25119.049	NaN	2.685	7.489	-4.772	1509.890	1499.634	1500.366	-1.786	-1.145	-0.122	0.689	6.201	-7.120
25120.026	NaN	2.685	7.478	-4.783	1509.890	1498.901	1498.901	-2.076	-1.038	-0.061	0.536	6.048	-7.120
25121.002	NaN	2.685	7.478	-4.772	1510.623	1499.634	1501.099	-2.229	-1.221	0.046	0.459	6.201	-7.043
25121.979	NaN	2.674	7.478	-4.783	1509.890	1500.366	1500.366	-2.366	-1.145	-0.031	0.459	4.976	-7.120
25122.955	NaN	2.696	7.478	-4.793	1509.890	1500.366	1499.634	-2.183	-0.992	-0.153	0.612	6.278	-7.120
25123.932	NaN	2.696	7.467	-4.783	1510.623	1499.634	1501.832	-2.000	-1.115	-0.015	0.612	6.124	-7.043
25124.908	NaN	2.685	7.478	-4.793	1510.623	1500.366	1501.099	-2.046	-1.053	-0.061	0.612	6.124	-7.120
25125.885	NaN	2.696	7.478	-4.793	1511.355	1499.634	1501.099	-2.321	-1.008	0.076	0.536	6.048	-6.967
25126.862	NaN	2.696	7.478	-4.804	1510.623	1499.634	1501.099	-2.061	-0.916	0.260	0.612	6.201	-7.120
25127.838	NaN	2.696	7.467	-4.804	1510.623	1498.168	1499.634	-1.817	-0.855	0.122	0.612	6.124	-7.120
25128.815	NaN	2.696	7.467	-4.804	1509.890	1500.366	1501.099	-2.061	-0.718	-0.076	0.536	6.201	-7.196
25129.791	NaN	2.707	7.478	-4.793	1511.355	1500.366	1500.366	-2.351	-0.779	-0.290	0.459	6.124	-7.196
25130.768	NaN	2.707	7.478	-4.783	1510.623	1499.634	1501.099	-2.382	-0.855	0.015	0.536	6.201	-7.043
25131.744	NaN	2.707	7.478	-4.793	1510.623	1498.901	1501.099	-2.382	-0.885	0.214	0.459	6.124	-7.043
25132.721	NaN	2.696	7.478	-4.804	1509.890	1499.634	1500.366	-2.153	-0.901	-0.107	0.612	6.201	-7.120
25133.698	NaN	2.696	7.478	-4.815	1510.623	1500.366	1499.634	-2.244	-0.809	-0.015	0.536	6.048	-7.196
25134.674	NaN	2.707	7.478	-4.804	1510.623	1499.634	1500.366	-2.198	-0.947	0.137	0.612	6.201	-7.120
25135.651	NaN	2.696	7.478	-4.793	1511.355	1499.634	1501.099	-2.198	-0.992	0.046	0.536	5.971	-7.196
25136.627	NaN	2.685	7.489	-4.793	1511.355	1499.634	1501.099	-2.153	-0.824	-0.031	0.689	6.048	-6.967
25137.604	NaN	2.674	7.478	-4.804	1509.890	1499.634	1501.099	-2.092	-0.901	0.046	0.612	6.124	-6.967
25138.580	NaN	2.674	7.500	-4.793	1511.355	1500.366	1500.366	-2.137	-0.931	0.244	0.536	6.201	-7.120
25139.557	NaN	2.674	7.500	-4.783	1509.890	1500.366	1499.634	-2.122	-0.824	0.305	0.536	6.048	-7.196
25140.533	NaN	2.674	7.500	-4.783	1510.623	1499.634	1500.366	-2.275	-0.870	0.305	0.612	6.124	-7.043
25141.510	NaN	2.685	7.489	-4.793	1511.355	1499.634	1501.832	-2.427	-0.824	0.214	0.536	6.201	-7.196
25142.487	NaN	2.685	7.500	-4.804	1508.425	1498.901	1501.099	-2.229	-0.641	0.122	0.459	6.124	-7.273
25143.463	NaN	2.707	7.500	-4.804	1509.890	1498.901	1501.832	-2.031	-0.718	0.137	0.689	6.124	-7.196
25144.440	NaN	2.696	7.489	-4.804	1510.623	1499.634	1501.099	-2.107	-0.718	0.153	0.536	6.201	-7.120
25145.416	NaN	2.707	7.489	-4.783	1509.158	1498.901	1500.366	-2.366	-0.641	0.122	0.612	6.048	-7.196
25146.393	NaN	2.707	7.489	-4.783	1509.890	1498.901	1498.901	-2.443	-0.687	0.244	0.612	6.124	-7.273
25147.369	NaN	2.696	7.478	-4.793	1509.158	1498.901	1500.366	-2.275	-0.809	0.076	0.536	6.201	-7.196
25148.346	NaN	2.707	7.489	-4.783	1511.355	1499.634	1501.099	-2.336	-0.779	0.183	0.459	6.201	-7.196
25149.323	NaN	2.696	7.478	-4.783	1510.623	1499.634	1500.366	-2.275	-0.901	0.458	0.536	6.124	-7.120
25150.299	NaN	2.696	7.489	-4.783	1510.623	1498.901	1501.099	-2.168	-0.901	0.489	0.459	6.048	-7.120
25151.276	NaN	2.685	7.489	-4.793	1511.355	1499.634	1500.366	-2.076	-0.824	0.336	0.612	6.124	-7.043
25152.252	NaN	2.685	7.489	-4.783	1511.355	1500.366	1500.366	-2.000	-0.779	0.137	0.612	6.124	-7.273
25153.229	NaN	2.685	7.489	-4.783	1512.088	1499.634	1500.366	-1.985	-0.763	0.183	0.536	6.048	-6.967
25154.205	NaN	2.685	7.489	-4.772	1510.623	1499.634	1500.366	-2.153	-0.763	0.565	0.612	6.124	-7.273
25155.182	NaN	2.674	7.478	-4.772	1510.623	1499.634	1499.634	-2.153	-0.626	0.687	0.612	6.048	-7.120
25156.158	NaN	2.685	7.478	-4.772	1511.355	1500.366	1500.366	-2.198	-0.656	0.534	0.536	6.278	-7.120
25157.135	NaN	2.685	7.478	-4.772	1510.623	1499.634	1500.366	-2.137	-0.870	0.458	0.536	6.048	-7.120
25158.112	NaN	2.685	7.478	-4.761	1510.623	1498.901	1500.366	-2.214	-0.702	0.458	0.383	6.201	-7.120
25159.088	NaN	2.696	7.478	-4.783	1509.890	1499.634	1500.366	-2.153	-0.427	0.412	0.612	6.201	-7.120
25160.065	NaN	2.696	7.478	-4.793	1509.890	1498.901	1500.366	-2.031	-0.611	0.550	0.612	6.048	-7.196
25161.041	NaN	2.707	7.489	-4.793	1511.355	1500.366	1501.099	-2.122	-0.656	0.565	0.459	5.971	-6.967
25162.018	NaN	2.707	7.489	-4.783	1510.623	1498.901	1501.832	-2.336	-0.565	0.565	0.612	6.124	-7.196
25162.994	NaN	2.696	7.489	-4.793	1510.623	1499.634	1501.099	-2.275	-0.748	0.565	0.689	6.201	-7.043
25163.971	NaN	2.696	7.489	-4.804	1509.158	1499.634	1499.634	-2.198	-0.824	0.473	0.766	6.201	-7.196
25164.948	NaN	2.707	7.500	-4.815	1511.355	1500.366	1500.366	-2.107	-0.687	0.458	0.612	6.124	-7.273
25165.924	NaN	2.696	7.489	-4.804	1509.890	1499.634	1500.366	-2.168	-0.580	0.351	0.459	6.124	-7.120
25166.901	NaN	2.696	7.489	-4.772	1512.088	1498.901	1501.099	-2.153	-0.550	0.397	0.689	6.124	-7.196
25167.877	NaN	2.707	7.500	-4.772	1509.890	1499.634	1501.099	-2.168	-0.427	0.519	0.536	6.048	-7.043
25168.854	NaN	2.696	7.489	-4.772	1509.890	1498.901	1499.634	-2.336	-0.382	0.641	0.689	6.048	-7.196
25169.830	NaN	2.696	7.489	-4.783	1511.355	1499.634	1501.099	-2.260	-0.458	0.626	0.536	6.124	-7.349
25170.807	NaN	2.696	7.478	-4.793	1510.623	1498.901	1500.366	-2.046	-0.382	0.672	0.612	6.048	-7.273
25171.783	NaN	2.696	7.489	-4.815	1509.890	1498.901	1500.366	-2.168	-0.397	0.519	0.536	6.124	-7.273
25172.760	NaN	2.707	7.489	-4.804	1509.890	1499.634	1501.099	-2.290	-0.672	0.458	0.612	6.124	-7.043
25173.737	NaN	2.696	7.489	-4.815	1509.890	1498.901	1499.634	-2.305	-0.641	0.443	0.536	6.201	-7.120
25174.713	NaN	2.707	7.500	-4.804	1508.425	1500.366	1499.634	-2.336	-0.550	0.489	0.536	6.048	-7.120
25175.690	NaN	2.696	7.489	-4.804	1510.623	1498.901	1499.634	-2.229	-0.519	0.656	0.689	6.124	-7.043
25176.666	NaN	2.696	7.489	-4.783	1509.890	1498.901	1499.634	-2.000	-0.550	0.779	0.536	6.124	-7.120
25177.643	NaN	2.685	7.478	-4.804	1509.890	1499.634	1500.366	-1.939	-0.458	0.702	0.689	6.124	-7.273
25178.619	NaN	2.685	7.478	-4.804	1510.623	1498.901	1498.901	-2.061	-0.504	0.565	0.612	6.201	-7.196
25179.596	NaN	2.685	7.489	-4.793	1509.158	1499.634	1499.634	-2.137	-0.702	0.672	0.459	6.201	-7.120
25180.573	NaN	2.685	7.478	-4.804	1510.623	1499.634	1501.099	-2.107	-0.626	0.794	0.383	6.124	-7.120
25181.549	NaN	2.696	7.489	-4.783	1509.890	1500.366	1501.099	-2.244	-0.611	0.916	0.536	6.278	-7.196
25182.526	NaN	2.685	7.489	-4.783	1510.623	1499.634	1500.366	-2.168	-0.519	0.992	0.689	6.201	-7.043
25183.502	NaN	2.685	7.489	-4.783	1511.355	1500.366	1499.634	-2.305	-0.366	0.947	0.612	6.201	-7.196
25184.479	NaN	2.674	7.478	-4.804	1509.890	1499.634	1500.366	-2.168	-0.321	0.885	0.612	6.201	-7.273
25185.455	NaN	2.685	7.500	-4.793	1510.623	1500.366	1498.901	-2.061	-0.473	0.718	0.689	6.124	-7.196
25186.432	NaN	2.685	7.478	-4.783	1510.623	1499.634	1500.366	-1.924	-0.534	0.611	0.536	6.201	-7.120
25187.408	NaN	2.685	7.489	-4.804	1511.355	1500.366	1500.366	-1.756	-0.534	0.672	0.689	6.048	-7.196
25188.385	NaN	2.674	7.489	-4.793	1510.623	1500.366	1499.634	-1.832	-0.473	0.870	0.612	6.048	-7.273
25189.362	NaN	2.674	7.478	-4.793	1510.623	1499.634	1501.099	-2.015	-0.412	0.870	0.612	6.201	-7.196
25190.338	NaN	2.674	7.489	-4.793	1509.890	1500.366	1499.634	-2.198	-0.458	0.947	0.612	6.048	-7.196
25191.315	NaN	2.674	7.489	-4.804	1509.158	1499.634	1500.366	-2.168	-0.290	0.718	0.689	6.124	-7.196
25192.291	NaN	2.685	7.489	-4.793	1511.355	1500.366	1501.099	-2.046	-0.321	0.763	0.459	6.124	-7.120
25193.268	NaN	2.685	7.489	-4.793	1511.355	1500.366	1499.634	-2.076	-0.412	0.870	0.536	6.201	-7.120
25194.244	NaN	2.685	7.489	-4.793	1510.623	1499.634	1501.832	-2.153	-0.443	0.824	0.536	6.278	-7.196
25195.221	NaN	2.696	7.489	-4.793	1510.623	1499.634	1501.832	-1.954	-0.382	0.809	0.612	6.048	-7.043
25196.198	NaN	2.696	7.489	-4.815	1510.623	1499.634	1500.366	-2.046	-0.366	0.840	0.536	6.048	-7.273
25197.174	NaN	2.685	7.500	-4.804	1511.355	1500.366	1501.099	-1.893	-0.275	0.977	0.612	6.124	-7.196
25198.151	NaN	2.696	7.500	-4.804	1510.623	1499.634	1501.832	-1.786	-0.382	1.191	0.383	6.048	-7.349
25199.127	NaN	2.696	7.500	-4.804	1510.623	1499.634	1501.099	-1.786	-0.565	1.115	0.612	6.048	-7.273
25200.104	NaN	2.696	7.478	-4.815	1509.890	1499.634	1500.366	-2.122	-0.382	0.855	0.612	6.124	-7.120
25201.080	NaN	2.707	7.489	-4.804	1512.088	1499.634	1501.832	-2.061	-0.473	0.809	0.536	6.048	-6.967
25202.057	NaN	2.707	7.500	-4.793	1510.623	1500.366	1500.366	-1.740	-0.427	0.763	0.612	6.278	-7.120
25203.033	NaN	2.707	7.489	-4.804	1511.355	1499.634	1501.099	-1.771	-0.305	0.947	0.612	6.048	-7.196
25204.010	NaN	2.707	7.500	-4.793	1511.355	1499.634	1501.832	-1.908	-0.198	1.038	0.536	6.201	-7.120
25204.987	NaN	2.696	7.500	-4.804	1511.355	1499.634	1499.634	-1.725	-0.244	0.962	0.459	6.048	-7.043
25205.963	NaN	2.696	7.489	-4.783	1510.623	1501.099	1501.099	-1.618	-0.290	0.794	0.612	6.201	-7.196
25206.940	NaN	2.696	7.500	-4.783	1510.623	1499.634	1500.366	-1.802	-0.290	0.931	0.536	6.278	-7.196
25207.916	NaN	2.696	7.489	-4.793	1509.890	1499.634	1502.564	-2.061	-0.427	1.023	0.612	6.124	-7.043
25208.893	NaN	2.685	7.489	-4.815	1510.623	1499.634	1498.901	-2.366	-0.534	0.977	0.536	6.048	-7.120
25209.869	NaN	2.696	7.489	-4.815	1509.158	1498.901	1500.366	-2.229	-0.305	1.084	0.536	6.048	-7.196
25210.846	NaN	2.707	7.500	-4.815	1510.623	1499.634	1501.099	-2.061	-0.214	1.160	0.612	6.201	-7.120
25211.823	NaN	2.707	7.500	-4.804	1510.623	1499.634	1500.366	-1.908	-0.092	1.053	0.383	6.124	-7.196
25212.799	NaN	2.717	7.500	-4.804	1510.623	1500.366	1500.366	-1.954	-0.336	1.069	0.536	6.201	-7.043
25213.776	NaN	2.707	7.489	-4.804	1509.890	1498.901	1500.366	-1.985	-0.336	1.115	0.612	6.124	-7.120
25214.752	NaN	2.717	7.500	-4.793	1511.355	1500.366	1500.366	-2.061	-0.183	1.053	0.459	6.278	-7.120
25215.729	NaN	2.717	7.500	-4.793	1511.355	1500.366	1501.099	-2.183	-0.168	1.099	0.536	6.124	-6.967
25216.705	NaN	2.717	7.500	-4.783	1509.890	1500.366	1499.634	-2.046	-0.290	1.084	0.612	6.048	-7.120
25217.682	NaN	2.696	7.489	-4.793	1509.890	1499.634	1501.099	-1.954	-0.229	0.885	0.689	6.048	-7.120
25218.658	NaN	2.696	7.500	-4.815	1512.088	1500.366	1499.634	-2.046	-0.183	0.916	0.459	6.124	-7.120
25219.635	NaN	2.696	7.478	-4.804	1509.890	1500.366	1500.366	-1.985	-0.168	1.252	0.536	6.201	-7.196
25220.612	NaN	2.696	7.489	-4.793	1510.623	1499.634	1501.832	-1.786	0.076	1.237	0.459	6.124	-7.273
25221.588	NaN	2.696	7.489	-4.793	1509.890	1498.901	1502.564	-1.893	0.122	1.313	0.536	6.124	-7.043
25222.565	NaN	2.685	7.489	-4.793	1510.623	1498.901	1499.634	-2.122	-0.122	1.267	0.689	6.201	-7.120
25223.541	NaN	2.685	7.500	-4.783	1510.623	1500.366	1501.099	-1.786	-0.229	1.267	0.536	6.124	-7.273
25224.518	NaN	2.685	7.500	-4.793	1511.355	1499.634	1500.366	-1.802	-0.260	1.160	0.612	6.124	-7.120
25225.494	NaN	2.685	7.489	-4.793	1510.623	1499.634	1501.832	-1.969	-0.290	1.099	0.612	6.201	-7.120
25226.471	NaN	2.696	7.489	-4.804	1511.355	1499.634	1501.099	-2.046	-0.244	1.115	0.536	6.124	-7.273
25227.448	NaN	2.685	7.489	-4.804	1511.355	1501.099	1501.099	-2.061	-0.168	1.069	0.689	6.124	-7.273
25228.424	NaN	2.696	7.489	-4.783	1511.355	1499.634	1501.832	-1.649	-0.137	1.084	0.689	6.124	-7.043
25229.401	NaN	2.696	7.489	-4.783	1511.355	1499.634	1501.099	-1.481	-0.153	1.206	0.612	6.124	-7.273
25230.377	NaN	2.685	7.489	-4.783	1510.623	1499.634	1499.634	-1.679	-0.076	1.466	0.612	5.971	-7.273
25231.354	NaN	2.685	7.478	-4.783	1510.623	1498.901	1500.366	-1.725	-0.031	1.282	0.536	6.124	-7.120
25232.330	NaN	2.696	7.500	-4.772	1512.088	1500.366	1500.366	-1.939	-0.168	1.176	0.689	7.349	-7.349
25233.307	NaN	2.685	7.500	-4.783	1510.623	1500.366	1500.366	-1.939	-0.275	1.420	0.612	6.124	-7.196
25234.283	NaN	2.696	7.511	-4.793	1510.623	1498.901	1501.099	-1.634	-0.214	1.618	0.612	6.124	-7.196
25235.260	NaN	2.696	7.511	-4.793	1511.355	1499.634	1501.099	-1.756	-0.092	1.359	0.612	6.201	-7.196
25236.237	NaN	2.685	7.500	-4.793	1510.623	1499.634	1501.099	-1.832	-0.061	1.237	0.612	6.048	-7.196
25237.213	NaN	2.674	7.500	-4.783	1508.425	1499.634	1500.366	-2.046	-0.183	1.237	0.536	6.048	-7.196
25238.190	NaN	2.696	7.500	-4.772	1511.355	1499.634	1499.634	-2.076	-0.122	1.084	0.612	6.278	-7.120
25239.166	NaN	2.696	7.489	-4.783	1509.890	1500.366	1500.366	-1.878	-0.031	1.206	0.612	7.349	-7.196
25240.143	NaN	2.696	7.489	-4.793	1509.890	1499.634	1500.366	-1.771	-0.183	1.405	0.536	6.124	-7.120
25241.119	NaN	2.696	7.478	-4.804	1511.355	1500.366	1500.366	-1.679	-0.198	1.450	0.689	6.048	-7.120
25242.096	NaN	2.707	7.478	-4.783	1510.623	1499.634	1501.832	-1.695	-0.214	1.374	0.536	6.124	-7.196
25243.073	NaN	2.707	7.489	-4.783	1509.890	1499.634	1499.634	-1.771	-0.076	1.344	0.766	6.124	-7.196
25244.049	NaN	2.696	7.489	-4.772	1510.623	1498.901	1500.366	-1.893	-0.107	1.298	0.536	6.201	-6.967
25245.026	NaN	2.696	7.478	-4.783	1511.355	1498.901	1501.832	-1.908	-0.122	1.313	0.612	6.124	-7.043
25246.002	NaN	2.707	7.489	-4.783	1512.821	1499.634	1501.832	-1.969	-0.015	1.298	0.689	6.124	-7.273
25246.979	NaN	2.696	7.489	-4.783	1510.623	1500.366	1499.634	-2.092	0.031	1.420	0.612	6.201	-6.967
25247.955	NaN	2.696	7.489	-4.783	1510.623	1499.634	1499.634	-1.832	-0.122	1.420	0.536	6.201	-7.196
25248.932	NaN	2.685	7.478	-4.783	1510.623	1499.634	1501.099	-1.863	-0.336	1.389	0.612	6.124	-7.196
25249.908	NaN	2.696	7.489	-4.793	1511.355	1500.366	1499.634	-1.695	-0.153	1.176	0.612	6.048	-7.120
25250.885	NaN	2.696	7.489	-4.793	1511.355	1499.634	1500.366	-1.740	-0.015	1.099	0.689	6.124	-7.043
25251.862	NaN	2.696	7.500	-4.783	1511.355	1500.366	1500.366	-1.908	-0.107	1.389	0.536	5.971	-7.196
25252.838	NaN	2.696	7.489	-4.793	1509.890	1500.366	1499.634	-2.000	-0.168	1.557	0.612	6.124	-6.967
25253.815	NaN	2.685	7.489	-4.804	1510.623	1499.634	1500.366	-1.695	-0.198	1.496	0.536	6.124	-7.043
25254.791	NaN	2.696	7.489	-4.793	1511.355	1500.366	1501.099	-1.466	-0.244	1.420	0.766	6.124	-7.120
25255.768	NaN	2.685	7.489	-4.793	1511.355	1500.366	1499.634	-1.710	-0.107	1.420	0.612	6.201	-7.273
25256.744	NaN	2.685	7.478	-4.793	1510.623	1500.366	1500.366	-1.969	0.046	1.481	0.612	6.124	-7.043
25257.721	NaN	2.674	7.478	-4.783	1510.623	1500.366	1501.099	-1.878	0.031	1.405	0.536	6.048	-7.120
25258.698	NaN	2.674	7.478	-4.793	1511.355	1500.366	1498.901	-1.863	0.046	1.466	0.612	6.201	-7.120
25259.674	NaN	2.685	7.489	-4.783	1511.355	1500.366	1501.099	-1.893	0.092	1.221	0.536	6.278	-7.043
25260.651	NaN	2.685	7.500	-4.793	1511.355	1499.634	1501.099	-1.634	0.000	1.115	0.536	6.048	-7.120
25261.627	NaN	2.685	7.500	-4.793	1510.623	1500.366	1500.366	-1.496	-0.137	1.359	0.612	6.124	-7.273
25262.604	NaN	2.685	7.489	-4.793	1509.890	1498.901	1500.366	-1.679	-0.137	1.557	0.612	6.124	-7.196
25263.580	NaN	2.707	7.489	-4.793	1511.355	1499.634	1500.366	-1.710	-0.031	1.435	0.536	6.048	-7.196
25264.557	NaN	2.707	7.489	-4.804	1509.890	1500.366	1500.366	-1.527	-0.092	1.481	0.536	6.124	-7.043
25265.533	NaN	2.696	7.478	-4.804	1509.890	1499.634	1501.832	-1.405	-0.137	1.374	0.459	6.201	-7.196
25266.510	NaN	2.696	7.478	-4.793	1509.158	1498.168	1499.634	-1.679	-0.214	1.405	0.766	6.048	-7.196
25267.487	NaN	2.696	7.489	-4.793	1510.623	1499.634	1500.366	-1.725	-0.107	1.511	0.689	6.124	-7.120
25268.463	NaN	2.685	7.489	-4.793	1509.890	1498.901	1500.366	-1.771	0.031	1.542	0.536	6.124	-7.120
25269.440	NaN	2.717	7.511	-4.793	1510.623	1499.634	1500.366	-1.511	0.031	1.603	0.536	6.124	-7.120
25270.416	NaN	2.707	7.489	-4.793	1509.890	1499.634	1501.832	-1.496	0.061	1.618	0.536	6.048	-6.967
25271.393	NaN	2.717	7.500	-4.804	1509.890	1498.901	1498.901	-1.542	0.153	1.435	0.536	7.349	-7.120
25272.369	NaN	2.728	7.500	-4.793	1514.286	1500.366	1500.366	-1.511	0.153	1.313	0.536	6.201	-7.120
25273.346	NaN	2.728	7.500	-4.793	1511.355	1498.901	1499.634	-1.771	-0.137	1.389	0.612	6.278	-7.120
25274.323	NaN	2.728	7.500	-4.783	1510.623	1498.901	1500.366	-1.863	-0.153	1.374	0.612	6.124	-7.273
25275.299	NaN	2.728	7.500	-4.793	1509.890	1499.634	1500.366	-1.756	-0.076	1.542	0.536	6.201	-7.273
25276.276	NaN	2.717	7.500	-4.793	1509.158	1498.901	1500.366	-1.634	-0.015	1.603	0.689	6.124	-7.120
25277.252	NaN	2.717	7.511	-4.783	1510.623	1499.634	1501.099	-1.450	-0.031	1.450	0.612	6.048	-7.120
25278.229	NaN	2.707	7.500	-4.783	1510.623	1499.634	1501.099	-1.603	0.122	1.389	0.536	6.124	-7.273
25279.205	NaN	2.707	7.511	-4.772	1509.158	1498.901	1501.099	-1.649	0.244	1.496	0.459	6.048	-7.196
25280.182	NaN	2.707	7.500	-4.783	1510.623	1499.634	1502.564	-1.649	0.107	1.634	0.536	6.124	-7.043
25281.158	NaN	2.717	7.500	-4.793	1510.623	1499.634	1499.634	-1.802	-0.122	1.603	0.689	5.971	-7.120
25282.135	NaN	2.717	7.489	-4.783	1511.355	1499.634	1500.366	-1.695	-0.198	1.496	0.689	6.048	-7.196
25283.112	NaN	2.717	7.489	-4.793	1510.623	1499.634	1499.634	-1.679	-0.092	1.405	0.536	6.201	-7.120
25284.088	NaN	2.717	7.489	-4.793	1509.890	1498.168	1498.901	-1.618	-0.183	1.405	0.536	6.048	-7.273
25285.065	NaN	2.728	7.489	-4.793	1510.623	1500.366	1500.366	-1.573	-0.046	1.496	0.536	6.048	-7.043
25286.041	NaN	2.728	7.478	-4.793	1509.890	1499.634	1500.366	-1.695	0.076	1.481	0.612	6.124	-7.196
25287.018	NaN	2.739	7.489	-4.793	1509.890	1499.634	1501.832	-1.573	0.122	1.588	0.689	6.124	-7.196
25287.994	NaN	2.717	7.478	-4.804	1510.623	1499.634	1501.099	-1.557	-0.137	1.573	0.689	6.124	-7.043
25288.971	NaN	2.717	7.478	-4.793	1510.623	1498.168	1499.634	-1.603	-0.382	1.542	0.612	6.048	-7.120
25289.948	NaN	2.717	7.478	-4.815	1511.355	1500.366	1498.901	-1.817	-0.443	1.847	0.689	6.124	-7.043
25290.924	NaN	2.707	7.478	-4.815	1509.890	1499.634	1500.366	-1.756	-0.260	1.710	0.459	6.201	-7.120
25291.901	NaN	2.717	7.489	-4.815	1509.890	1500.366	1499.634	-1.618	0.000	1.527	0.459	6.124	-7.120
25292.877	NaN	2.717	7.500	-4.815	1509.890	1498.901	1501.099	-1.756	0.031	1.435	0.612	6.124	-7.273
25293.854	NaN	2.707	7.500	-4.804	1509.890	1499.634	1500.366	-1.756	-0.107	1.496	0.689	6.201	-7.196
25294.830	NaN	2.707	7.511	-4.793	1510.623	1501.099	1500.366	-1.740	-0.382	1.511	0.689	6.048	-7.196
25295.807	NaN	2.696	7.500	-4.793	1509.158	1498.901	1500.366	-1.908	-0.321	1.466	0.612	6.124	-7.196
25296.783	NaN	2.717	7.511	-4.793	1509.890	1500.366	1499.634	-1.618	0.000	1.634	0.536	6.278	-7.196
25297.760	NaN	2.717	7.500	-4.793	1509.890	1498.901	1501.099	-1.588	0.046	1.802	0.612	6.124	-7.196
25298.737	NaN	2.717	7.511	-4.793	1510.623	1498.901	1499.634	-1.710	-0.153	1.664	0.536	6.201	-7.043
25299.713	NaN	2.717	7.500	-4.783	1510.623	1500.366	1500.366	-1.863	-0.229	1.634	0.612	6.278	-7.120
25300.690	NaN	2.707	7.500	-4.793	1510.623	1499.634	1501.832	-2.015	-0.290	1.542	0.689	6.048	-7.120
25301.666	NaN	2.717	7.489	-4.783	1511.355	1499.634	1502.564	-1.878	-0.183	1.481	0.536	6.124	-7.196
25302.643	NaN	2.696	7.489	-4.793	1511.355	1499.634	1501.099	-1.832	-0.198	1.649	0.536	6.201	-7.120
25303.619	NaN	2.696	7.478	-4.793	1509.890	1498.901	1499.634	-1.664	-0.183	1.756	0.536	6.124	-7.043
25304.596	NaN	2.707	7.500	-4.783	1511.355	1500.366	1500.366	-1.573	-0.046	1.649	0.612	6.201	-7.196
25305.573	NaN	2.696	7.489	-4.783	1510.623	1500.366	1500.366	-1.542	-0.137	1.511	0.612	6.124	-7.043
25306.549	NaN	2.707	7.478	-4.793	1509.890	1498.901	1501.099	-1.527	-0.412	1.420	0.459	6.048	-7.043
25307.526	NaN	2.707	7.467	-4.804	1510.623	1499.634	1499.634	-1.756	-0.305	1.557	0.689	6.124	-7.120
25308.502	NaN	2.717	7.478	-4.783	1510.623	1500.366	1500.366	-1.695	-0.183	1.756	0.383	6.048	-7.043
25309.479	NaN	2.717	7.478	-4.783	1510.623	1500.366	1500.366	-1.725	-0.290	1.771	0.536	6.124	-7.120
25310.455	NaN	2.728	7.489	-4.783	1510.623	1500.366	1499.634	-1.786	-0.366	1.603	0.536	6.124	-7.273
25311.432	NaN	2.717	7.467	-4.783	1509.890	1498.901	1501.832	-1.771	-0.504	1.618	0.689	6.201	-7.196
25312.408	NaN	2.717	7.478	-4.793	1510.623	1500.366	1500.366	-1.634	-0.473	1.466	0.612	6.124	-7.273
25313.385	NaN	2.717	7.478	-4.783	1510.623	1499.634	1501.832	-1.771	-0.351	1.511	0.612	6.201	-7.196
25314.362	NaN	2.707	7.478	-4.783	1510.623	1499.634	1501.099	-1.908	-0.321	1.573	0.536	6.124	-7.196
25315.338	NaN	2.717	7.478	-4.772	1510.623	1500.366	1500.366	-1.756	-0.260	1.450	0.612	6.124	-7.273
25316.315	NaN	2.696	7.478	-4.793	1511.355	1499.634	1500.366	-1.924	-0.366	1.389	0.689	6.124	-7.196
25317.291	NaN	2.707	7.467	-4.783	1511.355	1498.901	1500.366	-1.878	-0.260	1.527	0.689	6.048	-7.120
25318.268	NaN	2.707	7.478	-4.783	1511.355	1499.634	1502.564	-1.679	-0.275	1.679	0.536	6.048	-7.196
25319.244	NaN	2.707	7.467	-4.793	1511.355	1498.901	1500.366	-1.664	-0.198	1.481	0.612	6.278	-7.043
25320.221	NaN	2.717	7.467	-4.793	1510.623	1499.634	1501.099	-1.557	-0.061	1.435	0.612	6.124	-7.196
25321.198	NaN	2.717	7.467	-4.793	1511.355	1499.634	1499.634	-1.450	-0.107	1.511	0.536	6.124	-7.043
25322.174	NaN	2.728	7.467	-4.783	1510.623	1499.634	1501.832	-1.649	-0.305	1.435	0.612	6.201	-7.196
25323.151	NaN	2.728	7.467	-4.772	1510.623	1499.634	1501.832	-1.725	-0.336	1.267	0.612	6.201	-7.120
25324.127	NaN	2.717	7.457	-4.783	1511.355	1499.634	1500.366	-1.557	-0.244	1.252	0.536	6.124	-7.196
25325.104	NaN	2.728	7.446	-4.772	1509.890	1498.901	1500.366	-1.481	-0.260	1.435	0.536	6.201	-7.196
25326.080	NaN	2.728	7.457	-4.783	1510.623	1497.436	1500.366	-1.695	-0.366	1.527	0.612	6.124	-6.967
25327.057	NaN	2.739	7.467	-4.783	1510.623	1499.634	1501.099	-1.817	-0.458	1.496	0.536	6.124	-7.120
25328.033	NaN	2.728	7.467	-4.793	1511.355	1499.634	1501.099	-1.893	-0.382	1.511	0.536	5.971	-6.967
25329.010	NaN	2.717	7.478	-4.793	1510.623	1498.168	1500.366	-1.939	-0.336	1.527	0.383	6.201	-7.196
25329.987	NaN	2.707	7.478	-4.783	1510.623	1499.634	1500.366	-1.832	-0.275	1.405	0.689	6.124	-7.043
25330.963	NaN	2.707	7.489	-4.772	1510.623	1499.634	1501.832	-1.664	-0.458	1.557	0.536	6.201	-7.196
25331.940	NaN	2.696	7.467	-4.783	1510.623	1498.901	1501.099	-1.771	-0.427	1.618	0.612	6.124	-7.043
25332.916	NaN	2.696	7.467	-4.761	1509.890	1498.168	1500.366	-1.908	-0.336	1.389	0.612	6.201	-7.043
25333.893	NaN	2.696	7.467	-4.772	1509.158	1500.366	1500.366	-1.924	-0.244	1.282	0.612	6.124	-7.043
25334.869	NaN	2.707	7.467	-4.761	1509.890	1499.634	1501.832	-1.725	-0.366	1.374	0.612	6.048	-7.120
25335.846	NaN	2.707	7.478	-4.761	1511.355	1499.634	1500.366	-1.649	-0.275	1.511	0.536	6.124	-7.120
25336.823	NaN	2.707	7.478	-4.772	1511.355	1499.634	1500.366	-1.710	-0.076	1.542	0.612	6.201	-6.967
25337.799	NaN	2.717	7.489	-4.793	1509.890	1499.634	1501.099	-1.817	-0.198	1.450	0.612	6.201	-7.120
25338.776	NaN	2.707	7.467	-4.793	1510.623	1499.634	1500.366	-1.908	-0.458	1.344	0.612	6.124	-7.120
25339.752	NaN	2.717	7.478	-4.783	1510.623	1500.366	1501.099	-2.000	-0.534	1.405	0.612	6.124	-7.043
25340.729	NaN	2.707	7.467	-4.772	1510.623	1500.366	1500.366	-1.893	-0.595	1.450	0.689	6.124	-7.120
25341.705	NaN	2.717	7.478	-4.772	1511.355	1499.634	1501.099	-1.710	-0.565	1.374	0.689	6.124	-7.120
25342.682	NaN	2.717	7.467	-4.772	1509.890	1499.634	1500.366	-1.435	-0.565	1.420	0.459	6.048	-7.120
25343.658	NaN	2.728	7.478	-4.783	1510.623	1499.634	1501.099	-1.908	-0.565	1.420	0.612	6.048	-7.043
25344.635	NaN	2.728	7.467	-4.793	1509.890	1499.634	1501.832	-1.771	-0.366	1.588	0.612	6.048	-7.120
25345.612	NaN	2.717	7.467	-4.793	1511.355	1498.901	1501.099	-1.878	-0.366	1.771	0.536	6.048	-7.043
25346.588	NaN	2.717	7.467	-4.783	1507.692	1498.901	1498.901	-1.817	-0.458	1.802	0.612	6.124	-7.120
25347.565	NaN	2.707	7.467	-4.783	1509.890	1499.634	1500.366	-1.695	-0.656	1.557	0.536	6.048	-7.120
25348.541	NaN	2.707	7.467	-4.772	1511.355	1500.366	1500.366	-1.649	-0.672	1.618	0.689	6.201	-7.043
25349.518	NaN	2.707	7.467	-4.761	1510.623	1499.634	1501.832	-1.740	-0.580	1.664	0.689	6.124	-7.273
25350.494	NaN	2.707	7.478	-4.772	1510.623	1500.366	1500.366	-1.756	-0.611	1.603	0.689	6.048	-7.043
25351.471	NaN	2.717	7.478	-4.783	1510.623	1499.634	1501.099	-1.725	-0.550	1.435	0.612	6.124	-7.273
25352.448	NaN	2.717	7.467	-4.783	1511.355	1500.366	1499.634	-1.740	-0.443	1.374	0.612	6.124	-7.120
25353.424	NaN	2.728	7.467	-4.772	1510.623	1500.366	1498.901	-1.832	-0.473	1.206	0.536	6.124	-7.120
25354.401	3736844375.260	2.728	7.467	-4.772	1511.355	1499.634	1499.634	-1.649	-0.641	1.282	0.612	6.124	-7.120
25355.377	NaN	2.717	7.478	-4.772	1510.623	1500.366	1499.634	-1.511	-0.611	1.435	0.689	6.124	-7.120
25356.354	NaN	2.717	7.467	-4.772	1509.890	1498.901	1500.366	-1.588	-0.489	1.130	0.612	6.124	-7.043
25357.330	NaN	2.717	7.489	-4.761	1511.355	1499.634	1501.832	-1.634	-0.534	1.298	0.689	6.124	-7.120
25358.307	NaN	2.717	7.489	-4.761	1511.355	1498.901	1501.832	-1.695	-0.718	1.450	0.536	6.048	-7.043
25359.283	NaN	2.717	7.489	-4.772	1510.623	1499.634	1501.099	-1.740	-0.763	1.405	0.536	6.124	-7.120
25360.260	NaN	2.717	7.467	-4.772	1509.158	1498.901	1500.366	-1.908	-0.626	1.191	0.612	6.124	-7.196
25361.237	NaN	2.728	7.478	-4.761	1510.623	1499.634	1499.634	-1.740	-0.687	1.176	0.612	6.048	-7.043
25362.213	NaN	2.728	7.478	-4.761	1509.890	1500.366	1501.099	-1.649	-0.733	1.328	0.689	6.124	-7.120
25363.190	NaN	2.728	7.478	-4.772	1509.158	1499.634	1500.366	-1.420	-0.626	1.496	0.536	6.201	-7.120
25364.166	NaN	2.728	7.478	-4.783	1509.158	1499.634	1501.099	-1.573	-0.611	1.466	0.612	6.124	-7.120
25365.143	NaN	2.717	7.489	-4.793	1510.623	1498.901	1499.634	-1.725	-0.611	1.206	0.536	6.201	-7.043
25366.119	NaN	2.728	7.489	-4.783	1508.425	1499.634	1501.099	-1.924	-0.779	1.099	0.612	6.201	-7.120
25367.096	NaN	2.717	7.478	-4.793	1509.890	1499.634	1501.099	-2.031	-0.824	1.191	0.689	6.124	-7.349
25368.073	NaN	2.739	7.478	-4.783	1509.158	1498.901	1500.366	-1.893	-0.916	1.328	0.689	6.124	-6.124
25369.049	NaN	2.750	7.489	-4.772	1509.890	1499.634	1499.634	-1.863	-0.824	1.328	0.536	6.048	-7.120
25370.026	NaN	2.750	7.467	-4.783	1510.623	1499.634	1500.366	-1.802	-0.885	1.389	0.689	6.048	-7.196
25371.002	NaN	2.750	7.478	-4.772	1511.355	1500.366	1501.099	-1.634	-0.870	1.298	0.612	6.201	-7.273
25371.979	NaN	2.739	7.478	-4.772	1511.355	1498.901	1501.832	-1.618	-0.824	1.130	0.459	6.201	-7.120
25372.955	NaN	2.750	7.478	-4.783	1510.623	1499.634	1500.366	-1.618	-0.763	1.313	0.536	6.124	-7.043
25373.932	NaN	2.728	7.478	-4.793	1509.890	1499.634	1500.366	-1.740	-0.809	1.359	0.689	6.048	-7.120
25374.908	NaN	2.717	7.478	-4.804	1510.623	1500.366	1499.634	-1.924	-0.840	1.191	0.612	6.048	-7.196
25375.885	NaN	2.728	7.478	-4.793	1512.088	1499.634	1501.099	-2.031	-0.977	1.145	0.612	6.201	-7.196
25376.862	NaN	2.728	7.467	-4.804	1509.890	1499.634	1499.634	-1.985	-0.931	1.145	0.612	6.124	-7.043
25377.838	NaN	2.739	7.467	-4.793	1508.425	1498.168	1499.634	-1.878	-0.916	1.237	0.459	6.124	-7.120
25378.815	NaN	2.739	7.478	-4.783	1510.623	1498.168	1499.634	-1.924	-1.053	1.206	0.536	6.124	-7.120
25379.791	NaN	2.728	7.467	-4.772	1510.623	1499.634	1500.366	-1.908	-0.931	1.328	0.612	6.124	-7.196
25380.768	NaN	2.728	7.478	-4.783	1509.890	1499.634	1501.099	-1.802	-1.008	1.328	0.612	5.971	-7.196
25381.744	NaN	2.717	7.478	-4.793	1510.623	1499.634	1502.564	-1.756	-0.992	1.328	0.612	7.349	-7.043
25382.721	NaN	2.707	7.467	-4.793	1509.890	1499.634	1500.366	-1.863	-1.053	1.038	0.689	6.048	-7.273
25383.698	NaN	2.707	7.478	-4.815	1510.623	1500.366	1500.366	-1.679	-1.267	0.992	0.536	6.201	-7.120
25384.674	NaN	2.717	7.478	-4.793	1511.355	1499.634	1501.099	-1.649	-1.267	1.191	0.536	6.048	-7.273
25385.651	NaN	2.717	7.478	-4.793	1510.623	1499.634	1500.366	-1.786	-1.145	1.282	0.536	6.124	-7.273
25386.627	NaN	2.728	7.478	-4.793	1511.355	1499.634	1501.099	-2.046	-1.084	1.313	0.612	6.048	-7.196
25387.604	NaN	2.707	7.467	-4.815	1510.623	1499.634	1500.366	-2.107	-1.160	1.206	0.536	6.124	-7.120
25388.580	NaN	2.717	7.478	-4.804	1512.088	1499.634	1501.099	-2.000	-1.145	1.237	0.612	4.976	-7.120
25389.557	NaN	2.717	7.478	-4.793	1510.623	1499.634	1500.366	-2.137	-1.084	1.328	0.612	6.124	-7.120
25390.533	NaN	2.717	7.478	-4.804	1512.088	1499.634	1500.366	-2.046	-0.977	1.313	0.612	6.048	-7.043
25391.510	NaN	2.717	7.467	-4.804	1509.890	1499.634	1501.099	-1.954	-0.977	1.237	0.612	6.124	-7.196
25392.487	NaN	2.717	7.467	-4.815	1509.158	1498.901	1499.634	-1.985	-1.160	1.237	0.612	6.048	-7.196
25393.463	NaN	2.739	7.467	-4.815	1509.890	1499.634	1499.634	-2.031	-1.389	1.053	0.612	6.124	-7.196
25394.440	NaN	2.728	7.467	-4.815	1509.158	1500.366	1501.099	-1.985	-1.435	0.840	0.459	6.124	-7.120
25395.416	NaN	2.728	7.467	-4.815	1509.890	1499.634	1499.634	-1.786	-1.359	0.855	0.612	6.201	-7.273
25396.393	NaN	2.728	7.457	-4.804	1511.355	1500.366	1500.366	-1.725	-1.344	0.977	0.612	6.124	-7.043
25397.369	NaN	2.739	7.467	-4.804	1510.623	1500.366	1500.366	-1.802	-1.252	0.916	0.612	6.048	-7.120
25398.346	NaN	2.728	7.478	-4.793	1510.623	1500.366	1499.634	-1.725	-1.206	0.992	0.689	6.048	-7.196
25399.323	NaN	2.728	7.467	-4.804	1510.623	1499.634	1500.366	-1.725	-1.206	1.145	0.612	6.048	-7.196
25400.299	NaN	2.717	7.489	-4.815	1509.158	1499.634	1501.099	-1.725	-1.237	1.115	0.612	6.201	-7.120
25401.276	NaN	2.728	7.489	-4.815	1509.890	1498.901	1501.099	-1.664	-1.420	0.962	0.766	6.124	-7.196
25402.252	NaN	2.739	7.489	-4.804	1510.623	1501.099	1501.099	-1.756	-1.328	0.947	0.689	6.048	-6.967
25403.229	NaN	2.739	7.489	-4.804	1509.890	1499.634	1501.099	-1.985	-1.405	1.206	0.536	6.124	-7.043
25404.205	NaN	2.739	7.500	-4.793	1509.890	1499.634	1501.099	-1.832	-1.420	1.282	0.689	6.278	-7.120
25405.182	NaN	2.728	7.489	-4.804	1511.355	1499.634	1501.099	-1.664	-1.237	1.191	0.612	6.201	-7.043
25406.158	NaN	2.739	7.489	-4.815	1511.355	1500.366	1498.901	-1.832	-1.191	1.053	0.536	6.124	-7.196
25407.135	NaN	2.739	7.489	-4.804	1511.355	1499.634	1501.099	-2.000	-1.282	1.130	0.612	6.124	-7.043
25408.112	NaN	2.728	7.489	-4.793	1510.623	1499.634	1501.099	-2.382	-1.420	1.008	0.689	6.201	-7.120
25409.088	NaN	2.728	7.478	-4.793	1511.355	1499.634	1500.366	-2.260	-1.466	0.992	0.766	6.201	-7.120
25410.065	NaN	2.728	7.489	-4.804	1510.623	1499.634	1501.099	-2.153	-1.527	0.992	0.612	6.201	-6.967
25411.041	NaN	2.728	7.489	-4.804	1509.890	1498.901	1499.634	-1.924	-1.466	0.901	0.689	6.048	-7.043
25412.018	NaN	2.739	7.489	-4.793	1510.623	1498.901	1500.366	-1.985	-1.481	0.901	0.536	6.201	-7.043
25412.994	NaN	2.739	7.478	-4.793	1510.623	1500.366	1500.366	-1.954	-1.588	0.931	0.536	6.124	-7.196
25413.971	NaN	2.739	7.478	-4.793	1509.890	1499.634	1500.366	-1.954	-1.573	0.779	0.612	6.124	-7.043
25414.948	NaN	2.739	7.478	-4.783	1512.088	1500.366	1501.099	-2.244	-1.649	0.840	0.536	6.048	-7.196
25415.924	NaN	2.739	7.478	-4.772	1511.355	1499.634	1501.832	-2.427	-1.649	0.840	0.689	6.124	-7.120
25416.901	NaN	2.750	7.467	-4.772	1509.890	1499.634	1502.564	-2.092	-1.618	0.794	0.689	6.048	-7.043
25417.877	NaN	2.739	7.457	-4.761	1511.355	1499.634	1500.366	-1.908	-1.725	0.779	0.689	6.124	-7.196
25418.854	NaN	2.728	7.457	-4.783	1509.890	1499.634	1501.099	-1.908	-1.557	0.870	0.612	5.971	-7.043
25419.830	NaN	2.728	7.467	-4.772	1510.623	1500.366	1500.366	-1.939	-1.557	0.885	0.689	6.048	-7.120
25420.807	NaN	2.717	7.478	-4.793	1509.890	1500.366	1501.099	-2.046	-1.542	0.840	0.689	7.273	-7.120
25421.783	NaN	2.717	7.478	-4.783	1510.623	1498.901	1501.099	-2.046	-1.542	0.718	0.536	6.048	-7.120
25422.760	NaN	2.717	7.467	-4.804	1509.890	1499.634	1501.099	-2.092	-1.649	0.626	0.689	6.124	-7.196
25423.737	NaN	2.717	7.478	-4.804	1511.355	1500.366	1500.366	-2.107	-1.725	0.656	0.612	6.124	-7.273
25424.713	NaN	2.717	7.467	-4.804	1510.623	1500.366	1500.366	-1.969	-1.588	0.763	0.612	6.124	-7.120
25425.690	NaN	2.717	7.478	-4.815	1510.623	1499.634	1499.634	-2.000	-1.832	0.855	0.459	5.895	-7.043
25426.666	NaN	2.717	7.467	-4.804	1509.158	1498.901	1500.366	-2.305	-1.740	1.008	0.536	6.278	-7.043
25427.643	NaN	2.717	7.467	-4.793	1508.425	1498.901	1501.099	-2.382	-1.664	0.794	0.612	6.201	-7.120
25428.619	NaN	2.707	7.467	-4.793	1510.623	1500.366	1500.366	-2.183	-1.573	0.779	0.766	6.201	-7.120
25429.596	NaN	2.717	7.478	-4.793	1510.623	1498.901	1501.832	-2.092	-1.618	0.809	0.689	6.048	-7.196
25430.573	NaN	2.707	7.467	-4.783	1510.623	1498.901	1500.366	-1.893	-1.695	0.763	0.536	6.124	-7.043
25431.549	NaN	2.707	7.467	-4.783	1508.425	1499.634	1501.832	-2.000	-1.634	0.626	0.536	6.201	-7.043
25432.526	NaN	2.707	7.467	-4.793	1511.355	1499.634	1500.366	-2.092	-1.618	0.565	0.612	6.124	-7.120
25433.502	NaN	2.728	7.478	-4.793	1510.623	1500.366	1498.901	-2.168	-1.817	0.504	0.689	6.048	-7.043
25434.479	NaN	2.728	7.467	-4.804	1510.623	1499.634	1500.366	-2.000	-1.878	0.595	0.612	6.124	-7.120
25435.455	NaN	2.728	7.467	-4.793	1510.623	1501.099	1500.366	-1.954	-1.771	0.672	0.689	6.048	-7.120
25436.432	NaN	2.728	7.457	-4.793	1508.425	1499.634	1498.168	-2.321	-1.893	0.534	0.689	6.124	-6.967
25437.408	NaN	2.728	7.467	-4.783	1510.623	1499.634	1501.099	-2.290	-1.863	0.382	0.612	6.124	-7.120
25438.385	NaN	2.739	7.467	-4.783	1510.623	1499.634	1501.832	-2.275	-1.786	0.504	0.689	6.048	-7.120
25439.362	NaN	2.728	7.467	-4.783	1510.623	1498.901	1501.832	-2.305	-1.679	0.580	0.766	5.971	-7.043
25440.338	NaN	2.739	7.467	-4.783	1509.890	1498.168	1500.366	-2.153	-1.771	0.565	0.459	6.201	-7.196
25441.315	NaN	2.728	7.467	-4.793	1510.623	1499.634	1501.099	-2.107	-2.000	0.748	0.612	6.278	-7.196
25442.291	NaN	2.717	7.467	-4.772	1512.088	1499.634	1501.832	-2.260	-2.107	0.840	0.612	5.971	-7.273
25443.268	NaN	2.717	7.467	-4.772	1510.623	1500.366	1501.099	-2.168	-2.137	0.779	0.536	6.048	-7.196
25444.244	NaN	2.717	7.467	-4.772	1509.890	1499.634	1500.366	-2.290	-2.046	0.672	0.612	6.201	-7.043
25445.221	NaN	2.717	7.457	-4.772	1510.623	1498.901	1500.366	-2.107	-2.046	0.473	0.689	6.124	-7.043
25446.198	NaN	2.707	7.457	-4.793	1510.623	1500.366	1500.366	-2.015	-1.908	0.351	0.459	6.048	-7.196
25447.174	NaN	2.696	7.478	-4.783	1509.890	1500.366	1499.634	-2.107	-1.847	0.565	0.536	6.048	-7.120
25448.151	NaN	2.707	7.457	-4.783	1510.623	1500.366	1501.099	-2.290	-1.878	0.763	0.536	6.201	-7.120
25449.127	NaN	2.717	7.467	-4.783	1510.623	1499.634	1502.564	-2.137	-1.847	0.763	0.612	5.971	-7.043
25450.104	NaN	2.707	7.467	-4.783	1510.623	1500.366	1499.634	-1.985	-1.924	0.687	0.689	6.048	-7.120
25451.080	NaN	2.717	7.478	-4.783	1509.890	1499.634	1501.099	-2.153	-1.954	0.718	0.612	6.124	-7.043
25452.057	NaN	2.717	7.467	-4.793	1509.158	1499.634	1499.634	-2.489	-2.046	0.580	0.612	5.971	-7.043
25453.033	NaN	2.728	7.467	-4.783	1509.890	1498.901	1499.634	-2.397	-2.046	0.534	0.689	6.201	-7.120
25454.010	NaN	2.728	7.457	-4.804	1509.890	1499.634	1500.366	-2.198	-1.969	0.611	0.689	6.124	-7.120
25454.987	NaN	2.728	7.467	-4.804	1511.355	1498.901	1500.366	-2.351	-2.183	0.687	0.612	6.201	-7.043
25455.963	NaN	2.728	7.467	-4.793	1510.623	1500.366	1500.366	-2.519	-2.137	0.611	0.612	6.201	-7.120
25456.940	NaN	2.728	7.467	-4.783	1511.355	1499.634	1501.832	-2.305	-1.969	0.458	0.612	6.048	-6.967
25457.916	NaN	2.728	7.467	-4.783	1509.890	1499.634	1501.832	-2.290	-1.969	0.550	0.689	5.971	-7.273
25458.893	NaN	2.728	7.478	-4.783	1509.890	1498.901	1499.634	-2.290	-2.000	0.626	0.612	6.124	-7.196
25459.869	NaN	2.728	7.467	-4.783	1511.355	1499.634	1500.366	-2.443	-2.061	0.443	0.536	6.124	-7.043
25460.846	NaN	2.739	7.467	-4.772	1510.623	1499.634	1500.366	-2.351	-2.153	0.321	0.612	5.971	-7.043
25461.823	NaN	2.728	7.457	-4.772	1509.158	1500.366	1500.366	-2.305	-2.137	0.489	0.612	6.201	-7.120
25462.799	NaN	2.728	7.457	-4.793	1509.890	1499.634	1500.366	-2.366	-2.092	0.565	0.689	6.201	-7.043
25463.776	NaN	2.728	7.467	-4.804	1510.623	1499.634	1499.634	-2.382	-2.122	0.779	0.536	6.201	-7.043
25464.752	NaN	2.739	7.467	-4.793	1511.355	1500.366	1499.634	-2.244	-2.336	0.595	0.612	5.971	-7.120
25465.729	NaN	2.728	7.478	-4.804	1509.890	1499.634	1500.366	-2.336	-2.305	0.382	0.612	6.048	-7.196
25466.705	NaN	2.717	7.489	-4.793	1511.355	1499.634	1501.099	-2.214	-2.305	0.305	0.689	6.048	-7.196
25467.682	NaN	2.707	7.489	-4.793	1510.623	1498.168	1499.634	-2.153	-2.137	0.382	0.612	6.124	-7.196
25468.658	NaN	2.707	7.478	-4.783	1510.623	1500.366	1499.634	-2.366	-2.214	0.397	0.612	6.048	-7.120
25469.635	NaN	2.717	7.478	-4.783	1510.623	1500.366	1499.634	-2.656	-2.382	0.702	0.612	6.201	-7.273
25470.612	NaN	2.707	7.478	-4.783	1510.623	1499.634	1500.366	-2.595	-2.275	0.504	0.536	6.048	-7.043
25471.588	NaN	2.707	7.467	-4.793	1509.890	1498.901	1501.099	-2.412	-2.153	0.382	0.612	6.124	-7.120
25472.565	NaN	2.707	7.467	-4.793	1510.623	1499.634	1500.366	-2.214	-2.366	0.305	0.536	6.201	-7.120
25473.541	NaN	2.717	7.478	-4.793	1512.088	1501.099	1501.099	-2.046	-2.473	0.382	0.612	6.201	-7.349
25474.518	NaN	2.707	7.467	-4.815	1509.890	1498.901	1500.366	-2.168	-2.550	0.504	0.536	6.278	-7.120
25475.494	NaN	2.717	7.489	-4.804	1509.890	1498.901	1498.901	-2.397	-2.290	0.351	0.536	6.124	-7.196
25476.471	NaN	2.717	7.478	-4.793	1509.890	1499.634	1500.366	-2.672	-2.198	0.351	0.766	6.201	-7.120
25477.448	NaN	2.717	7.478	-4.793	1509.890	1498.901	1499.634	-2.550	-2.198	0.351	0.612	6.048	-7.196
25478.424	NaN	2.728	7.467	-4.793	1509.158	1498.901	1500.366	-2.611	-2.153	0.504	0.612	6.124	-7.120
25481.354	NaN	2.750	7.478	-4.793	1510.623	1498.901	1501.099	-2.565	-2.397	0.382	0.689	6.201	-7.196
25482.330	NaN	2.728	7.478	-4.804	1511.355	1500.366	1501.099	-2.611	-2.366	0.198	0.612	5.971	-7.196
25483.307	NaN	2.728	7.467	-4.793	1510.623	1498.901	1501.832	-2.626	-2.382	0.260	0.766	6.048	-7.120
25484.283	NaN	2.728	7.478	-4.804	1511.355	1499.634	1501.099	-2.550	-2.443	0.290	0.612	6.048	-7.120
25485.260	NaN	2.728	7.467	-4.804	1508.425	1498.901	1499.634	-2.336	-2.565	0.229	0.612	6.048	-7.120
25486.237	NaN	2.728	7.478	-4.804	1511.355	1499.634	1500.366	-2.534	-2.504	0.153	0.536	6.048	-7.043
25487.213	NaN	2.728	7.478	-4.783	1510.623	1499.634	1501.099	-2.550	-2.382	0.458	0.689	6.124	-7.196
25488.190	NaN	2.728	7.489	-4.783	1509.890	1500.366	1501.099	-2.473	-2.366	0.534	0.766	6.048	-7.273
25489.166	NaN	2.717	7.478	-4.783	1510.623	1500.366	1499.634	-2.443	-2.366	0.641	0.536	6.124	-7.196
25490.143	NaN	2.717	7.478	-4.793	1509.890	1500.366	1500.366	-2.611	-2.321	0.565	0.536	6.124	-7.196
25491.119	NaN	2.717	7.478	-4.793	1510.623	1500.366	1501.099	-2.580	-2.351	0.458	0.612	6.124	-7.120
25492.096	NaN	2.728	7.478	-4.793	1510.623	1499.634	1500.366	-2.473	-2.504	0.412	0.689	6.124	-7.273
25493.073	3736844375.415	2.728	7.467	-4.804	1509.890	1499.634	1501.099	-2.473	-2.565	0.321	0.612	6.124	-7.273
25494.049	NaN	2.728	7.489	-4.804	1510.623	1499.634	1500.366	-2.443	-2.550	0.305	0.689	6.278	-7.196
25495.026	NaN	2.717	7.489	-4.815	1510.623	1498.901	1501.099	-2.351	-2.504	0.336	0.689	6.124	-7.120
25496.002	NaN	2.739	7.489	-4.793	1509.890	1499.634	1499.634	-2.504	-2.489	0.336	0.689	6.048	-6.967
25496.979	NaN	2.717	7.478	-4.783	1509.158	1499.634	1501.832	-2.473	-2.504	0.260	0.612	6.124	-7.120
25497.955	NaN	2.728	7.478	-4.793	1510.623	1499.634	1497.436	-2.382	-2.595	0.198	0.689	6.201	-7.273
25498.932	NaN	2.707	7.467	-4.804	1510.623	1499.634	1500.366	-2.305	-2.656	0.153	0.536	4.976	-7.273
25499.908	NaN	2.707	7.478	-4.815	1511.355	1500.366	1499.634	-2.504	-2.641	0.397	0.612	6.048	-7.120
25500.885	NaN	2.707	7.457	-4.815	1510.623	1499.634	1501.099	-2.641	-2.595	0.473	0.689	6.201	-7.273
25501.862	NaN	2.696	7.467	-4.815	1511.355	1499.634	1500.366	-2.565	-2.626	0.321	0.536	6.201	-7.120
25502.838	NaN	2.696	7.457	-4.804	1510.623	1498.901	1500.366	-2.626	-2.641	0.321	0.612	5.971	-7.196
25503.815	NaN	2.696	7.467	-4.804	1512.088	1499.634	1501.832	-2.580	-2.718	0.382	0.459	5.971	-6.967
25504.791	NaN	2.717	7.489	-4.793	1511.355	1500.366	1500.366	-2.489	-2.779	0.305	0.612	6.048	-7.120
25505.768	NaN	2.717	7.478	-4.793	1510.623	1499.634	1500.366	-2.260	-2.565	0.244	0.612	6.278	-6.967
25506.744	NaN	2.707	7.478	-4.793	1509.158	1499.634	1501.099	-2.458	-2.656	0.260	0.612	6.201	-7.273
25507.721	NaN	2.717	7.478	-4.783	1509.890	1500.366	1498.901	-2.718	-2.702	0.382	0.612	6.048	-7.120
25508.698	NaN	2.717	7.478	-4.793	1509.890	1500.366	1500.366	-2.931	-2.580	0.382	0.536	6.201	-7.043
25509.674	NaN	2.717	7.467	-4.804	1510.623	1498.168	1498.901	-2.687	-2.458	0.366	0.536	6.048	-7.349
25510.651	NaN	2.728	7.467	-4.804	1509.890	1498.168	1499.634	-2.504	-2.779	0.336	0.689	6.124	-7.120
25511.627	NaN	2.728	7.467	-4.793	1509.890	1499.634	1501.099	-2.611	-2.763	0.290	0.612	6.124	-7.120
25512.604	NaN	2.717	7.467	-4.804	1509.890	1499.634	1500.366	-2.519	-2.672	0.443	0.689	6.124	-7.120
25513.580	NaN	2.728	7.467	-4.793	1510.623	1499.634	1501.099	-2.519	-2.595	0.534	0.689	6.124	-7.120
25514.557	NaN	2.717	7.457	-4.772	1509.890	1499.634	1499.634	-2.412	-2.443	0.336	0.689	6.278	-7.273
25515.533	NaN	2.707	7.467	-4.772	1510.623	1499.634	1501.099	-2.519	-2.611	0.366	0.689	6.048	-7.120
25516.510	NaN	2.707	7.457	-4.761	1509.158	1499.634	1501.099	-2.733	-2.687	0.382	0.612	6.048	-7.120
25517.487	NaN	2.707	7.467	-4.761	1509.890	1498.901	1500.366	-2.641	-2.763	0.336	0.536	6.201	-7.196
25518.463	NaN	2.707	7.467	-4.761	1508.425	1498.168	1500.366	-2.794	-2.733	0.260	0.612	6.048	-7.196
25519.440	NaN	2.717	7.467	-4.772	1510.623	1500.366	1500.366	-2.901	-2.565	0.305	0.689	6.048	-7.043
25520.416	NaN	2.728	7.467	-4.783	1510.623	1499.634	1501.832	-2.672	-2.641	0.489	0.612	6.048	-7.196
25521.393	NaN	2.717	7.467	-4.793	1509.890	1500.366	1499.634	-2.641	-2.779	0.275	0.612	6.124	-7.120
25522.369	NaN	2.728	7.478	-4.783	1511.355	1499.634	1501.832	-2.824	-2.794	0.076	0.689	6.048	-7.273
25523.346	NaN	2.717	7.478	-4.783	1509.890	1500.366	1500.366	-2.718	-2.718	0.168	0.536	6.124	-7.120
25524.323	NaN	2.707	7.467	-4.772	1511.355	1500.366	1500.366	-2.595	-2.595	0.260	0.689	6.124	-7.349
25525.299	NaN	2.717	7.467	-4.772	1509.890	1498.901	1500.366	-2.504	-2.473	0.443	0.459	5.971	-7.120
25526.276	NaN	2.717	7.467	-4.783	1510.623	1500.366	1498.168	-2.626	-2.656	0.305	0.459	6.201	-7.120
25527.252	NaN	2.717	7.457	-4.783	1510.623	1499.634	1498.901	-2.763	-2.794	0.137	0.536	6.124	-7.043
25528.229	NaN	2.717	7.467	-4.783	1511.355	1500.366	1498.901	-2.779	-2.641	0.168	0.536	6.048	-7.120
25529.205	NaN	2.707	7.467	-4.783	1509.158	1499.634	1499.634	-2.824	-2.534	0.489	0.536	6.201	-7.120
25530.182	NaN	2.696	7.457	-4.804	1511.355	1499.634	1500.366	-2.733	-2.595	0.565	0.766	5.971	-7.120
25531.158	NaN	2.696	7.467	-4.804	1511.355	1499.634	1501.832	-2.687	-2.687	0.641	0.612	7.349	-7.196
25532.135	NaN	2.696	7.467	-4.793	1511.355	1499.634	1501.832	-2.641	-2.779	0.565	0.536	6.124	-7.120
25533.112	NaN	2.707	7.478	-4.804	1509.890	1500.366	1500.366	-2.626	-2.718	0.473	0.766	6.124	-7.196
25534.088	NaN	2.707	7.478	-4.804	1510.623	1499.634	1501.099	-2.687	-2.611	0.290	0.689	6.048	-7.043
25535.065	NaN	2.696	7.467	-4.804	1510.623	1498.168	1501.099	-2.824	-2.504	0.427	0.612	6.048	-7.273
25536.041	NaN	2.707	7.478	-4.793	1510.623	1501.099	1499.634	-2.718	-2.580	0.290	0.689	6.048	-7.043
25537.018	NaN	2.707	7.467	-4.783	1509.890	1501.099	1498.901	-2.412	-2.687	0.122	0.536	6.201	-7.043
25537.994	NaN	2.696	7.467	-4.804	1509.890	1499.634	1501.099	-2.473	-2.656	0.168	0.459	6.048	-7.043
25538.971	NaN	2.707	7.467	-4.804	1509.890	1500.366	1498.901	-2.626	-2.641	0.351	0.459	6.278	-7.196
25539.948	NaN	2.707	7.467	-4.793	1511.355	1500.366	1500.366	-2.641	-2.733	0.489	0.459	6.201	-7.273
25540.924	NaN	2.717	7.457	-4.793	1511.355	1499.634	1501.832	-2.565	-2.656	0.565	0.612	6.124	-7.043
25541.901	NaN	2.707	7.467	-4.793	1510.623	1500.366	1500.366	-2.672	-2.611	0.458	0.459	6.124	-7.273
25542.877	NaN	2.696	7.457	-4.804	1509.890	1500.366	1498.901	-3.023	-2.595	0.351	0.612	6.048	-7.043
25543.854	NaN	2.696	7.457	-4.804	1510.623	1498.901	1499.634	-2.977	-2.702	0.504	0.536	6.048	-7.043
25544.830	NaN	2.707	7.467	-4.793	1510.623	1499.634	1501.099	-2.794	-2.824	0.534	0.459	6.048	-7.196
25545.807	NaN	2.707	7.467	-4.783	1509.890	1500.366	1500.366	-2.885	-2.702	0.412	0.689	6.048	-7.273
25546.783	NaN	2.707	7.467	-4.772	1509.890	1499.634	1501.099	-2.947	-2.656	0.336	0.612	6.048	-7.120
25547.760	NaN	2.707	7.467	-4.772	1509.890	1500.366	1500.366	-2.809	-2.687	0.397	0.536	6.124	-7.273
25548.737	NaN	2.707	7.467	-4.783	1509.890	1500.366	1498.901	-2.809	-2.626	0.351	0.612	6.201	-7.120
25549.713	NaN	2.707	7.467	-4.761	1511.355	1500.366	1499.634	-2.870	-2.748	0.305	0.612	6.048	-7.043
25550.690	NaN	2.707	7.467	-4.772	1509.890	1499.634	1501.832	-2.794	-2.931	0.534	0.612	6.124	-7.120
25551.666	NaN	2.696	7.478	-4.783	1510.623	1499.634	1501.099	-2.763	-2.733	0.702	0.459	6.124	-7.120
25552.643	NaN	2.696	7.478	-4.783	1509.158	1499.634	1499.634	-2.504	-2.427	0.656	0.536	6.124	-7.196
25553.619	NaN	2.696	7.489	-4.772	1509.158	1498.901	1499.634	-2.809	-2.290	0.550	0.536	6.124	-7.196
25554.596	NaN	2.707	7.478	-4.772	1509.890	1499.634	1501.099	-2.947	-2.443	0.473	0.536	6.124	-7.120
25555.573	NaN	2.707	7.478	-4.772	1510.623	1500.366	1499.634	-2.794	-2.519	0.321	0.612	6.201	-7.120
25556.549	NaN	2.717	7.467	-4.793	1510.623	1499.634	1501.832	-2.840	-2.611	0.504	0.612	6.124	-7.196
25557.526	NaN	2.707	7.478	-4.815	1511.355	1499.634	1500.366	-2.763	-2.718	0.580	0.612	6.201	-7.043
25558.502	NaN	2.707	7.489	-4.804	1511.355	1499.634	1501.832	-2.550	-2.687	0.580	0.612	6.201	-7.120
25559.479	NaN	2.707	7.500	-4.804	1510.623	1499.634	1499.634	-2.473	-2.702	0.412	0.612	6.124	-7.196
25560.455	NaN	2.707	7.478	-4.804	1510.623	1499.634	1501.099	-2.779	-2.763	0.489	0.459	6.048	-7.120
25561.432	NaN	2.717	7.478	-4.793	1509.890	1499.634	1500.366	-3.008	-2.672	0.595	0.536	6.124	-7.196
25562.408	NaN	2.717	7.489	-4.793	1510.623	1499.634	1501.099	-2.855	-2.733	0.550	0.536	6.048	-7.120
25563.385	NaN	2.728	7.478	-4.783	1511.355	1499.634	1501.099	-2.550	-2.763	0.382	0.536	6.124	-7.196
25564.362	NaN	2.717	7.489	-4.772	1511.355	1499.634	1501.832	-2.626	-2.595	0.443	0.536	6.124	-7.196
25565.338	NaN	2.717	7.489	-4.783	1511.355	1498.901	1501.099	-2.977	-2.458	0.489	0.383	6.124	-7.043
25566.315	NaN	2.707	7.478	-4.804	1509.890	1499.634	1500.366	-2.901	-2.473	0.473	0.766	6.278	-7.196
25567.291	NaN	2.707	7.478	-4.793	1511.355	1500.366	1500.366	-2.656	-2.672	0.412	0.612	6.124	-7.120
25568.268	NaN	2.707	7.489	-4.793	1510.623	1499.634	1501.099	-2.626	-2.611	0.534	0.612	6.124	-6.890
25569.244	NaN	2.707	7.467	-4.793	1510.623	1499.634	1501.099	-2.626	-2.504	0.626	0.536	6.124	-7.120
25570.221	NaN	2.696	7.467	-4.783	1510.623	1499.634	1501.099	-2.534	-2.794	0.626	0.612	6.124	-7.120
25571.198	NaN	2.696	7.467	-4.783	1510.623	1499.634	1501.099	-2.718	-2.809	0.489	0.536	6.278	-7.196
25572.174	NaN	2.707	7.478	-4.772	1510.623	1500.366	1499.634	-2.687	-2.580	0.580	0.612	6.124	-7.273
25573.151	NaN	2.707	7.467	-4.772	1511.355	1498.901	1502.564	-2.595	-2.443	0.672	0.536	6.124	-7.120
25574.127	NaN	2.707	7.478	-4.783	1511.355	1498.901	1501.099	-2.763	-2.473	0.733	0.612	5.971	-7.196
25575.104	NaN	2.707	7.478	-4.804	1511.355	1499.634	1500.366	-2.855	-2.641	0.824	0.689	6.124	-7.273
25576.080	NaN	2.707	7.489	-4.804	1510.623	1499.634	1501.832	-2.718	-2.763	0.733	0.612	6.124	-7.120
25577.057	NaN	2.707	7.478	-4.804	1510.623	1499.634	1500.366	-2.626	-2.672	0.550	0.536	7.349	-7.196
25578.033	NaN	2.707	7.489	-4.793	1510.623	1498.901	1498.901	-2.870	-2.550	0.260	0.766	6.201	-7.043
25579.010	NaN	2.707	7.489	-4.772	1509.890	1498.901	1500.366	-2.809	-2.427	0.443	0.536	6.124	-7.120
25579.987	NaN	2.707	7.500	-4.793	1509.890	1500.366	1498.168	-2.656	-2.702	0.656	0.536	6.201	-7.196
25580.963	NaN	2.707	7.489	-4.783	1509.890	1499.634	1502.564	-2.687	-2.718	0.580	0.612	6.048	-7.043
25581.940	NaN	2.707	7.489	-4.783	1510.623	1500.366	1501.099	-2.626	-2.702	0.580	0.689	6.124	-7.196
25582.916	NaN	2.707	7.500	-4.783	1510.623	1499.634	1501.099	-2.916	-2.733	0.611	0.459	6.201	-7.273
25583.893	NaN	2.696	7.489	-4.804	1509.158	1499.634	1499.634	-2.748	-2.458	0.779	0.536	6.124	-7.273
25584.869	NaN	2.685	7.478	-4.815	1511.355	1499.634	1501.099	-2.641	-2.382	0.855	0.612	6.201	-7.196
25585.846	NaN	2.696	7.489	-4.804	1511.355	1499.634	1499.634	-2.641	-2.718	0.855	0.536	6.201	-7.196
25586.823	NaN	2.696	7.489	-4.804	1511.355	1499.634	1500.366	-2.550	-2.855	0.901	0.612	6.201	-7.196
25587.799	NaN	2.696	7.489	-4.804	1509.890	1500.366	1499.634	-2.580	-2.748	0.718	0.536	6.048	-7.120
25588.776	NaN	2.696	7.489	-4.815	1509.890	1498.901	1501.099	-2.702	-2.733	0.519	0.689	6.278	-7.120
25589.752	NaN	2.707	7.489	-4.804	1510.623	1499.634	1499.634	-2.855	-2.733	0.672	0.459	6.048	-7.273
25590.729	NaN	2.707	7.500	-4.815	1511.355	1499.634	1501.099	-2.885	-2.580	0.641	0.536	6.124	-7.196
25591.705	NaN	2.707	7.500	-4.815	1509.890	1499.634	1501.832	-2.855	-2.473	0.550	0.612	6.124	-7.196
25592.682	NaN	2.696	7.489	-4.815	1512.088	1498.901	1500.366	-2.840	-2.626	0.550	0.536	6.201	-7.196
25593.658	NaN	2.707	7.500	-4.815	1511.355	1500.366	1499.634	-2.824	-2.702	0.611	0.689	6.124	-7.196
25594.635	NaN	2.707	7.489	-4.804	1510.623	1500.366	1500.366	-2.687	-2.779	0.779	0.536	6.201	-7.196
25595.612	NaN	2.696	7.489	-4.804	1510.623	1499.634	1500.366	-2.824	-2.702	0.748	0.536	6.201	-7.196
25596.588	NaN	2.696	7.489	-4.804	1509.890	1499.634	1501.099	-2.916	-2.626	0.702	0.612	6.124	-7.196
25597.565	NaN	2.685	7.489	-4.804	1509.890	1499.634	1500.366	-3.130	-2.611	0.748	0.689	5.971	-7.196
25598.541	NaN	2.685	7.478	-4.793	1511.355	1500.366	1500.366	-3.023	-2.489	0.794	0.536	6.124	-7.196
25599.518	NaN	2.685	7.478	-4.793	1510.623	1499.634	1501.099	-2.824	-2.351	0.733	0.459	6.048	-7.273
25600.494	NaN	2.696	7.489	-4.783	1509.890	1499.634	1500.366	-3.084	-2.366	0.840	0.459	6.124	-7.120
25601.471	NaN	2.685	7.478	-4.793	1510.623	1499.634	1501.099	-3.237	-2.443	0.763	0.536	6.201	-7.120
25602.448	NaN	2.685	7.478	-4.804	1509.890	1499.634	1498.901	-3.252	-2.672	0.702	0.459	6.201	-7.120
25603.424	NaN	2.696	7.478	-4.793	1509.890	1498.901	1499.634	-2.855	-2.489	0.748	0.536	6.201	-7.120
25604.401	NaN	2.696	7.478	-4.804	1509.890	1499.634	1500.366	-2.550	-2.351	0.733	0.536	6.048	-7.120
25605.377	NaN	2.696	7.478	-4.793	1509.158	1498.168	1500.366	-2.748	-2.397	0.656	0.612	6.201	-7.120
25606.354	NaN	2.707	7.478	-4.793	1510.623	1498.901	1500.366	-3.130	-2.458	0.656	0.612	6.201	-7.043
25607.330	NaN	2.707	7.478	-4.793	1510.623	1498.901	1500.366	-3.252	-2.580	0.733	0.612	6.124	-7.196
25608.307	NaN	2.707	7.467	-4.793	1509.890	1498.901	1498.901	-2.809	-2.504	0.779	0.612	6.124	-7.120
25609.283	NaN	2.707	7.478	-4.783	1510.623	1499.634	1500.366	-2.641	-2.397	0.916	0.612	6.124	-7.196
25610.260	NaN	2.707	7.467	-4.783	1509.890	1500.366	1498.901	-2.733	-2.412	0.885	0.689	6.124	-7.120
25611.237	NaN	2.696	7.467	-4.783	1508.425	1498.901	1499.634	-2.840	-2.580	0.779	0.536	6.124	-7.196
25612.213	NaN	2.696	7.478	-4.793	1509.158	1498.901	1499.634	-3.176	-2.427	0.885	0.612	6.124	-7.120
25613.190	NaN	2.707	7.489	-4.783	1510.623	1499.634	1500.366	-2.748	-2.275	0.901	0.612	6.048	-7.043
25614.166	NaN	2.696	7.478	-4.804	1509.890	1499.634	1501.099	-2.504	-2.137	0.855	0.612	6.124	-7.349
25615.143	NaN	2.685	7.489	-4.815	1509.158	1498.901	1500.366	-2.489	-2.260	0.855	0.689	6.201	-7.120
25616.119	NaN	2.685	7.489	-4.804	1509.890	1500.366	1500.366	-2.672	-2.595	1.023	0.612	6.278	-7.196
25617.096	NaN	2.674	7.478	-4.815	1509.158	1498.901	1499.634	-2.733	-2.427	1.099	0.536	6.124	-7.120
25618.073	NaN	2.696	7.489	-4.804	1509.890	1500.366	1500.366	-2.885	-2.260	0.977	0.536	6.048	-7.043
25619.049	NaN	2.696	7.489	-4.804	1509.890	1499.634	1501.099	-2.824	-2.275	0.916	0.383	6.124	-7.196
25620.026	NaN	2.696	7.489	-4.815	1509.890	1498.901	1498.901	-2.718	-2.366	0.855	0.612	6.048	-7.120
25621.002	NaN	2.717	7.489	-4.804	1510.623	1499.634	1500.366	-2.809	-2.198	0.992	0.612	6.124	-7.043
25621.979	NaN	2.696	7.478	-4.815	1510.623	1498.901	1500.366	-2.885	-2.321	0.901	0.612	6.124	-7.196
25622.955	NaN	2.707	7.489	-4.804	1510.623	1498.901	1501.099	-2.809	-2.366	0.962	0.536	6.048	-7.043
25623.932	NaN	2.696	7.478	-4.804	1510.623	1499.634	1500.366	-2.809	-2.366	1.038	0.536	6.124	-7.196
25624.908	NaN	2.696	7.500	-4.793	1509.890	1498.901	1500.366	-2.870	-2.229	0.947	0.536	6.048	-7.120
25625.885	NaN	2.696	7.500	-4.793	1510.623	1499.634	1501.832	-2.748	-2.168	0.977	0.536	5.971	-7.120
25626.862	NaN	2.696	7.500	-4.804	1510.623	1499.634	1501.099	-2.733	-2.092	1.099	0.612	6.124	-7.120
25627.838	NaN	2.696	7.489	-4.804	1509.158	1499.634	1500.366	-2.718	-2.183	1.038	0.612	6.201	-7.120
25628.815	NaN	2.696	7.489	-4.804	1511.355	1499.634	1498.901	-2.672	-2.351	1.267	0.612	6.048	-7.120
25629.791	NaN	2.707	7.478	-4.804	1512.088	1500.366	1500.366	-2.672	-2.351	1.069	0.536	6.201	-7.043
25630.768	NaN	2.707	7.489	-4.804	1510.623	1499.634	1500.366	-2.794	-2.153	1.023	0.536	6.124	-7.120
25631.744	NaN	2.696	7.489	-4.793	1510.623	1500.366	1499.634	-2.824	-2.305	1.023	0.536	6.201	-7.120
25632.721	NaN	2.696	7.478	-4.783	1509.890	1499.634	1502.564	-2.901	-2.412	1.099	0.689	6.201	-7.349
25633.698	NaN	2.685	7.478	-4.793	1511.355	1499.634	1501.832	-2.855	-2.565	1.130	0.612	6.124	-7.196
25634.674	NaN	2.685	7.489	-4.783	1511.355	1499.634	1499.634	-2.748	-2.397	1.160	0.612	6.124	-6.124
25635.651	NaN	2.685	7.489	-4.772	1510.623	1499.634	1499.634	-2.580	-2.260	1.145	0.612	6.201	-7.043
25636.627	3736844375.529	2.685	7.478	-4.783	1509.890	1500.366	1499.634	-2.550	-2.290	1.008	0.689	6.201	-7.273
25637.604	NaN	2.685	7.467	-4.793	1510.623	1500.366	1499.634	-2.580	-2.351	1.130	0.459	6.048	-7.196
25638.580	NaN	2.696	7.478	-4.783	1509.890	1500.366	1500.366	-2.504	-2.198	1.191	0.459	6.124	-7.043
25639.557	NaN	2.685	7.467	-4.783	1509.890	1499.634	1498.901	-2.702	-2.076	1.252	0.689	6.124	-7.196
25640.533	NaN	2.696	7.467	-4.772	1510.623	1498.901	1500.366	-2.794	-2.046	1.298	0.459	5.971	-7.120
25641.510	NaN	2.696	7.467	-4.772	1511.355	1498.901	1500.366	-2.779	-2.076	1.344	0.612	6.201	-7.196
25642.487	NaN	2.685	7.489	-4.793	1511.355	1499.634	1499.634	-2.687	-2.244	1.237	0.612	6.201	-7.273
25643.463	NaN	2.685	7.478	-4.793	1510.623	1499.634	1501.099	-2.687	-2.153	1.252	0.612	6.124	-7.120
25644.440	NaN	2.685	7.489	-4.783	1509.890	1499.634	1500.366	-2.504	-2.046	1.298	0.612	6.124	-7.273
25645.416	NaN	2.685	7.478	-4.793	1509.890	1500.366	1499.634	-2.473	-2.214	1.191	0.612	6.048	-7.196
25646.393	NaN	2.696	7.489	-4.793	1510.623	1500.366	1501.099	-2.687	-2.275	1.252	0.612	6.048	-7.043
25647.369	NaN	2.696	7.489	-4.804	1511.355	1501.099	1501.099	-2.962	-2.076	1.298	0.536	6.048	-7.043
25648.346	NaN	2.707	7.489	-4.783	1511.355	1500.366	1500.366	-2.840	-1.954	1.435	0.612	7.273	-7.120
25649.323	NaN	2.696	7.478	-4.783	1509.890	1500.366	1498.901	-2.641	-1.969	1.344	0.536	6.124	-7.043
25650.299	NaN	2.707	7.478	-4.793	1509.890	1499.634	1501.099	-2.733	-2.183	1.389	0.459	6.124	-7.196
25651.276	NaN	2.696	7.467	-4.793	1511.355	1498.901	1500.366	-2.824	-2.275	1.298	0.536	6.124	-7.196
25652.252	NaN	2.685	7.457	-4.804	1509.158	1499.634	1500.366	-2.870	-2.153	1.359	0.612	6.124	-7.273
25653.229	NaN	2.685	7.467	-4.804	1510.623	1498.168	1499.634	-2.672	-2.168	1.344	0.689	6.124	-7.120
25654.205	NaN	2.685	7.467	-4.804	1509.890	1498.168	1501.099	-2.763	-2.092	1.679	0.689	6.124	-7.120
25655.182	NaN	2.685	7.467	-4.783	1509.158	1498.901	1501.099	-2.656	-2.122	1.771	0.536	6.048	-7.120
25656.158	NaN	2.685	7.467	-4.793	1511.355	1500.366	1500.366	-2.565	-2.061	1.588	0.536	6.201	-7.043
25657.135	NaN	2.685	7.467	-4.793	1509.158	1499.634	1501.099	-2.687	-1.924	1.344	0.612	6.201	-7.120
25658.112	NaN	2.685	7.478	-4.793	1510.623	1499.634	1500.366	-2.840	-1.939	1.405	0.536	6.201	-7.120
25659.088	NaN	2.696	7.478	-4.783	1508.425	1498.901	1500.366	-2.794	-2.031	1.573	0.612	6.048	-7.120
25660.065	NaN	2.696	7.489	-4.804	1510.623	1499.634	1501.099	-2.656	-2.061	1.450	0.766	6.201	-7.120
25661.041	NaN	2.696	7.489	-4.793	1510.623	1500.366	1501.099	-2.763	-2.046	1.450	0.536	6.201	-7.196
25662.018	NaN	2.696	7.489	-4.793	1511.355	1499.634	1501.832	-2.656	-1.893	1.573	0.536	6.201	-7.196
25662.994	NaN	2.696	7.489	-4.793	1511.355	1499.634	1499.634	-2.504	-1.817	1.496	0.612	6.201	-6.967
25663.971	NaN	2.685	7.489	-4.793	1510.623	1499.634	1500.366	-2.382	-1.847	1.557	0.689	6.048	-7.043
25664.948	NaN	2.685	7.489	-4.804	1510.623	1499.634	1500.366	-2.489	-1.832	1.679	0.689	6.201	-7.196
25665.924	NaN	2.685	7.500	-4.783	1511.355	1499.634	1501.099	-2.687	-1.771	1.664	0.536	6.124	-7.196
25666.901	NaN	2.685	7.500	-4.783	1510.623	1499.634	1500.366	-2.794	-1.786	1.588	0.459	6.201	-6.890
25667.877	NaN	2.696	7.489	-4.804	1510.623	1499.634	1501.832	-2.702	-1.893	1.618	0.536	6.201	-7.120
25668.854	NaN	2.696	7.489	-4.804	1509.890	1498.901	1500.366	-2.443	-1.969	1.557	0.536	6.201	-7.043
25669.830	NaN	2.685	7.500	-4.804	1512.088	1499.634	1501.832	-2.550	-1.908	1.817	0.459	6.048	-7.120
25670.807	NaN	2.685	7.500	-4.793	1510.623	1500.366	1499.634	-2.305	-1.695	1.847	0.612	6.124	-7.196
25671.783	NaN	2.685	7.500	-4.804	1510.623	1499.634	1501.099	-2.580	-1.939	1.679	0.612	6.201	-7.196
25672.760	NaN	2.685	7.489	-4.804	1510.623	1499.634	1500.366	-2.519	-1.908	1.756	0.689	6.278	-7.043
25673.737	NaN	2.674	7.500	-4.815	1510.623	1499.634	1501.099	-2.626	-1.679	1.710	0.536	6.278	-7.043
25674.713	NaN	2.674	7.489	-4.815	1510.623	1498.901	1499.634	-2.458	-1.634	1.710	0.766	6.124	-7.120
25675.690	NaN	2.696	7.500	-4.804	1509.890	1498.901	1499.634	-2.290	-1.679	1.786	0.536	6.201	-7.043
25676.666	NaN	2.696	7.489	-4.793	1510.623	1500.366	1500.366	-2.550	-1.893	1.893	0.536	6.124	-7.196
25677.643	NaN	2.674	7.489	-4.804	1509.890	1499.634	1500.366	-2.763	-1.893	1.603	0.689	6.124	-7.196
25678.619	NaN	2.674	7.478	-4.793	1509.890	1498.901	1500.366	-2.611	-1.878	1.511	0.612	6.201	-7.196
25679.596	NaN	2.696	7.489	-4.793	1509.890	1499.634	1501.099	-2.626	-1.756	1.649	0.459	6.048	-7.120
25680.573	NaN	2.685	7.478	-4.804	1510.623	1500.366	1499.634	-2.656	-1.634	1.695	0.536	6.048	-7.043
25681.549	NaN	2.685	7.489	-4.793	1510.623	1498.168	1501.832	-2.427	-1.740	1.695	0.612	6.048	-7.196
25682.526	NaN	2.685	7.489	-4.815	1511.355	1499.634	1500.366	-2.351	-2.046	1.634	0.536	6.124	-7.120
25683.502	NaN	2.685	7.489	-4.804	1510.623	1499.634	1501.832	-2.656	-1.786	1.725	0.459	6.201	-7.120
25684.479	NaN	2.685	7.478	-4.815	1509.890	1499.634	1500.366	-2.672	-1.725	1.893	0.612	6.278	-7.120
25685.455	NaN	2.685	7.500	-4.826	1509.158	1498.901	1499.634	-2.443	-1.756	1.969	0.459	6.048	-7.196
25686.432	NaN	2.696	7.489	-4.804	1510.623	1498.901	1500.366	-2.229	-1.847	1.954	0.536	6.201	-7.120
25687.408	NaN	2.696	7.489	-4.815	1511.355	1498.901	1501.099	-2.290	-1.740	1.725	0.536	6.124	-7.120
25688.385	NaN	2.696	7.489	-4.793	1511.355	1500.366	1500.366	-2.412	-1.679	1.908	0.536	6.048	-7.120
25689.362	NaN	2.685	7.489	-4.793	1509.890	1499.634	1501.099	-2.427	-1.603	2.137	0.689	6.048	-7.043
25690.338	NaN	2.685	7.489	-4.783	1509.890	1499.634	1498.901	-2.412	-1.588	2.107	0.459	6.048	-7.120
25691.315	NaN	2.685	7.478	-4.793	1510.623	1499.634	1500.366	-2.504	-1.634	1.939	0.612	6.048	-7.043
25692.291	NaN	2.696	7.489	-4.804	1511.355	1500.366	1499.634	-2.565	-1.634	1.756	0.536	6.124	-6.967
25693.268	NaN	2.707	7.489	-4.804	1511.355	1499.634	1501.099	-2.473	-1.908	1.832	0.612	6.201	-7.273
25694.244	NaN	2.696	7.489	-4.804	1509.890	1498.901	1500.366	-2.672	-2.015	1.878	0.766	6.124	-6.967
25695.221	NaN	2.685	7.489	-4.804	1509.890	1500.366	1498.901	-2.672	-1.878	1.924	0.536	6.124	-7.043
25696.198	NaN	2.685	7.489	-4.815	1509.158	1499.634	1501.832	-2.473	-1.817	1.878	0.612	6.048	-7.273
25697.174	NaN	2.685	7.489	-4.815	1512.088	1500.366	1498.901	-2.427	-1.710	1.893	0.536	6.201	-7.273
25698.151	NaN	2.674	7.478	-4.815	1509.890	1499.634	1500.366	-2.718	-1.618	2.000	0.536	6.048	-7.043
25699.127	NaN	2.674	7.478	-4.815	1510.623	1499.634	1500.366	-2.779	-1.588	1.954	0.689	6.124	-7.120
25700.104	NaN	2.674	7.478	-4.815	1510.623	1498.901	1499.634	-2.687	-1.756	2.031	0.536	6.124	-7.120
25701.080	NaN	2.674	7.489	-4.815	1511.355	1499.634	1501.099	-2.718	-1.908	2.076	0.612	6.278	-7.196
25702.057	NaN	2.674	7.489	-4.815	1510.623	1498.901	1500.366	-2.626	-1.771	2.168	0.536	6.124	-7.043
25703.033	NaN	2.685	7.511	-4.793	1509.890	1499.634	1500.366	-2.641	-1.847	1.924	0.459	6.201	-7.043
25704.010	NaN	2.696	7.500	-4.804	1510.623	1499.634	1499.634	-2.611	-1.832	1.878	0.536	6.124	-7.196
25704.987	NaN	2.696	7.500	-4.804	1509.890	1500.366	1498.901	-2.489	-1.527	1.939	0.536	6.354	-7.120
25705.963	NaN	2.696	7.500	-4.804	1508.425	1500.366	1499.634	-2.427	-1.466	2.183	0.766	6.048	-7.196
25706.940	NaN	2.696	7.489	-4.804	1510.623	1499.634	1501.099	-2.443	-1.481	2.351	0.536	6.124	-7.196
25707.916	NaN	2.685	7.500	-4.815	1510.623	1499.634	1501.099	-2.519	-1.496	2.229	0.459	6.124	-7.120
25708.893	NaN	2.685	7.500	-4.815	1509.158	1498.168	1498.901	-2.718	-1.511	2.046	0.536	6.124	-7.120
25709.869	NaN	2.696	7.500	-4.804	1510.623	1500.366	1500.366	-2.550	-1.542	2.015	0.459	6.201	-7.196
25710.846	NaN	2.685	7.500	-4.804	1509.890	1500.366	1501.099	-2.382	-1.542	2.122	0.383	6.048	-7.120
25711.823	NaN	2.696	7.489	-4.815	1510.623	1499.634	1501.832	-2.229	-1.481	2.229	0.689	6.278	-7.043
25712.799	NaN	2.696	7.489	-4.815	1510.623	1498.901	1500.366	-2.214	-1.588	2.351	0.612	6.201	-7.120
25713.776	NaN	2.696	7.489	-4.804	1510.623	1500.366	1499.634	-2.382	-1.603	2.305	0.536	6.124	-7.273
25714.752	NaN	2.696	7.500	-4.804	1511.355	1500.366	1500.366	-2.443	-1.649	2.229	0.536	6.124	-7.273
25715.729	NaN	2.685	7.500	-4.793	1510.623	1499.634	1500.366	-2.504	-1.588	2.168	0.612	6.201	-7.120
25716.705	NaN	2.685	7.500	-4.804	1509.158	1499.634	1500.366	-2.473	-1.435	2.229	0.536	6.124	-7.043
25717.682	NaN	2.674	7.489	-4.804	1509.890	1500.366	1498.168	-2.336	-1.511	2.382	0.689	6.124	-7.120
25718.658	NaN	2.696	7.489	-4.804	1510.623	1498.901	1498.168	-2.198	-1.374	2.336	0.612	6.048	-7.196
25719.635	NaN	2.707	7.500	-4.793	1509.890	1498.901	1501.099	-2.504	-1.191	2.198	0.612	6.124	-7.043
25720.612	NaN	2.707	7.500	-4.793	1511.355	1499.634	1500.366	-2.580	-1.221	2.214	0.536	6.124	-7.273
25721.588	NaN	2.717	7.500	-4.783	1510.623	1499.634	1501.099	-2.595	-1.237	2.153	0.536	6.048	-7.120
25722.565	NaN	2.707	7.500	-4.804	1511.355	1498.901	1500.366	-2.504	-1.328	2.260	0.536	6.124	-7.120
25723.541	NaN	2.717	7.500	-4.793	1510.623	1500.366	1501.832	-2.290	-1.435	2.244	0.536	6.201	-7.043
25724.518	NaN	2.707	7.511	-4.804	1510.623	1499.634	1501.099	-2.168	-1.420	2.260	0.459	6.124	-7.120
25725.494	NaN	2.707	7.511	-4.804	1509.158	1499.634	1500.366	-2.244	-1.405	2.382	0.612	6.201	-6.967
25726.471	NaN	2.696	7.500	-4.804	1509.890	1498.168	1500.366	-2.290	-1.298	2.321	0.536	6.201	-7.196
25727.448	NaN	2.707	7.500	-4.804	1509.158	1499.634	1499.634	-2.580	-1.328	2.336	0.689	6.124	-7.120
25728.424	NaN	2.707	7.500	-4.793	1510.623	1499.634	1500.366	-2.550	-1.603	2.412	0.689	6.048	-7.043
25729.401	NaN	2.707	7.489	-4.793	1510.623	1498.901	1500.366	-2.458	-1.359	2.260	0.612	6.201	-7.273
25730.377	NaN	2.696	7.500	-4.793	1511.355	1499.634	1500.366	-2.321	-1.298	2.198	0.689	6.201	-7.043
25731.354	NaN	2.696	7.500	-4.793	1510.623	1498.901	1500.366	-2.122	-1.221	2.443	0.612	6.124	-7.120
25732.330	NaN	2.707	7.489	-4.793	1509.890	1501.099	1501.099	-2.244	-1.160	2.458	0.689	6.048	-7.196
25733.307	NaN	2.707	7.478	-4.804	1509.890	1500.366	1499.634	-2.473	-1.221	2.275	0.536	7.273	-7.196
25734.283	NaN	2.707	7.489	-4.815	1509.890	1498.901	1498.901	-2.534	-1.282	2.397	0.536	6.124	-7.043
25735.260	NaN	2.717	7.489	-4.804	1510.623	1498.901	1501.099	-2.443	-1.221	2.366	0.612	6.124	-7.120
25736.237	NaN	2.696	7.500	-4.804	1510.623	1498.901	1498.901	-2.290	-1.221	2.489	0.459	6.124	-7.120
25737.213	NaN	2.707	7.511	-4.793	1509.158	1498.901	1499.634	-2.290	-1.267	2.412	0.536	6.124	-7.273
25738.190	NaN	2.707	7.489	-4.793	1510.623	1499.634	1499.634	-2.412	-1.206	2.351	0.612	6.048	-7.273
25739.166	NaN	2.707	7.500	-4.793	1508.425	1498.901	1500.366	-2.290	-1.099	2.351	0.536	6.124	-7.043
25740.143	NaN	2.717	7.489	-4.793	1510.623	1498.168	1501.099	-2.046	-1.191	2.473	0.689	6.124	-7.196
25741.119	NaN	2.728	7.500	-4.793	1510.623	1500.366	1501.099	-2.046	-1.191	2.702	0.536	5.971	-6.890
25742.096	NaN	2.728	7.500	-4.793	1510.623	1499.634	1501.099	-2.015	-1.160	2.611	0.612	6.201	-6.967
25743.073	NaN	2.728	7.500	-4.804	1510.623	1499.634	1501.099	-2.336	-1.221	2.351	0.612	6.278	-7.120
25744.049	NaN	2.728	7.489	-4.804	1509.890	1498.901	1500.366	-2.611	-1.359	2.412	0.536	6.048	-7.196
25745.026	NaN	2.728	7.489	-4.815	1509.890	1499.634	1501.099	-2.550	-1.328	2.366	0.612	6.201	-7.196
25746.002	NaN	2.728	7.478	-4.804	1509.158	1498.901	1501.099	-2.534	-1.160	2.443	0.536	6.278	-6.967
25746.979	NaN	2.717	7.478	-4.815	1509.890	1498.901	1499.634	-2.504	-1.160	2.534	0.689	6.124	-7.043
25747.955	NaN	2.717	7.489	-4.815	1510.623	1499.634	1498.901	-2.519	-1.237	2.473	0.612	6.048	-7.043
25748.932	NaN	2.696	7.478	-4.815	1509.890	1498.901	1500.366	-2.153	-1.206	2.489	0.536	6.201	-7.196
25749.908	NaN	2.707	7.500	-4.804	1510.623	1499.634	1501.099	-2.229	-1.160	2.382	0.612	6.048	-7.043
25750.885	NaN	2.696	7.500	-4.804	1511.355	1499.634	1501.099	-2.366	-1.115	2.229	0.536	6.048	-7.043
25751.862	NaN	2.685	7.500	-4.804	1511.355	1499.634	1501.099	-2.397	-1.130	2.458	0.612	6.124	-7.196
25752.838	NaN	2.685	7.500	-4.804	1510.623	1498.901	1500.366	-2.183	-1.206	2.641	0.536	6.124	-7.273
25753.815	NaN	2.685	7.489	-4.815	1510.623	1499.634	1498.168	-2.198	-1.328	2.580	0.689	6.124	-7.196
25754.791	NaN	2.696	7.489	-4.804	1509.890	1500.366	1500.366	-2.260	-1.588	2.519	0.536	6.201	-7.043
25755.768	NaN	2.707	7.500	-4.793	1509.158	1500.366	1498.901	-2.412	-1.664	2.443	0.612	6.201	-7.043
25756.744	NaN	2.707	7.478	-4.783	1510.623	1499.634	1503.297	-2.412	-1.405	2.489	0.612	6.124	-7.273
25757.721	NaN	2.707	7.478	-4.772	1509.890	1499.634	1501.099	-2.366	-1.191	2.565	0.612	6.048	-7.120
25758.698	NaN	2.696	7.478	-4.793	1509.890	1500.366	1499.634	-2.183	-1.130	2.626	0.689	6.124	-7.043
25759.674	NaN	2.707	7.478	-4.783	1511.355	1499.634	1501.832	-2.076	-1.099	2.626	0.612	6.354	-7.043
25760.651	NaN	2.717	7.478	-4.783	1509.890	1500.366	1500.366	-2.198	-1.206	2.687	0.612	6.278	-6.967
25761.627	NaN	2.717	7.489	-4.783	1510.623	1499.634	1501.099	-2.214	-1.206	2.931	0.459	6.201	-7.196
25762.604	NaN	2.717	7.478	-4.783	1509.158	1498.901	1501.099	-2.260	-1.252	2.855	0.612	6.124	-7.196
25763.580	NaN	2.728	7.489	-4.772	1510.623	1499.634	1501.832	-2.061	-1.282	2.779	0.612	6.124	-7.196
25764.557	NaN	2.717	7.500	-4.783	1511.355	1499.634	1501.832	-2.046	-1.145	2.626	0.689	6.048	-7.120
25765.533	NaN	2.717	7.500	-4.793	1510.623	1499.634	1503.297	-2.214	-1.008	2.641	0.689	6.124	-7.043
25766.510	NaN	2.717	7.489	-4.793	1510.623	1499.634	1501.099	-2.321	-1.053	2.824	0.689	6.124	-7.120
25767.487	NaN	2.696	7.478	-4.793	1510.623	1498.901	1498.901	-2.275	-1.206	2.840	0.536	6.201	-7.196
25768.463	NaN	2.707	7.489	-4.783	1509.890	1498.901	1501.099	-2.122	-1.328	2.641	0.536	6.048	-7.120
25769.440	NaN	2.685	7.500	-4.793	1510.623	1500.366	1498.901	-2.229	-1.267	2.534	0.383	6.354	-7.043
25770.416	NaN	2.685	7.500	-4.804	1510.623	1498.901	1498.901	-2.336	-1.374	2.366	0.612	6.201	-7.196
25771.393	NaN	2.696	7.500	-4.804	1510.623	1498.901	1500.366	-2.260	-1.359	2.550	0.459	6.048	-7.120
25772.369	NaN	2.696	7.511	-4.826	1509.158	1499.634	1499.634	-2.290	-1.298	2.794	0.612	5.971	-7.043
25773.346	NaN	2.696	7.500	-4.826	1509.890	1498.168	1500.366	-1.985	-1.221	2.748	0.689	6.124	-7.120
25774.323	NaN	2.707	7.500	-4.815	1509.890	1500.366	1499.634	-1.710	-1.328	2.595	0.689	6.201	-7.043
25775.299	3736844375.642	2.707	7.489	-4.815	1510.623	1499.634	1500.366	-1.802	-1.420	2.504	0.612	6.048	-7.120
25776.276	NaN	2.707	7.489	-4.815	1510.623	1498.168	1499.634	-2.336	-1.450	2.595	0.612	6.124	-7.043
25777.252	NaN	2.717	7.489	-4.804	1509.890	1499.634	1499.634	-2.229	-1.237	2.580	0.612	6.048	-7.043
25778.229	NaN	2.707	7.478	-4.804	1509.890	1500.366	1499.634	-2.061	-1.160	2.412	0.536	6.124	-7.120
25779.205	NaN	2.717	7.478	-4.793	1509.890	1498.901	1501.832	-2.153	-1.176	2.473	0.459	4.976	-6.967
25780.182	NaN	2.717	7.489	-4.804	1510.623	1499.634	1500.366	-2.336	-1.191	2.672	0.536	6.048	-7.273
25781.158	NaN	2.717	7.489	-4.815	1509.890	1499.634	1501.099	-2.275	-1.237	2.779	0.689	6.124	-7.043
25782.135	NaN	2.707	7.489	-4.815	1510.623	1500.366	1498.901	-2.000	-1.282	2.779	0.459	6.201	-7.043
25783.112	NaN	2.728	7.500	-4.804	1510.623	1499.634	1501.099	-1.939	-1.252	2.702	0.536	6.124	-7.120
25784.088	NaN	2.717	7.500	-4.815	1510.623	1498.901	1500.366	-2.076	-1.237	2.779	0.689	6.124	-7.043
25785.065	NaN	2.717	7.500	-4.815	1509.890	1499.634	1500.366	-2.000	-1.267	2.824	0.612	5.971	-7.196
25786.041	NaN	2.728	7.511	-4.815	1511.355	1499.634	1500.366	-2.260	-1.252	2.748	0.612	6.124	-7.043
25787.018	NaN	2.717	7.489	-4.815	1509.890	1500.366	1500.366	-2.351	-1.191	2.779	0.536	6.124	-7.043
25787.994	NaN	2.717	7.500	-4.826	1510.623	1500.366	1499.634	-2.244	-1.099	2.916	0.459	6.124	-6.967
25788.971	NaN	2.707	7.478	-4.815	1510.623	1498.901	1501.832	-2.168	-1.206	2.702	0.459	6.201	-7.043
25789.948	NaN	2.707	7.489	-4.815	1511.355	1500.366	1499.634	-2.153	-1.145	2.534	0.612	6.124	-7.120
25790.924	NaN	2.707	7.489	-4.793	1510.623	1499.634	1501.832	-2.122	-1.252	2.672	0.612	6.201	-7.196
25791.901	NaN	2.707	7.489	-4.793	1510.623	1500.366	1500.366	-2.137	-1.374	2.763	0.612	6.201	-7.120
25792.877	NaN	2.717	7.489	-4.804	1510.623	1499.634	1501.099	-2.290	-1.313	2.733	0.612	6.201	-7.120
25793.854	NaN	2.717	7.489	-4.804	1510.623	1499.634	1499.634	-2.183	-1.221	2.718	0.536	6.201	-7.196
25794.830	NaN	2.707	7.489	-4.815	1509.890	1499.634	1500.366	-2.244	-1.176	2.611	0.766	6.048	-7.196
25795.807	NaN	2.696	7.500	-4.804	1511.355	1499.634	1499.634	-2.595	-1.252	2.504	0.612	6.124	-7.120
25796.783	NaN	2.685	7.489	-4.804	1509.890	1500.366	1500.366	-2.595	-1.405	2.656	0.459	6.124	-7.120
25797.760	NaN	2.696	7.489	-4.793	1511.355	1498.901	1501.099	-2.107	-1.511	2.702	0.612	6.048	-7.043
25798.737	NaN	2.696	7.478	-4.804	1511.355	1500.366	1500.366	-1.817	-1.313	2.565	0.459	6.278	-7.273
25799.713	NaN	2.696	7.478	-4.783	1511.355	1500.366	1500.366	-2.107	-1.038	2.473	0.459	6.124	-7.273
25800.690	NaN	2.696	7.467	-4.793	1510.623	1499.634	1500.366	-2.275	-1.053	2.504	0.536	6.201	-7.043
25801.666	NaN	2.707	7.478	-4.793	1511.355	1499.634	1500.366	-2.137	-1.389	2.733	0.689	6.124	-7.043
25802.643	NaN	2.707	7.489	-4.793	1510.623	1500.366	1499.634	-1.969	-1.405	2.672	0.612	6.124	-7.273
25803.619	NaN	2.717	7.500	-4.793	1510.623	1499.634	1501.099	-1.969	-1.298	2.550	0.536	6.124	-7.196
25804.596	NaN	2.717	7.500	-4.793	1510.623	1499.634	1501.832	-1.985	-1.237	2.580	0.612	6.124	-7.196
25805.573	NaN	2.717	7.500	-4.804	1510.623	1500.366	1499.634	-1.847	-1.282	2.672	0.612	6.124	-7.273
25806.549	NaN	2.717	7.489	-4.804	1511.355	1499.634	1501.099	-2.137	-1.359	2.855	0.689	6.201	-7.120
25807.526	NaN	2.707	7.478	-4.815	1510.623	1498.901	1501.099	-2.198	-1.420	2.901	0.459	6.048	-7.196
25808.502	NaN	2.717	7.489	-4.804	1510.623	1499.634	1501.099	-2.137	-1.435	2.855	0.689	6.201	-7.196
25809.479	NaN	2.707	7.478	-4.804	1509.890	1499.634	1500.366	-2.214	-1.221	2.977	0.612	6.278	-7.273
25810.455	NaN	2.707	7.478	-4.793	1509.890	1500.366	1498.168	-2.214	-1.145	2.794	0.536	6.278	-7.196
25811.432	NaN	2.717	7.489	-4.804	1509.890	1499.634	1499.634	-2.153	-1.206	2.702	0.612	6.278	-7.196
25812.408	NaN	2.707	7.489	-4.804	1509.158	1498.168	1501.099	-2.076	-1.267	2.763	0.766	6.201	-7.120
25813.385	NaN	2.707	7.489	-4.783	1509.158	1499.634	1500.366	-1.939	-1.359	2.718	0.612	6.201	-7.273
25814.362	NaN	2.717	7.489	-4.772	1511.355	1498.901	1500.366	-1.924	-1.420	2.672	0.689	6.201	-7.196
25815.338	NaN	2.707	7.489	-4.772	1510.623	1498.901	1501.099	-1.939	-1.389	2.672	0.536	6.048	-7.196
25816.315	NaN	2.707	7.478	-4.804	1511.355	1499.634	1499.634	-2.183	-1.420	2.611	0.766	6.048	-7.196
25817.291	NaN	2.707	7.478	-4.793	1511.355	1499.634	1502.564	-2.275	-1.374	2.641	0.612	6.124	-7.196
25818.268	NaN	2.707	7.489	-4.804	1511.355	1499.634	1501.832	-2.137	-1.389	2.656	0.536	6.201	-7.120
25819.244	NaN	2.707	7.500	-4.793	1510.623	1500.366	1499.634	-1.969	-1.389	2.611	0.536	6.124	-6.890
25820.221	NaN	2.707	7.489	-4.783	1509.890	1500.366	1500.366	-1.969	-1.420	2.565	0.766	6.124	-7.120
25821.198	NaN	2.717	7.478	-4.783	1511.355	1499.634	1499.634	-2.046	-1.496	2.550	0.689	6.201	-7.120
25822.174	NaN	2.717	7.478	-4.783	1511.355	1499.634	1500.366	-2.031	-1.359	2.412	0.689	6.124	-7.043
25823.151	NaN	2.728	7.478	-4.761	1510.623	1498.901	1500.366	-1.954	-1.206	2.504	0.689	6.124	-7.120
25824.127	NaN	2.717	7.478	-4.761	1510.623	1499.634	1500.366	-1.893	-1.282	2.656	0.612	6.124	-7.043
25825.104	NaN	2.717	7.478	-4.772	1511.355	1498.901	1501.099	-2.153	-1.466	2.809	0.612	6.201	-7.273
25826.080	NaN	2.717	7.478	-4.761	1511.355	1499.634	1500.366	-2.198	-1.496	2.595	0.689	6.048	-7.043
25827.057	NaN	2.717	7.478	-4.772	1510.623	1498.901	1501.832	-2.168	-1.344	2.611	0.689	6.124	-7.120
25828.033	NaN	2.717	7.478	-4.783	1511.355	1498.901	1501.099	-2.061	-1.313	2.779	0.536	6.124	-7.196
25829.010	NaN	2.717	7.478	-4.783	1510.623	1499.634	1501.099	-2.076	-1.344	2.763	0.766	6.048	-7.120
25829.987	NaN	2.717	7.478	-4.783	1511.355	1499.634	1500.366	-2.290	-1.420	2.687	0.766	6.124	-7.120
25830.963	NaN	2.717	7.489	-4.772	1511.355	1499.634	1500.366	-2.137	-1.389	2.779	0.612	6.201	-7.120
25831.940	NaN	2.717	7.489	-4.783	1509.890	1499.634	1498.901	-2.244	-1.420	2.824	0.689	6.124	-7.043
25832.916	NaN	2.728	7.489	-4.772	1510.623	1499.634	1501.099	-2.275	-1.450	2.824	0.689	6.124	-7.043
25833.893	NaN	2.717	7.489	-4.793	1510.623	1499.634	1501.099	-2.260	-1.405	2.855	0.612	6.048	-7.043
25834.869	NaN	2.717	7.489	-4.783	1511.355	1499.634	1501.099	-2.168	-1.420	2.779	0.536	6.048	-7.043
25835.846	NaN	2.717	7.489	-4.772	1510.623	1500.366	1499.634	-2.260	-1.557	2.763	0.612	6.124	-7.043
25836.823	NaN	2.728	7.478	-4.772	1510.623	1500.366	1500.366	-2.351	-1.634	2.763	0.536	6.124	-7.196
25837.799	NaN	2.728	7.478	-4.783	1509.890	1500.366	1501.099	-2.290	-1.420	2.489	0.612	6.048	-6.890
25838.776	NaN	2.717	7.478	-4.793	1509.890	1498.901	1500.366	-2.153	-1.252	2.565	0.689	6.048	-7.043
25839.752	NaN	2.739	7.478	-4.804	1509.890	1500.366	1501.832	-2.198	-1.252	2.672	0.536	6.278	-7.196
25840.729	NaN	2.728	7.478	-4.793	1510.623	1499.634	1501.832	-2.382	-1.481	2.885	0.612	6.124	-7.043
25841.705	NaN	2.728	7.478	-4.793	1511.355	1499.634	1501.832	-2.351	-1.496	2.840	0.689	6.124	-7.120
25842.682	NaN	2.717	7.478	-4.793	1510.623	1498.901	1501.099	-2.244	-1.298	2.840	0.536	6.201	-7.120
25843.658	NaN	2.717	7.478	-4.793	1511.355	1499.634	1501.832	-2.321	-1.344	2.794	0.536	6.201	-7.120
25844.635	NaN	2.717	7.478	-4.804	1510.623	1498.901	1499.634	-2.107	-1.527	2.656	0.612	6.124	-7.196
25845.612	NaN	2.728	7.467	-4.804	1509.890	1498.168	1501.099	-2.183	-1.542	2.794	0.689	6.201	-7.196
25846.588	NaN	2.728	7.489	-4.793	1510.623	1498.901	1500.366	-2.122	-1.481	2.855	0.612	6.124	-7.120
25847.565	NaN	2.728	7.478	-4.804	1509.158	1498.901	1500.366	-2.015	-1.298	2.962	0.612	6.201	-7.043
25848.541	NaN	2.739	7.500	-4.772	1509.890	1499.634	1500.366	-2.153	-1.435	2.763	0.536	6.201	-7.349
25849.518	NaN	2.728	7.489	-4.793	1508.425	1499.634	1500.366	-2.229	-1.511	2.718	0.612	6.201	-7.196
25850.494	NaN	2.728	7.489	-4.783	1510.623	1500.366	1498.901	-2.260	-1.557	2.595	0.689	6.124	-6.967
25851.471	NaN	2.717	7.478	-4.793	1511.355	1498.901	1501.832	-2.000	-1.389	2.656	0.536	6.278	-7.196
25852.448	NaN	2.728	7.478	-4.815	1511.355	1498.901	1501.099	-1.802	-1.450	2.748	0.689	6.278	-7.196
25853.424	NaN	2.728	7.478	-4.793	1510.623	1500.366	1499.634	-1.924	-1.649	2.595	0.612	6.048	-7.043
25854.401	NaN	2.728	7.478	-4.793	1510.623	1500.366	1498.901	-2.076	-1.710	2.656	0.536	6.201	-7.120
25855.377	NaN	2.728	7.467	-4.793	1509.890	1499.634	1501.832	-2.214	-1.756	2.550	0.612	6.124	-7.120
25856.354	NaN	2.717	7.489	-4.815	1510.623	1498.901	1500.366	-2.046	-1.588	2.626	0.612	5.971	-7.273
25857.330	NaN	2.717	7.500	-4.793	1511.355	1499.634	1501.832	-2.015	-1.527	2.794	0.459	6.124	-7.196
25858.307	NaN	2.717	7.489	-4.804	1510.623	1499.634	1499.634	-2.290	-1.634	2.885	0.689	6.124	-7.196
25859.283	NaN	2.717	7.489	-4.804	1510.623	1499.634	1500.366	-2.336	-1.740	2.748	0.689	6.201	-7.273
25860.260	NaN	2.717	7.489	-4.804	1510.623	1500.366	1499.634	-2.214	-1.740	2.611	0.612	6.048	-6.967
25861.237	NaN	2.717	7.478	-4.804	1510.623	1499.634	1501.832	-2.153	-1.588	2.489	0.689	6.124	-7.120
25862.213	NaN	2.717	7.489	-4.793	1510.623	1500.366	1501.099	-2.229	-1.725	2.382	0.689	6.124	-7.196
25863.190	NaN	2.707	7.478	-4.804	1509.890	1499.634	1499.634	-2.107	-1.847	2.412	0.689	6.124	-7.120
25864.166	NaN	2.717	7.478	-4.804	1509.890	1498.901	1499.634	-2.153	-1.679	2.382	0.689	4.976	-7.196
25865.143	NaN	2.717	7.478	-4.793	1509.890	1499.634	1501.099	-2.015	-1.710	2.443	0.612	6.124	-7.043
25866.119	NaN	2.728	7.478	-4.783	1510.623	1499.634	1501.832	-2.198	-1.740	2.580	0.612	6.124	-7.120
25867.096	NaN	2.739	7.478	-4.772	1510.623	1500.366	1500.366	-2.214	-1.832	2.611	0.459	6.124	-7.196
25868.073	NaN	2.739	7.489	-4.783	1510.623	1499.634	1500.366	-2.092	-1.710	2.427	0.689	6.124	-7.196
25869.049	NaN	2.728	7.489	-4.783	1510.623	1499.634	1500.366	-2.122	-1.893	2.260	0.612	6.048	-7.273
25870.026	NaN	2.728	7.489	-4.783	1509.158	1500.366	1498.901	-1.878	-1.969	2.443	0.689	6.201	-7.120
25871.002	NaN	2.728	7.478	-4.783	1509.890	1500.366	1501.099	-2.092	-1.969	2.397	0.612	6.201	-7.043
25871.979	NaN	2.728	7.489	-4.772	1510.623	1499.634	1500.366	-2.183	-1.924	2.351	0.612	6.201	-7.120
25872.955	NaN	2.728	7.478	-4.793	1512.088	1499.634	1500.366	-2.214	-1.771	2.626	0.689	6.124	-7.120
25873.932	NaN	2.728	7.467	-4.804	1509.890	1498.901	1500.366	-2.244	-1.832	2.656	0.612	6.048	-7.120
25874.908	NaN	2.728	7.478	-4.804	1510.623	1500.366	1499.634	-2.183	-1.710	2.458	0.536	6.201	-7.120
25875.885	NaN	2.728	7.467	-4.804	1510.623	1499.634	1501.832	-2.321	-1.710	2.489	0.689	6.201	-7.120
25876.862	NaN	2.728	7.478	-4.804	1510.623	1499.634	1500.366	-2.336	-1.954	2.641	0.689	6.201	-7.043
25877.838	NaN	2.717	7.489	-4.793	1510.623	1499.634	1500.366	-2.260	-2.092	2.504	0.689	6.048	-7.273
25878.815	NaN	2.707	7.478	-4.793	1511.355	1498.901	1499.634	-2.382	-2.107	2.290	0.459	6.124	-7.120
25879.791	NaN	2.717	7.467	-4.772	1512.088	1499.634	1501.099	-2.336	-1.969	2.641	0.536	6.048	-7.120
25880.768	NaN	2.728	7.467	-4.761	1511.355	1499.634	1501.099	-2.305	-1.969	2.672	0.536	6.124	-7.120
25881.744	NaN	2.717	7.467	-4.761	1509.890	1500.366	1500.366	-2.550	-2.122	2.595	0.766	6.124	-7.120
25882.721	NaN	2.717	7.467	-4.772	1510.623	1500.366	1499.634	-2.565	-2.046	2.519	0.612	6.201	-7.043
25883.698	NaN	2.717	7.457	-4.793	1511.355	1500.366	1500.366	-2.336	-1.863	2.489	0.612	6.124	-7.120
25884.674	NaN	2.728	7.467	-4.783	1509.890	1500.366	1499.634	-2.015	-1.832	2.382	0.689	6.201	-7.120
25885.651	NaN	2.728	7.467	-4.804	1511.355	1500.366	1501.099	-2.214	-2.000	2.412	0.689	6.124	-7.043
25886.627	NaN	2.728	7.478	-4.793	1510.623	1500.366	1499.634	-2.229	-2.183	2.427	0.536	6.124	-7.273
25887.604	NaN	2.717	7.467	-4.804	1509.158	1499.634	1500.366	-2.290	-2.244	2.519	0.459	6.048	-7.043
25888.580	NaN	2.728	7.478	-4.793	1511.355	1500.366	1500.366	-2.427	-2.137	2.321	0.612	6.048	-7.043
25889.557	3736844375.803	2.728	7.478	-4.793	1509.890	1499.634	1500.366	-2.122	-2.275	2.336	0.612	6.124	-7.120
25890.533	NaN	2.717	7.467	-4.804	1510.623	1499.634	1501.099	-1.939	-2.031	2.519	0.536	6.124	-7.196
25891.510	NaN	2.707	7.467	-4.793	1509.158	1498.901	1500.366	-2.076	-1.954	2.489	0.536	6.124	-7.043
25892.487	NaN	2.728	7.478	-4.793	1509.890	1498.901	1500.366	-2.260	-2.168	2.412	0.536	6.278	-7.273
25893.463	NaN	2.728	7.478	-4.804	1511.355	1500.366	1499.634	-2.397	-2.244	2.550	0.612	6.048	-7.273
25894.440	NaN	2.717	7.478	-4.826	1510.623	1499.634	1499.634	-2.443	-2.107	2.595	0.689	6.048	-7.120
25895.416	NaN	2.717	7.478	-4.804	1510.623	1499.634	1498.901	-2.260	-2.046	2.656	0.612	6.048	-7.120
25896.393	NaN	2.717	7.478	-4.804	1510.623	1499.634	1501.099	-2.122	-2.229	2.565	0.689	6.048	-7.120
25897.369	NaN	2.717	7.478	-4.804	1509.158	1498.168	1500.366	-2.092	-2.214	2.336	0.689	5.971	-7.196
25898.346	NaN	2.728	7.489	-4.804	1509.890	1500.366	1501.099	-2.153	-2.260	2.198	0.612	6.048	-7.120
25899.323	NaN	2.728	7.489	-4.815	1510.623	1499.634	1501.832	-2.122	-2.122	2.366	0.612	6.124	-7.043
25900.299	NaN	2.728	7.489	-4.815	1509.890	1498.168	1500.366	-2.183	-2.137	2.427	0.689	6.048	-7.043
25901.276	NaN	2.728	7.489	-4.815	1511.355	1500.366	1500.366	-2.458	-2.305	2.260	0.766	6.048	-7.196
25902.252	NaN	2.728	7.489	-4.804	1509.890	1498.901	1501.099	-2.305	-2.443	2.183	0.612	6.048	-6.967
25903.229	NaN	2.739	7.489	-4.804	1511.355	1500.366	1500.366	-2.122	-2.321	2.198	0.612	7.273	-7.043
25904.205	NaN	2.728	7.489	-4.804	1511.355	1498.901	1499.634	-2.153	-2.336	2.366	0.612	6.124	-7.120
25905.182	NaN	2.739	7.489	-4.804	1509.158	1498.168	1500.366	-2.168	-2.412	2.244	0.689	6.048	-7.120
25906.158	NaN	2.728	7.489	-4.804	1511.355	1500.366	1501.099	-2.321	-2.458	2.107	0.612	6.124	-7.043
25907.135	NaN	2.717	7.478	-4.826	1509.890	1498.901	1500.366	-2.351	-2.443	2.092	0.689	6.124	-7.196
25908.112	NaN	2.739	7.500	-4.815	1510.623	1499.634	1500.366	-2.290	-2.260	2.153	0.536	6.124	-7.196
25909.088	NaN	2.739	7.489	-4.815	1509.890	1499.634	1500.366	-1.954	-2.183	2.305	0.689	6.278	-7.043
25910.065	NaN	2.728	7.500	-4.804	1509.158	1499.634	1500.366	-1.985	-2.290	2.275	0.612	6.124	-6.967
25911.041	NaN	2.728	7.489	-4.804	1510.623	1499.634	1500.366	-2.382	-2.473	2.244	0.536	6.048	-7.043
25912.018	NaN	2.739	7.489	-4.793	1509.890	1499.634	1501.832	-2.504	-2.443	2.351	0.612	6.124	-7.043
25912.994	NaN	2.717	7.489	-4.793	1510.623	1501.099	1500.366	-2.351	-2.336	2.321	0.612	6.124	-7.043
25913.971	NaN	2.717	7.467	-4.783	1510.623	1499.634	1500.366	-2.214	-2.290	2.260	0.612	6.124	-7.120
25914.948	NaN	2.717	7.467	-4.804	1510.623	1500.366	1498.901	-2.092	-2.534	2.305	0.612	6.124	-7.043
25915.924	NaN	2.728	7.478	-4.783	1511.355	1499.634	1501.832	-2.000	-2.489	2.229	0.689	6.124	-7.043
25916.901	NaN	2.728	7.478	-4.783	1511.355	1498.901	1500.366	-2.122	-2.458	2.214	0.459	6.124	-7.120
25917.877	NaN	2.728	7.489	-4.793	1510.623	1499.634	1499.634	-2.229	-2.641	2.244	0.612	6.124	-7.120
25918.854	NaN	2.728	7.489	-4.783	1510.623	1498.901	1500.366	-2.534	-2.672	2.198	0.536	6.048	-7.043
25919.830	NaN	2.739	7.489	-4.783	1511.355	1500.366	1499.634	-2.321	-2.565	1.985	0.689	6.048	-7.043
25920.807	NaN	2.728	7.489	-4.783	1510.623	1499.634	1501.099	-2.092	-2.443	2.107	0.536	6.124	-7.196
25921.783	NaN	2.728	7.489	-4.772	1509.890	1499.634	1501.832	-2.153	-2.489	2.290	0.689	6.124	-7.196
25922.760	NaN	2.728	7.489	-4.793	1510.623	1499.634	1500.366	-2.244	-2.565	2.275	0.612	6.124	-7.273
25923.737	NaN	2.728	7.489	-4.793	1512.088	1499.634	1500.366	-2.260	-2.550	2.137	0.689	6.201	-7.196
25924.713	NaN	2.739	7.489	-4.783	1510.623	1499.634	1501.832	-2.366	-2.687	2.153	0.536	6.124	-6.890
25925.690	NaN	2.739	7.500	-4.793	1510.623	1499.634	1500.366	-2.351	-2.534	2.153	0.459	6.048	-7.196
25926.666	NaN	2.739	7.489	-4.783	1510.623	1498.901	1499.634	-2.321	-2.473	2.061	0.689	6.201	-7.120
25927.643	NaN	2.728	7.478	-4.783	1510.623	1499.634	1501.099	-2.229	-2.611	2.092	0.689	6.048	-7.196
25928.619	NaN	2.739	7.489	-4.783	1509.890	1500.366	1501.099	-2.351	-2.626	2.107	0.612	6.201	-7.196
25929.596	NaN	2.739	7.467	-4.772	1509.890	1499.634	1501.099	-2.321	-2.580	2.031	0.612	6.048	-7.043
25930.573	NaN	2.739	7.467	-4.772	1510.623	1498.901	1501.099	-2.458	-2.489	2.198	0.536	6.048	-7.043
25931.549	NaN	2.739	7.467	-4.772	1509.890	1499.634	1501.832	-2.366	-2.611	2.336	0.612	6.048	-7.196
25935.455	NaN	2.717	7.489	-4.783	1510.623	1499.634	1501.099	-2.550	-2.611	2.000	0.689	6.124	-7.120
25936.432	NaN	2.707	7.489	-4.772	1507.692	1499.634	1501.099	-2.763	-2.595	2.137	0.612	6.048	-7.120
25937.408	NaN	2.728	7.500	-4.783	1511.355	1499.634	1500.366	-2.687	-2.580	2.076	0.766	5.971	-7.349
25938.385	NaN	2.728	7.500	-4.772	1509.890	1500.366	1500.366	-2.290	-2.565	2.046	0.689	6.201	-7.120
25939.362	NaN	2.728	7.478	-4.772	1512.088	1499.634	1500.366	-2.382	-2.611	2.168	0.612	6.124	-7.120
25940.338	NaN	2.728	7.489	-4.793	1509.890	1499.634	1500.366	-2.443	-2.855	2.046	0.689	6.048	-7.043
25941.315	NaN	2.728	7.489	-4.804	1510.623	1498.901	1501.099	-2.611	-3.038	1.954	0.612	6.201	-7.043
25942.291	NaN	2.728	7.478	-4.783	1510.623	1500.366	1499.634	-2.443	-3.008	2.107	0.689	6.048	-7.120
25943.268	NaN	2.728	7.467	-4.783	1509.158	1499.634	1501.099	-2.366	-2.901	2.290	0.689	6.048	-6.967
25944.244	NaN	2.728	7.467	-4.793	1510.623	1499.634	1500.366	-2.427	-2.977	2.198	0.689	6.048	-7.196
25945.221	NaN	2.728	7.467	-4.793	1510.623	1499.634	1500.366	-2.534	-2.885	2.015	0.689	6.124	-7.120
25946.198	NaN	2.728	7.478	-4.804	1510.623	1500.366	1499.634	-2.809	-2.763	1.985	0.612	6.124	-7.120
25947.174	NaN	2.728	7.478	-4.793	1510.623	1499.634	1501.099	-2.687	-2.626	1.832	0.689	6.124	-7.196
25948.151	NaN	2.728	7.467	-4.783	1510.623	1499.634	1501.099	-2.519	-2.595	1.954	0.612	6.124	-7.120
25949.127	NaN	2.728	7.467	-4.783	1509.890	1499.634	1501.099	-2.336	-2.733	1.847	0.689	6.201	-7.120
25950.104	NaN	2.739	7.478	-4.783	1510.623	1499.634	1500.366	-2.382	-2.733	1.756	0.689	6.048	-7.273
25951.080	NaN	2.750	7.478	-4.772	1511.355	1499.634	1500.366	-2.641	-2.855	1.817	0.536	6.124	-7.120
25952.057	NaN	2.739	7.478	-4.783	1509.890	1499.634	1501.832	-2.672	-2.947	1.832	0.612	6.124	-7.196
25953.033	NaN	2.739	7.478	-4.783	1510.623	1499.634	1500.366	-2.779	-2.947	1.924	0.612	6.124	-7.120
25954.010	NaN	2.728	7.478	-4.793	1509.890	1500.366	1499.634	-2.595	-2.992	1.756	0.612	6.124	-7.120
25954.987	NaN	2.728	7.478	-4.793	1510.623	1499.634	1500.366	-2.550	-3.038	1.588	0.536	6.201	-7.120
25955.963	NaN	2.739	7.478	-4.793	1511.355	1499.634	1501.099	-2.519	-2.947	1.832	0.612	6.124	-7.120
25956.940	NaN	2.750	7.478	-4.793	1511.355	1499.634	1500.366	-2.580	-2.855	2.015	0.536	6.124	-7.196
25957.916	NaN	2.750	7.489	-4.793	1509.890	1499.634	1500.366	-2.656	-2.931	2.061	0.612	6.048	-7.120
25958.893	NaN	2.750	7.478	-4.804	1510.623	1499.634	1500.366	-2.733	-2.992	1.939	0.766	6.048	-7.120
25959.869	NaN	2.750	7.489	-4.804	1510.623	1500.366	1501.099	-2.550	-3.023	1.969	0.536	6.201	-7.273
25960.846	NaN	2.739	7.489	-4.804	1510.623	1500.366	1500.366	-2.321	-2.977	1.969	0.536	6.124	-7.196
25961.823	NaN	2.739	7.489	-4.793	1511.355	1498.901	1500.366	-2.443	-2.947	1.710	0.536	6.124	-7.120
25962.799	NaN	2.739	7.489	-4.793	1509.158	1499.634	1501.099	-2.550	-2.977	1.527	0.612	6.124	-7.120
25963.776	NaN	2.728	7.489	-4.793	1509.890	1498.168	1499.634	-2.595	-3.008	1.771	0.612	6.124	-7.196
25964.752	NaN	2.717	7.467	-4.783	1510.623	1500.366	1501.099	-2.519	-3.038	1.802	0.612	6.124	-7.120
25965.729	NaN	2.717	7.467	-4.783	1512.088	1499.634	1501.099	-2.473	-2.992	1.740	0.766	6.048	-7.196
25966.705	NaN	2.707	7.457	-4.804	1510.623	1500.366	1501.099	-2.443	-2.931	1.695	0.689	6.048	-7.043
25967.682	NaN	2.717	7.457	-4.793	1510.623	1500.366	1500.366	-2.260	-2.947	1.817	0.689	6.124	-7.196
25968.658	NaN	2.728	7.467	-4.804	1511.355	1500.366	1500.366	-2.366	-3.237	1.954	0.612	6.124	-7.196
25969.635	NaN	2.728	7.457	-4.815	1509.890	1499.634	1499.634	-2.565	-3.252	1.679	0.536	6.201	-7.273
25970.612	NaN	2.728	7.457	-4.793	1508.425	1498.901	1500.366	-2.733	-3.267	1.634	0.612	6.124	-7.196
25971.588	NaN	2.739	7.467	-4.783	1510.623	1499.634	1500.366	-2.779	-3.237	1.786	0.536	6.048	-7.196
25972.565	NaN	2.728	7.457	-4.783	1509.890	1498.901	1500.366	-2.840	-3.176	1.725	0.689	6.124	-7.120
25973.541	NaN	2.728	7.467	-4.772	1511.355	1498.901	1501.099	-2.763	-3.191	1.664	0.689	5.971	-6.967
25974.518	NaN	2.728	7.467	-4.783	1509.158	1500.366	1500.366	-2.565	-3.313	1.679	0.612	6.124	-7.196
25975.494	NaN	2.728	7.489	-4.772	1509.158	1498.168	1501.832	-2.519	-3.267	1.847	0.536	6.048	-7.043
25976.471	NaN	2.717	7.467	-4.783	1510.623	1499.634	1500.366	-2.809	-3.115	1.802	0.689	6.124	-7.120
25977.448	NaN	2.717	7.467	-4.793	1509.890	1498.901	1499.634	-2.748	-3.298	1.710	0.689	6.201	-7.120
25978.424	NaN	2.717	7.467	-4.793	1509.158	1498.901	1501.099	-2.702	-3.298	1.679	0.459	6.124	-6.967
25979.401	NaN	2.728	7.478	-4.783	1509.158	1498.901	1501.099	-2.611	-3.359	1.802	0.536	6.048	-7.273
25980.377	NaN	2.717	7.467	-4.783	1509.890	1499.634	1501.099	-2.550	-3.313	2.015	0.612	6.124	-7.196
25981.354	NaN	2.717	7.467	-4.793	1510.623	1498.168	1500.366	-2.534	-3.282	1.924	0.536	4.976	-7.196
25982.330	NaN	2.728	7.478	-4.793	1510.623	1500.366	1501.099	-2.504	-3.359	1.634	0.612	6.048	-7.196
25983.307	NaN	2.707	7.467	-4.804	1509.890	1499.634	1501.099	-2.702	-3.374	1.649	0.689	6.124	-7.349
25984.283	NaN	2.717	7.467	-4.804	1507.692	1498.901	1500.366	-2.840	-3.466	1.588	0.459	6.124	-7.196
25985.260	NaN	2.717	7.467	-4.793	1509.158	1498.901	1501.099	-2.824	-3.542	1.496	0.536	6.124	-7.043
25986.237	NaN	2.717	7.467	-4.804	1509.158	1499.634	1501.099	-2.458	-3.374	1.496	0.536	6.201	-7.196
25987.213	NaN	2.717	7.467	-4.804	1509.158	1499.634	1499.634	-2.504	-3.389	1.542	0.536	6.124	-7.273
25988.190	NaN	2.707	7.478	-4.804	1509.890	1498.168	1500.366	-2.733	-3.298	1.649	0.766	6.124	-7.120
25989.166	NaN	2.717	7.478	-4.793	1509.158	1498.901	1501.099	-2.840	-3.267	1.527	0.612	6.124	-7.196
25990.143	NaN	2.707	7.489	-4.783	1509.890	1498.901	1500.366	-2.931	-3.496	1.573	0.536	6.201	-7.196
25991.119	NaN	2.717	7.489	-4.772	1509.890	1501.099	1500.366	-2.794	-3.481	1.588	0.612	6.201	-7.120
25992.096	NaN	2.717	7.478	-4.772	1510.623	1498.901	1500.366	-2.855	-3.481	1.649	0.536	6.124	-7.273
25993.073	NaN	2.728	7.478	-4.761	1509.890	1498.901	1498.901	-2.748	-3.527	1.634	0.612	6.124	-7.196
25994.049	NaN	2.739	7.478	-4.761	1509.890	1498.901	1500.366	-2.763	-3.618	1.588	0.689	6.124	-7.120
25995.026	NaN	2.717	7.478	-4.783	1510.623	1500.366	1500.366	-2.550	-3.496	1.450	0.689	6.124	-7.120
25996.002	NaN	2.717	7.467	-4.793	1509.890	1499.634	1500.366	-2.534	-3.466	1.695	0.536	6.201	-7.043
25996.979	NaN	2.739	7.489	-4.772	1509.890	1499.634	1499.634	-2.656	-3.466	1.832	0.612	6.124	-7.349
25997.955	NaN	2.728	7.489	-4.783	1511.355	1499.634	1501.832	-2.626	-3.466	1.664	0.536	6.201	-7.196
25998.932	NaN	2.739	7.489	-4.783	1509.890	1498.901	1500.366	-2.336	-3.527	1.435	0.536	6.201	-7.196
25999.908	NaN	2.728	7.489	-4.783	1511.355	1499.634	1501.099	-2.382	-3.405	1.588	0.689	6.201	-7.043
26000.885	NaN	2.717	7.478	-4.793	1510.623	1498.168	1500.366	-2.550	-3.649	1.756	0.612	6.201	-7.196
26001.862	NaN	2.728	7.489	-4.783	1509.158	1498.901	1500.366	-2.550	-3.740	1.618	0.612	6.048	-6.967
26002.838	NaN	2.728	7.500	-4.793	1509.890	1499.634	1500.366	-2.718	-3.725	1.573	0.689	6.201	-6.967
26003.815	NaN	2.707	7.489	-4.793	1510.623	1498.168	1500.366	-2.763	-3.679	1.679	0.612	6.124	-7.196
26004.791	NaN	2.717	7.500	-4.772	1510.623	1499.634	1500.366	-2.672	-3.511	1.664	0.612	6.124	-6.967
26005.768	NaN	2.707	7.489	-4.783	1509.890	1499.634	1500.366	-2.611	-3.496	1.557	0.689	6.048	-7.043
26006.744	NaN	2.717	7.489	-4.772	1510.623	1499.634	1500.366	-2.519	-3.679	1.557	0.612	6.124	-7.043
26007.721	NaN	2.717	7.478	-4.783	1509.890	1499.634	1501.099	-2.718	-3.649	1.756	0.689	6.048	-7.196
26008.698	NaN	2.728	7.489	-4.793	1511.355	1500.366	1500.366	-2.947	-3.573	1.786	0.536	6.048	-7.043
26009.674	NaN	2.728	7.489	-4.783	1510.623	1500.366	1501.832	-2.794	-3.573	1.771	0.612	6.201	-7.043
26010.651	NaN	2.717	7.478	-4.793	1510.623	1499.634	1499.634	-2.641	-3.756	1.466	0.612	6.201	-7.196
26011.627	NaN	2.717	7.478	-4.772	1510.623	1499.634	1501.099	-2.504	-3.786	1.420	0.689	6.124	-6.967
26012.604	NaN	2.707	7.478	-4.783	1510.623	1499.634	1501.099	-2.595	-3.664	1.420	0.612	6.201	-7.120
26013.580	NaN	2.717	7.478	-4.783	1510.623	1499.634	1501.099	-2.840	-3.573	1.542	0.612	6.201	-7.120
26014.557	NaN	2.717	7.489	-4.783	1510.623	1499.634	1501.099	-2.901	-3.710	1.664	0.536	6.048	-7.196
26015.533	NaN	2.728	7.489	-4.793	1511.355	1498.901	1501.099	-2.824	-3.664	1.695	0.612	6.201	-7.043
26016.510	NaN	2.728	7.478	-4.793	1510.623	1498.901	1499.634	-2.763	-3.756	1.511	0.689	6.201	-7.120
26017.487	NaN	2.717	7.467	-4.793	1510.623	1498.901	1501.099	-2.550	-3.588	1.573	0.536	6.124	-7.120
26018.463	NaN	2.728	7.478	-4.783	1511.355	1500.366	1500.366	-2.305	-3.405	1.481	0.689	6.201	-7.043
26019.440	NaN	2.728	7.478	-4.783	1509.890	1500.366	1500.366	-2.382	-3.435	1.466	0.612	6.124	-7.273
26020.416	NaN	2.728	7.478	-4.793	1510.623	1499.634	1501.832	-2.687	-3.511	1.695	0.459	6.201	-7.120
26021.393	NaN	2.728	7.478	-4.804	1510.623	1500.366	1499.634	-2.794	-3.649	1.756	0.766	6.048	-7.196
26022.369	NaN	2.717	7.478	-4.804	1512.088	1499.634	1500.366	-2.702	-3.603	1.618	0.689	5.971	-7.043
26023.346	NaN	2.717	7.478	-4.793	1510.623	1499.634	1500.366	-2.626	-3.450	1.618	0.612	6.124	-7.120
26024.323	NaN	2.717	7.489	-4.783	1510.623	1498.901	1500.366	-2.824	-3.649	1.695	0.536	6.201	-7.196
26025.299	NaN	2.717	7.478	-4.783	1511.355	1499.634	1501.099	-2.947	-3.740	1.634	0.536	6.124	-7.043
26026.276	NaN	2.707	7.478	-4.793	1512.088	1499.634	1500.366	-2.733	-3.710	1.649	0.536	6.124	-7.043
26027.252	NaN	2.717	7.478	-4.793	1510.623	1500.366	1500.366	-2.748	-3.802	1.664	0.536	6.124	-7.120
26028.229	NaN	2.728	7.478	-4.783	1511.355	1499.634	1500.366	-2.931	-3.740	1.649	0.612	6.201	-7.196
26029.205	NaN	2.728	7.478	-4.772	1510.623	1499.634	1500.366	-2.718	-3.649	1.756	0.612	6.124	-7.273
26030.182	NaN	2.717	7.467	-4.772	1510.623	1499.634	1501.099	-2.672	-3.634	1.786	0.536	6.048	-7.120
26031.158	NaN	2.717	7.478	-4.772	1511.355	1499.634	1500.366	-2.733	-3.756	1.664	0.689	6.048	-7.349
26032.135	NaN	2.707	7.478	-4.793	1509.890	1498.168	1498.901	-2.916	-3.832	1.573	0.689	6.124	-6.890
26033.112	NaN	2.717	7.478	-4.793	1510.623	1499.634	1501.099	-2.840	-3.832	1.557	0.689	6.048	-7.273
26034.088	NaN	2.707	7.489	-4.804	1510.623	1499.634	1501.099	-2.626	-3.634	1.649	0.689	6.201	-7.043
26035.065	NaN	2.696	7.489	-4.815	1510.623	1499.634	1500.366	-2.565	-3.557	1.618	0.612	6.124	-7.120
26036.041	NaN	2.696	7.489	-4.804	1510.623	1498.168	1500.366	-2.656	-3.496	1.557	0.612	6.048	-7.120
26037.018	NaN	2.707	7.489	-4.804	1511.355	1499.634	1500.366	-2.718	-3.542	1.725	0.536	6.124	-7.196
26037.994	NaN	2.707	7.478	-4.793	1510.623	1499.634	1499.634	-2.809	-3.710	1.679	0.689	6.124	-7.196
26038.971	NaN	2.696	7.467	-4.783	1510.623	1498.901	1500.366	-2.885	-3.695	1.664	0.612	6.124	-7.120
26039.948	NaN	2.685	7.489	-4.793	1511.355	1500.366	1503.297	-2.931	-3.756	1.634	0.612	6.048	-7.120
26040.924	NaN	2.685	7.489	-4.772	1512.088	1499.634	1501.099	-2.687	-3.908	1.634	0.536	6.048	-7.120
26041.901	NaN	2.696	7.500	-4.783	1511.355	1499.634	1501.099	-2.489	-3.985	1.435	0.612	6.124	-7.120
26042.877	NaN	2.685	7.489	-4.783	1510.623	1499.634	1501.099	-2.565	-3.802	1.481	0.459	6.124	-7.043
26043.854	NaN	2.685	7.489	-4.793	1510.623	1499.634	1500.366	-2.870	-3.664	1.573	0.689	6.278	-7.120
26044.830	NaN	2.696	7.478	-4.793	1511.355	1499.634	1501.832	-2.687	-3.649	1.863	0.612	6.048	-7.120
26045.807	NaN	2.696	7.478	-4.815	1510.623	1500.366	1498.901	-2.794	-3.664	1.863	0.612	6.124	-7.043
26046.783	NaN	2.696	7.478	-4.815	1510.623	1498.901	1500.366	-2.824	-3.649	1.573	0.536	6.201	-7.196
26047.760	NaN	2.707	7.478	-4.793	1510.623	1498.901	1499.634	-2.809	-3.695	1.435	0.612	6.124	-7.043
26048.737	NaN	2.707	7.467	-4.793	1511.355	1500.366	1500.366	-2.580	-3.740	1.679	0.612	6.124	-7.120
26049.713	NaN	2.707	7.478	-4.793	1510.623	1500.366	1501.099	-2.672	-3.588	1.756	0.689	6.048	-7.196
26050.690	NaN	2.717	7.478	-4.793	1510.623	1499.634	1500.366	-2.794	-3.527	1.664	0.689	6.124	-7.196
26051.666	NaN	2.707	7.489	-4.793	1510.623	1498.901	1501.832	-2.763	-3.634	1.527	0.766	6.124	-7.120
26052.643	NaN	2.707	7.489	-4.793	1510.623	1499.634	1499.634	-2.916	-3.695	1.450	0.612	5.129	-7.196
26053.619	NaN	2.707	7.478	-4.804	1510.623	1498.901	1500.366	-2.870	-3.878	1.588	0.536	6.048	-7.120
26054.596	NaN	2.696	7.489	-4.793	1509.158	1498.901	1500.366	-2.748	-3.740	1.756	0.612	6.124	-7.120
26055.573	NaN	2.707	7.489	-4.783	1511.355	1499.634	1500.366	-2.733	-3.710	1.679	0.612	6.124	-7.120
26056.549	NaN	2.707	7.478	-4.804	1510.623	1499.634	1501.832	-2.947	-3.893	1.542	0.612	6.048	-7.120
26057.526	NaN	2.696	7.467	-4.815	1509.158	1498.168	1498.901	-2.824	-3.786	1.786	0.689	6.048	-6.967
26058.502	NaN	2.707	7.467	-4.804	1510.623	1499.634	1501.099	-2.855	-3.695	1.832	0.612	6.124	-7.120
26059.479	NaN	2.696	7.467	-4.815	1509.158	1500.366	1499.634	-2.687	-3.695	1.695	0.689	4.976	-7.043
26060.455	NaN	2.707	7.457	-4.815	1509.158	1499.634	1500.366	-2.672	-3.603	1.557	0.536	6.124	-7.120
26061.432	NaN	2.707	7.467	-4.793	1510.623	1500.366	1500.366	-2.763	-3.679	1.603	0.612	5.971	-7.196
26062.408	NaN	2.696	7.457	-4.793	1509.890	1499.634	1500.366	-2.840	-3.695	1.710	0.459	6.124	-7.120
26063.385	NaN	2.717	7.467	-4.783	1510.623	1500.366	1501.099	-2.977	-3.588	1.771	0.612	6.124	-7.120
26064.362	NaN	2.707	7.457	-4.793	1510.623	1499.634	1500.366	-2.901	-3.542	1.710	0.612	6.201	-7.120
26065.338	NaN	2.707	7.457	-4.793	1512.088	1499.634	1501.099	-2.748	-3.435	1.878	0.612	6.124	-7.196
26066.315	NaN	2.696	7.446	-4.815	1512.088	1499.634	1501.099	-2.794	-3.786	1.924	0.536	6.124	-7.196
26067.291	NaN	2.707	7.457	-4.804	1511.355	1500.366	1500.366	-2.718	-3.847	1.771	0.612	6.124	-7.120
26068.268	NaN	2.717	7.467	-4.815	1509.890	1499.634	1501.099	-2.702	-3.740	1.664	0.536	6.278	-6.967
26069.244	NaN	2.717	7.500	-4.804	1510.623	1498.168	1499.634	-2.779	-3.496	1.618	0.383	6.124	-7.196
26070.221	NaN	2.717	7.489	-4.804	1510.623	1498.901	1500.366	-2.718	-3.466	1.618	0.612	6.048	-7.196
26071.198	NaN	2.717	7.500	-4.815	1511.355	1499.634	1501.832	-2.779	-3.527	1.756	0.689	6.124	-7.273
26072.174	NaN	2.717	7.500	-4.793	1510.623	1500.366	1500.366	-2.916	-3.771	1.847	0.689	6.124	-7.196
26073.151	NaN	2.707	7.511	-4.793	1512.821	1499.634	1502.564	-2.855	-3.863	1.771	0.536	6.124	-7.120
26074.127	NaN	2.707	7.500	-4.783	1510.623	1499.634	1500.366	-2.748	-3.802	1.710	0.612	6.124	-7.196
26075.104	NaN	2.696	7.511	-4.793	1510.623	1498.901	1501.099	-2.962	-3.664	1.649	0.689	6.201	-7.043
26076.080	NaN	2.707	7.511	-4.783	1511.355	1499.634	1501.832	-2.794	-3.603	1.740	0.536	6.048	-7.196
26077.057	NaN	2.696	7.511	-4.804	1511.355	1500.366	1498.901	-2.733	-3.969	1.908	0.612	6.124	-7.196
26078.033	3736844375.969	2.707	7.500	-4.804	1509.890	1500.366	1500.366	-2.824	-4.015	1.786	0.536	6.124	-7.196
26079.010	NaN	2.717	7.500	-4.793	1510.623	1499.634	1499.634	-2.641	-3.863	1.847	0.459	6.124	-7.043
26079.987	NaN	2.717	7.489	-4.815	1511.355	1499.634	1501.099	-2.794	-3.710	1.817	0.612	6.124	-7.120
26080.963	NaN	2.728	7.489	-4.804	1510.623	1499.634	1501.099	-2.947	-3.542	1.588	0.612	6.048	-7.120
26081.940	NaN	2.728	7.489	-4.815	1509.890	1500.366	1500.366	-3.130	-3.511	1.618	0.689	6.201	-7.120
26082.916	NaN	2.717	7.489	-4.826	1510.623	1499.634	1498.901	-2.901	-3.603	1.802	0.612	6.124	-7.273
26083.893	NaN	2.707	7.478	-4.826	1509.158	1499.634	1500.366	-2.656	-3.679	1.863	0.612	6.201	-7.196
26084.869	NaN	2.707	7.489	-4.826	1510.623	1500.366	1499.634	-2.718	-3.939	1.893	0.612	6.124	-6.967
26085.846	NaN	2.707	7.478	-4.826	1509.890	1499.634	1499.634	-2.824	-4.015	1.832	0.612	6.124	-7.120
26086.823	NaN	2.707	7.489	-4.815	1509.890	1499.634	1500.366	-2.794	-3.771	1.786	0.536	6.278	-7.196
26087.799	NaN	2.707	7.478	-4.804	1509.890	1499.634	1501.099	-2.702	-3.588	1.756	0.459	6.124	-7.196
26088.776	NaN	2.696	7.467	-4.804	1511.355	1500.366	1500.366	-2.824	-3.557	1.695	0.459	6.124	-7.196
26089.752	NaN	2.696	7.467	-4.783	1510.623	1499.634	1501.099	-2.870	-3.756	1.924	0.536	5.971	-7.043
26090.729	NaN	2.696	7.467	-4.783	1509.890	1499.634	1501.099	-2.855	-3.832	1.908	0.536	6.048	-7.043
26091.705	NaN	2.685	7.478	-4.772	1510.623	1500.366	1500.366	-2.809	-3.771	2.061	0.459	6.201	-7.196
26092.682	NaN	2.685	7.478	-4.783	1511.355	1499.634	1501.099	-2.641	-3.573	2.153	0.612	6.124	-7.120
26093.658	NaN	2.696	7.489	-4.783	1510.623	1500.366	1499.634	-2.672	-3.511	2.168	0.459	6.124	-7.349
26094.635	NaN	2.696	7.478	-4.772	1512.088	1499.634	1501.099	-2.794	-3.603	2.015	0.612	6.201	-7.120
26095.612	NaN	2.707	7.478	-4.783	1510.623	1499.634	1500.366	-2.977	-3.740	1.695	0.536	6.201	-7.043
26096.588	NaN	2.707	7.489	-4.793	1509.890	1499.634	1500.366	-2.947	-3.542	1.527	0.536	6.201	-7.043
26097.565	NaN	2.696	7.478	-4.804	1510.623	1499.634	1500.366	-2.901	-3.511	1.908	0.536	6.048	-7.120
26098.541	NaN	2.717	7.489	-4.793	1510.623	1500.366	1500.366	-2.672	-3.740	2.061	0.612	6.048	-6.967
26099.518	NaN	2.717	7.478	-4.793	1510.623	1500.366	1499.634	-2.626	-3.740	2.061	0.612	6.201	-7.196
26100.494	NaN	2.717	7.478	-4.793	1510.623	1499.634	1501.099	-2.672	-3.649	2.137	0.536	6.124	-7.120
26101.471	NaN	2.707	7.478	-4.793	1509.158	1498.901	1500.366	-2.611	-3.603	2.046	0.459	6.201	-7.273
26102.448	NaN	2.707	7.489	-4.793	1509.890	1499.634	1500.366	-2.763	-3.588	1.878	0.766	6.201	-7.196
26103.424	NaN	2.717	7.500	-4.772	1510.623	1499.634	1500.366	-3.038	-3.679	2.000	0.612	6.124	-7.196
26104.401	NaN	2.707	7.489	-4.793	1509.890	1499.634	1499.634	-3.038	-3.481	2.198	0.459	5.971	-7.196
26105.377	NaN	2.707	7.489	-4.783	1509.158	1498.901	1500.366	-2.794	-3.573	2.275	0.689	6.124	-7.196
26106.354	NaN	2.696	7.478	-4.793	1509.890	1499.634	1501.099	-2.443	-3.634	2.122	0.612	6.124	-7.196
26107.330	NaN	2.707	7.478	-4.783	1510.623	1501.099	1500.366	-2.550	-3.420	1.908	0.459	6.124	-7.043
26108.307	NaN	2.707	7.478	-4.772	1511.355	1499.634	1499.634	-2.687	-3.542	1.847	0.459	6.201	-7.196
26109.283	NaN	2.707	7.478	-4.783	1509.890	1499.634	1499.634	-2.702	-3.725	2.046	0.536	6.201	-7.120
26110.260	NaN	2.707	7.478	-4.793	1510.623	1499.634	1501.832	-2.748	-3.771	2.061	0.612	6.124	-7.273
26111.237	NaN	2.717	7.489	-4.804	1511.355	1500.366	1500.366	-2.794	-3.588	2.031	0.536	6.048	-7.120
26112.213	NaN	2.717	7.500	-4.783	1510.623	1499.634	1501.099	-2.885	-3.664	1.985	0.612	6.278	-7.120
26113.190	NaN	2.707	7.511	-4.793	1511.355	1499.634	1501.099	-2.870	-3.557	2.015	0.612	6.124	-7.120
26114.166	NaN	2.696	7.500	-4.793	1510.623	1499.634	1501.832	-2.809	-3.588	2.092	0.536	6.201	-7.120
26115.143	NaN	2.685	7.500	-4.804	1508.425	1499.634	1500.366	-2.733	-3.618	2.046	0.536	6.048	-7.196
26116.119	NaN	2.696	7.511	-4.793	1509.890	1499.634	1501.832	-2.885	-3.878	2.137	0.536	6.124	-7.120
26117.096	NaN	2.696	7.489	-4.793	1509.890	1500.366	1500.366	-2.901	-3.908	2.137	0.536	6.124	-6.967
26118.073	NaN	2.696	7.500	-4.793	1511.355	1499.634	1500.366	-2.656	-3.573	2.076	0.766	6.201	-7.120
26119.049	NaN	2.696	7.489	-4.793	1509.158	1499.634	1500.366	-2.473	-3.420	2.122	0.612	6.124	-7.043
26120.026	NaN	2.696	7.489	-4.804	1510.623	1499.634	1501.099	-2.565	-3.435	2.107	0.612	6.124	-7.120
26121.002	NaN	2.707	7.489	-4.793	1510.623	1500.366	1500.366	-2.779	-3.511	1.893	0.536	6.048	-7.120
26121.979	NaN	2.696	7.489	-4.815	1511.355	1498.901	1500.366	-2.733	-3.435	2.046	0.536	6.201	-7.120
26122.955	NaN	2.707	7.489	-4.793	1510.623	1498.901	1500.366	-2.626	-3.405	2.260	0.536	6.124	-7.120
26123.932	NaN	2.707	7.500	-4.783	1510.623	1500.366	1499.634	-2.718	-3.420	2.214	0.612	6.048	-7.120
26124.908	NaN	2.717	7.489	-4.772	1510.623	1500.366	1500.366	-2.840	-3.527	2.214	0.612	6.278	-7.043
26125.885	NaN	2.717	7.500	-4.783	1510.623	1499.634	1501.099	-2.824	-3.511	2.412	0.612	6.201	-7.043
26126.862	NaN	2.707	7.489	-4.793	1511.355	1500.366	1501.099	-2.855	-3.603	2.260	0.536	6.201	-7.043
26127.838	NaN	2.707	7.489	-4.793	1509.890	1499.634	1501.099	-2.977	-3.542	2.000	0.536	6.048	-7.043
26128.815	NaN	2.696	7.489	-4.804	1510.623	1498.901	1500.366	-2.870	-3.496	1.969	0.459	6.201	-7.120
26129.791	NaN	2.696	7.500	-4.793	1511.355	1500.366	1500.366	-2.702	-3.344	2.000	0.383	6.201	-7.120
26130.768	NaN	2.696	7.489	-4.804	1510.623	1499.634	1499.634	-2.733	-3.206	1.969	0.689	6.201	-7.349
26131.744	NaN	2.707	7.478	-4.804	1511.355	1500.366	1500.366	-2.916	-3.221	2.275	0.612	6.124	-7.196
26132.721	NaN	2.685	7.478	-4.793	1509.890	1500.366	1500.366	-2.962	-3.420	2.382	0.459	6.124	-7.120
26133.698	NaN	2.685	7.478	-4.804	1511.355	1500.366	1499.634	-2.947	-3.374	2.366	0.459	6.048	-7.043
26134.674	NaN	2.685	7.478	-4.815	1510.623	1498.901	1500.366	-2.763	-3.145	2.458	0.536	6.124	-7.196
26135.651	NaN	2.707	7.500	-4.793	1509.890	1500.366	1500.366	-2.687	-3.481	2.366	0.612	6.124	-7.120
26136.627	NaN	2.696	7.489	-4.793	1510.623	1499.634	1501.832	-2.641	-3.557	2.336	0.536	6.124	-7.120
26137.604	NaN	2.685	7.489	-4.793	1510.623	1499.634	1500.366	-2.733	-3.374	2.260	0.459	7.349	-7.043
26138.580	NaN	2.707	7.500	-4.772	1510.623	1499.634	1500.366	-2.870	-3.282	2.214	0.536	6.124	-7.043
26139.557	NaN	2.717	7.500	-4.783	1511.355	1499.634	1501.099	-2.458	-3.221	2.290	0.536	6.048	-7.349
26140.533	NaN	2.707	7.511	-4.783	1511.355	1499.634	1500.366	-2.519	-3.160	2.366	0.612	6.124	-7.273
26141.510	NaN	2.707	7.511	-4.783	1510.623	1499.634	1500.366	-2.641	-3.206	2.489	0.536	6.048	-7.196
26142.487	NaN	2.707	7.500	-4.783	1510.623	1499.634	1501.099	-2.550	-3.267	2.595	0.689	6.048	-7.273
26143.463	NaN	2.707	7.500	-4.772	1510.623	1499.634	1501.099	-2.458	-3.237	2.534	0.612	6.048	-7.196
26144.440	NaN	2.707	7.489	-4.772	1511.355	1499.634	1502.564	-2.489	-3.389	2.458	0.689	4.976	-7.120
26145.416	NaN	2.696	7.489	-4.783	1510.623	1499.634	1501.832	-2.427	-3.206	2.366	0.536	6.124	-7.196
26146.393	NaN	2.696	7.500	-4.793	1510.623	1499.634	1501.099	-2.565	-3.176	2.321	0.689	6.048	-7.120
26147.369	NaN	2.696	7.500	-4.793	1511.355	1500.366	1500.366	-2.718	-3.206	2.244	0.612	6.048	-7.120
26148.346	NaN	2.696	7.511	-4.783	1510.623	1499.634	1502.564	-2.595	-3.389	2.504	0.689	6.124	-7.043
26149.323	NaN	2.696	7.500	-4.793	1511.355	1499.634	1501.099	-2.702	-3.359	2.534	0.536	6.124	-7.120
26150.299	NaN	2.685	7.489	-4.783	1508.425	1498.901	1500.366	-2.809	-3.191	2.626	0.612	6.048	-7.120
26151.276	NaN	2.685	7.489	-4.783	1510.623	1500.366	1499.634	-2.626	-3.252	2.473	0.536	6.201	-7.196
26152.252	NaN	2.696	7.478	-4.793	1509.158	1499.634	1499.634	-2.656	-3.130	2.397	0.536	6.278	-7.120
26153.229	NaN	2.696	7.478	-4.783	1509.890	1498.901	1500.366	-2.550	-3.237	2.550	0.612	6.124	-7.043
26154.205	NaN	2.696	7.489	-4.783	1510.623	1498.901	1501.099	-2.656	-3.267	2.641	0.536	6.201	-7.043
26155.182	NaN	2.696	7.500	-4.793	1510.623	1498.901	1499.634	-2.489	-3.160	2.611	0.689	6.124	-7.196
26156.158	NaN	2.696	7.500	-4.793	1510.623	1500.366	1500.366	-2.534	-3.023	2.504	0.536	6.048	-7.043
26157.135	NaN	2.696	7.500	-4.804	1510.623	1499.634	1501.099	-2.565	-3.053	2.412	0.536	5.971	-7.196
26158.112	NaN	2.696	7.500	-4.804	1509.890	1499.634	1501.099	-2.641	-3.053	2.397	0.612	6.124	-7.120
26159.088	NaN	2.696	7.500	-4.793	1510.623	1499.634	1500.366	-2.443	-3.099	2.458	0.459	6.201	-7.120
26160.065	NaN	2.685	7.489	-4.804	1510.623	1499.634	1500.366	-2.336	-3.206	2.534	0.536	6.278	-7.120
26161.041	NaN	2.707	7.489	-4.804	1511.355	1499.634	1501.832	-2.351	-3.298	2.580	0.612	6.124	-7.120
26162.018	NaN	2.696	7.478	-4.804	1510.623	1500.366	1498.901	-2.489	-3.221	2.611	0.612	6.278	-7.196
26162.994	NaN	2.685	7.478	-4.815	1511.355	1499.634	1501.832	-2.458	-3.053	2.580	0.612	6.201	-7.120
26163.971	NaN	2.685	7.478	-4.804	1509.890	1498.901	1500.366	-2.260	-2.992	2.748	0.536	6.048	-7.196
26164.948	NaN	2.696	7.489	-4.793	1511.355	1499.634	1502.564	-2.305	-2.885	2.824	0.689	6.124	-7.043
26165.924	NaN	2.696	7.489	-4.793	1511.355	1499.634	1501.099	-2.565	-3.053	2.687	0.612	6.124	-7.196
26166.901	NaN	2.707	7.500	-4.793	1511.355	1500.366	1500.366	-2.550	-3.084	2.626	0.689	6.048	-7.043
26167.877	NaN	2.707	7.500	-4.793	1510.623	1499.634	1500.366	-2.565	-3.206	2.687	0.536	6.278	-7.196
26168.854	NaN	2.696	7.500	-4.804	1510.623	1499.634	1499.634	-2.305	-3.053	2.718	0.536	6.201	-7.196
26169.830	NaN	2.696	7.500	-4.804	1510.623	1500.366	1501.099	-2.336	-2.885	2.809	0.536	6.201	-7.273
26170.807	NaN	2.707	7.511	-4.804	1511.355	1499.634	1501.099	-2.412	-2.977	2.824	0.459	6.048	-7.273
26171.783	NaN	2.707	7.500	-4.804	1511.355	1499.634	1500.366	-2.458	-2.977	2.916	0.536	6.124	-7.273
26172.760	NaN	2.707	7.500	-4.804	1510.623	1499.634	1501.099	-2.412	-2.901	3.008	0.536	6.124	-7.120
26173.737	NaN	2.685	7.500	-4.826	1511.355	1499.634	1501.099	-2.366	-3.084	2.870	0.536	6.201	-7.120
26174.713	NaN	2.696	7.500	-4.826	1510.623	1498.901	1500.366	-2.290	-3.252	2.794	0.536	6.048	-7.120
26175.690	NaN	2.707	7.500	-4.815	1509.158	1498.901	1500.366	-2.290	-3.267	2.687	0.536	6.201	-7.196
26176.666	NaN	2.707	7.500	-4.804	1509.890	1499.634	1500.366	-2.366	-3.008	2.779	0.689	7.349	-7.273
26177.643	NaN	2.696	7.500	-4.815	1511.355	1499.634	1500.366	-2.565	-2.992	2.992	0.612	6.124	-7.120
26178.619	NaN	2.685	7.511	-4.804	1510.623	1500.366	1499.634	-2.427	-2.962	2.901	0.536	6.124	-7.273
26179.596	NaN	2.696	7.489	-4.793	1511.355	1500.366	1499.634	-2.504	-2.962	2.901	0.612	6.048	-7.196
26180.573	NaN	2.696	7.500	-4.793	1510.623	1500.366	1500.366	-2.519	-3.023	2.809	0.612	6.124	-7.196
26181.549	NaN	2.707	7.500	-4.793	1510.623	1498.901	1501.099	-2.321	-3.160	2.779	0.689	6.124	-7.120
26182.526	NaN	2.696	7.500	-4.793	1511.355	1500.366	1500.366	-2.137	-3.084	2.611	0.536	6.201	-6.967
26183.502	NaN	2.696	7.500	-4.783	1509.890	1500.366	1501.099	-2.321	-2.992	2.763	0.612	7.349	-7.120
26184.479	NaN	2.696	7.500	-4.772	1506.960	1499.634	1501.099	-2.412	-2.916	2.901	0.612	6.048	-7.120
26185.455	NaN	2.685	7.500	-4.772	1510.623	1499.634	1501.832	-2.351	-2.855	2.855	0.689	6.124	-7.196
26186.432	NaN	2.685	7.500	-4.772	1510.623	1499.634	1501.099	-2.412	-2.931	2.870	0.612	6.201	-7.196
26187.408	NaN	2.696	7.500	-4.783	1511.355	1500.366	1500.366	-2.489	-2.916	2.947	0.459	6.201	-7.120
26188.385	NaN	2.685	7.500	-4.783	1510.623	1500.366	1498.901	-2.473	-2.840	2.794	0.536	6.201	-7.120
26189.362	NaN	2.696	7.489	-4.793	1510.623	1499.634	1500.366	-2.427	-2.840	2.855	0.689	6.048	-7.120
26190.338	NaN	2.696	7.500	-4.793	1509.890	1498.901	1500.366	-2.305	-2.809	3.008	0.612	6.201	-7.043
26191.315	NaN	2.707	7.500	-4.793	1509.890	1499.634	1500.366	-2.321	-2.779	3.038	0.612	6.201	-7.043
26192.291	NaN	2.717	7.500	-4.793	1510.623	1501.099	1500.366	-2.321	-2.840	3.145	0.536	6.278	-7.196
26193.268	NaN	2.717	7.500	-4.804	1510.623	1500.366	1500.366	-2.519	-2.809	3.115	0.459	6.048	-7.120
26194.244	NaN	2.707	7.489	-4.793	1509.890	1500.366	1498.168	-2.489	-2.779	3.023	0.536	5.971	-7.120
26195.221	NaN	2.696	7.478	-4.793	1510.623	1498.901	1501.099	-2.427	-2.763	3.008	0.612	6.124	-7.196
26196.198	NaN	2.707	7.489	-4.804	1509.890	1499.634	1500.366	-2.412	-2.687	2.977	0.536	6.201	-7.273
26197.174	NaN	2.717	7.489	-4.793	1509.158	1498.168	1500.366	-2.458	-2.672	3.008	0.612	6.201	-7.273
26198.151	NaN	2.707	7.489	-4.804	1510.623	1499.634	1500.366	-2.504	-2.641	3.145	0.612	6.124	-6.967
26199.127	NaN	2.707	7.489	-4.793	1509.890	1499.634	1500.366	-2.351	-2.748	3.130	0.612	6.124	-7.043
26200.104	NaN	2.696	7.489	-4.804	1510.623	1498.901	1501.099	-2.290	-2.840	2.931	0.612	6.124	-7.196
26201.080	NaN	2.696	7.489	-4.804	1509.890	1499.634	1500.366	-2.275	-2.901	2.947	0.612	6.124	-7.273
26202.057	NaN	2.696	7.511	-4.783	1510.623	1499.634	1501.099	-2.305	-2.733	3.084	0.612	6.124	-7.273
26203.033	NaN	2.696	7.500	-4.783	1511.355	1500.366	1499.634	-2.489	-2.748	3.191	0.612	6.201	-7.120
26204.010	NaN	2.685	7.489	-4.783	1509.158	1498.168	1498.901	-2.321	-2.824	3.359	0.612	6.124	-7.120
26204.987	NaN	2.696	7.489	-4.783	1512.088	1499.634	1500.366	-2.183	-2.794	3.053	0.536	6.201	-7.043
26205.963	NaN	2.685	7.500	-4.783	1509.890	1499.634	1498.901	-2.366	-2.840	3.069	0.612	5.971	-7.196
26206.940	NaN	2.685	7.500	-4.783	1508.425	1499.634	1498.901	-2.382	-2.916	3.298	0.536	6.201	-7.196
26207.916	NaN	2.707	7.511	-4.772	1510.623	1499.634	1500.366	-2.305	-2.885	3.420	0.536	6.201	-7.043
26208.893	NaN	2.696	7.500	-4.793	1509.158	1499.634	1501.099	-2.473	-2.763	3.176	0.459	6.201	-7.349
26209.869	NaN	2.707	7.511	-4.804	1509.890	1500.366	1500.366	-2.336	-2.763	3.206	0.689	6.201	-7.196
26210.846	NaN	2.707	7.511	-4.804	1509.890	1500.366	1501.099	-2.076	-2.626	3.191	0.536	6.124	-7.196
26211.823	NaN	2.707	7.500	-4.804	1509.890	1499.634	1499.634	-2.061	-2.595	3.099	0.536	5.971	-7.120
26212.799	NaN	2.696	7.489	-4.793	1509.890	1498.901	1500.366	-2.260	-2.733	3.389	0.612	6.201	-7.196
26213.776	NaN	2.685	7.489	-4.804	1510.623	1500.366	1498.168	-2.260	-2.718	3.466	0.612	6.124	-7.120
26214.752	NaN	2.696	7.478	-4.793	1509.890	1499.634	1501.832	-2.244	-2.580	3.313	0.612	6.124	-7.120
26215.729	NaN	2.696	7.478	-4.793	1510.623	1500.366	1499.634	-2.473	-2.611	3.176	0.689	6.048	-7.273
26216.705	NaN	2.696	7.478	-4.793	1509.890	1499.634	1501.099	-2.412	-2.595	3.282	0.536	6.124	-7.043
26217.682	NaN	2.685	7.478	-4.793	1510.623	1499.634	1501.099	-2.412	-2.656	3.252	0.536	6.124	-7.043
26218.658	NaN	2.696	7.478	-4.804	1511.355	1500.366	1499.634	-2.275	-2.504	3.191	0.459	6.048	-7.196
26219.635	NaN	2.707	7.478	-4.783	1510.623	1499.634	1501.832	-2.183	-2.473	3.206	0.612	6.124	-7.043
26220.612	NaN	2.696	7.478	-4.783	1510.623	1499.634	1501.832	-2.214	-2.473	3.267	0.536	6.201	-7.120
26221.588	NaN	2.696	7.478	-4.793	1509.890	1498.901	1500.366	-2.168	-2.580	3.435	0.612	6.201	-7.120
26222.565	NaN	2.696	7.489	-4.793	1510.623	1498.901	1498.901	-2.122	-2.763	3.649	0.689	6.048	-7.043
26223.541	NaN	2.707	7.478	-4.783	1509.890	1498.901	1500.366	-2.076	-2.809	3.603	0.612	6.201	-7.196
26224.518	NaN	2.707	7.500	-4.761	1509.890	1499.634	1500.366	-2.122	-2.595	3.496	0.536	6.201	-7.196
26225.494	NaN	2.685	7.500	-4.772	1510.623	1499.634	1499.634	-2.107	-2.595	3.618	0.612	6.048	-7.273
26226.471	NaN	2.685	7.489	-4.793	1509.890	1499.634	1499.634	-2.244	-2.580	3.542	0.612	6.124	-7.043
26227.448	NaN	2.685	7.500	-4.793	1511.355	1501.099	1499.634	-2.260	-2.656	3.450	0.612	6.201	-6.967
26228.424	NaN	2.685	7.500	-4.793	1511.355	1499.634	1501.832	-2.321	-2.489	3.389	0.536	6.124	-7.196
26229.401	NaN	2.685	7.500	-4.772	1509.890	1500.366	1499.634	-2.290	-2.382	3.496	0.612	5.971	-7.120
26230.377	NaN	2.696	7.500	-4.772	1510.623	1499.634	1501.099	-2.061	-2.443	3.511	0.536	6.201	-7.120
26231.354	NaN	2.696	7.489	-4.793	1510.623	1498.901	1500.366	-1.985	-2.550	3.527	0.612	6.278	-7.120
26232.330	NaN	2.696	7.500	-4.783	1512.088	1499.634	1501.832	-2.031	-2.519	3.634	0.612	6.048	-7.196
26233.307	NaN	2.696	7.500	-4.793	1510.623	1499.634	1501.099	-2.443	-2.626	3.573	0.689	6.048	-7.120
26234.283	NaN	2.707	7.489	-4.783	1510.623	1498.901	1501.099	-2.275	-2.687	3.573	0.536	6.124	-7.273
26235.260	NaN	2.707	7.489	-4.783	1510.623	1499.634	1501.099	-2.137	-2.519	3.603	0.536	6.048	-7.120
26236.237	3736844376.135	2.696	7.478	-4.783	1509.890	1500.366	1499.634	-2.229	-2.534	3.740	0.612	6.124	-7.196
26237.213	NaN	2.685	7.478	-4.772	1510.623	1500.366	1501.099	-2.244	-2.504	3.679	0.612	6.048	-7.043
26238.190	NaN	2.696	7.489	-4.783	1510.623	1500.366	1501.099	-2.122	-2.336	3.527	0.536	6.124	-7.043
26239.166	NaN	2.685	7.500	-4.793	1511.355	1500.366	1500.366	-1.939	-2.366	3.573	0.612	6.201	-7.273
26240.143	NaN	2.685	7.500	-4.793	1509.158	1498.901	1499.634	-1.954	-2.336	3.603	0.612	6.201	-6.967
26241.119	NaN	2.685	7.500	-4.793	1509.890	1500.366	1499.634	-1.969	-2.382	3.542	0.612	6.201	-7.196
26242.096	NaN	2.696	7.500	-4.793	1509.890	1500.366	1500.366	-1.893	-2.504	3.466	0.536	6.124	-7.043
26243.073	NaN	2.696	7.500	-4.793	1509.890	1499.634	1501.099	-1.740	-2.534	3.817	0.612	6.048	-7.120
26244.049	NaN	2.696	7.500	-4.793	1510.623	1499.634	1500.366	-1.802	-2.366	3.939	0.689	6.201	-7.120
26245.026	NaN	2.685	7.500	-4.804	1510.623	1499.634	1501.099	-1.847	-2.336	3.740	0.612	6.201	-7.273
26246.002	NaN	2.707	7.500	-4.783	1511.355	1500.366	1500.366	-1.985	-2.397	3.359	0.612	5.971	-7.196
26246.979	NaN	2.707	7.489	-4.783	1510.623	1499.634	1501.832	-2.122	-2.427	3.374	0.689	6.201	-7.120
26247.955	NaN	2.696	7.489	-4.793	1510.623	1499.634	1501.099	-2.122	-2.305	3.649	0.536	6.354	-7.120
26248.932	NaN	2.696	7.489	-4.804	1509.890	1499.634	1500.366	-2.000	-2.260	3.786	0.612	6.201	-7.043
26249.908	NaN	2.696	7.489	-4.815	1509.890	1498.901	1500.366	-2.000	-2.397	3.802	0.612	6.124	-7.043
26250.885	NaN	2.707	7.500	-4.804	1510.623	1499.634	1501.832	-1.908	-2.443	3.679	0.689	6.124	-7.120
26251.862	NaN	2.707	7.500	-4.804	1510.623	1499.634	1500.366	-1.969	-2.427	3.405	0.536	6.124	-7.120
26252.838	NaN	2.707	7.511	-4.783	1510.623	1499.634	1502.564	-2.168	-2.275	3.267	0.612	5.971	-7.120
26253.815	NaN	2.707	7.500	-4.793	1510.623	1499.634	1500.366	-2.092	-2.244	3.618	0.536	6.201	-7.120
26254.791	NaN	2.696	7.500	-4.793	1510.623	1499.634	1499.634	-2.061	-2.443	3.924	0.536	7.273	-6.967
26255.768	NaN	2.696	7.511	-4.783	1511.355	1499.634	1500.366	-2.137	-2.351	3.817	0.459	6.124	-7.196
26256.744	NaN	2.696	7.511	-4.793	1511.355	1499.634	1500.366	-2.153	-2.168	3.802	0.612	6.048	-7.196
26257.721	NaN	2.696	7.500	-4.793	1509.158	1498.168	1499.634	-2.153	-2.214	3.786	0.689	6.048	-7.043
26258.698	NaN	2.707	7.500	-4.793	1510.623	1498.168	1500.366	-2.092	-2.260	3.725	0.689	6.201	-7.120
26259.674	NaN	2.696	7.500	-4.793	1509.158	1498.901	1499.634	-1.954	-2.260	3.725	0.612	6.048	-7.043
26260.651	NaN	2.696	7.500	-4.793	1509.158	1498.901	1500.366	-1.847	-2.244	3.802	0.536	6.124	-7.120
26261.627	NaN	2.696	7.500	-4.783	1509.890	1500.366	1498.901	-1.954	-2.290	3.786	0.459	6.124	-7.196
26262.604	NaN	2.685	7.500	-4.793	1511.355	1499.634	1500.366	-2.092	-2.321	3.695	0.536	6.124	-7.273
26263.580	NaN	2.707	7.500	-4.793	1510.623	1500.366	1499.634	-2.076	-2.229	3.725	0.766	6.124	-7.273
26264.557	NaN	2.696	7.489	-4.793	1510.623	1500.366	1498.901	-2.031	-2.214	3.847	0.536	6.124	-7.273
26265.533	NaN	2.685	7.500	-4.793	1511.355	1499.634	1501.099	-1.924	-2.122	3.893	0.612	6.124	-7.196
26266.510	NaN	2.685	7.500	-4.804	1509.890	1499.634	1500.366	-1.802	-2.244	3.756	0.536	6.201	-7.196
