Timestamp	PC Timestamp	Low Noise Accelerometer X	Low Noise Accelerometer Y	Low Noise Accelerometer Z	Int A12	Int A13	Int A14	Gyroscope X	Gyroscope Y	Gyroscope Z	Wide Range Accelerometer X	Wide Range Accelerometer Y	Wide Range Accelerometer Z
46345.612	NaN	-3.489	1.630	9.239	1505.495	1503.297	1509.890	-3.282	-0.092	2.977	-6.124	-0.383	8.268
46346.588	NaN	-3.489	1.630	9.239	1506.227	1504.029	1510.623	-3.450	-0.198	2.824	-6.124	-0.153	8.268
46347.565	NaN	-3.500	1.630	9.250	1505.495	1504.762	1511.355	-3.618	-0.290	2.687	-6.048	-0.230	8.038
46348.541	NaN	-3.511	1.620	9.239	1506.227	1504.029	1510.623	-3.588	-0.244	2.840	-6.278	-0.306	8.115
46349.518	NaN	-3.511	1.609	9.250	1504.762	1504.762	1510.623	-3.466	-0.198	3.069	-6.201	-0.153	8.115
46350.494	NaN	-3.522	1.609	9.250	1507.692	1504.029	1509.890	-3.160	-0.076	2.977	-6.201	-0.230	8.038
46351.471	NaN	-3.522	1.609	9.272	1506.227	1504.762	1512.088	-3.160	-0.137	2.947	-6.354	-0.153	8.115
46352.448	NaN	-3.522	1.609	9.272	1506.227	1504.762	1509.890	-3.420	-0.214	2.947	-6.201	-0.306	8.115
46353.424	NaN	-3.511	1.609	9.283	1505.495	1504.029	1510.623	-3.618	-0.214	2.992	-6.354	-0.306	8.344
46354.401	NaN	-3.511	1.609	9.272	1504.762	1504.029	1509.890	-3.496	-0.244	2.977	-6.354	-0.306	8.344
46355.377	NaN	-3.500	1.609	9.272	1506.227	1505.495	1510.623	-3.206	-0.198	2.916	-6.201	-0.230	8.268
46356.354	NaN	-3.500	1.620	9.283	1506.227	1504.762	1511.355	-3.038	-0.366	2.885	-6.278	-0.230	8.268
46357.330	NaN	-3.511	1.620	9.283	1504.762	1504.762	1511.355	-3.328	-0.427	2.748	-6.278	-0.153	8.421
46358.307	NaN	-3.522	1.630	9.293	1506.227	1503.297	1509.890	-3.481	-0.214	2.733	-6.201	-0.153	8.268
46359.283	NaN	-3.522	1.620	9.283	1504.762	1504.762	1509.158	-3.389	-0.061	2.718	-6.124	-0.077	8.191
46360.260	NaN	-3.511	1.630	9.304	1506.227	1504.762	1511.355	-3.237	-0.031	2.840	-6.124	-0.077	8.191
46361.237	NaN	-3.511	1.630	9.304	1506.227	1503.297	1510.623	-3.252	-0.107	3.023	-6.124	-0.153	8.191
46362.213	NaN	-3.511	1.620	9.304	1506.227	1504.029	1511.355	-3.450	-0.305	2.992	-6.278	-0.306	8.115
46363.190	NaN	-3.522	1.620	9.293	1504.762	1504.029	1510.623	-3.405	-0.260	2.947	-6.201	-0.230	8.344
46364.166	NaN	-3.511	1.620	9.293	1504.762	1505.495	1511.355	-3.313	-0.076	2.870	-6.278	-0.230	8.344
46365.143	NaN	-3.511	1.620	9.304	1505.495	1504.029	1512.088	-3.252	-0.031	2.626	-6.278	-0.230	8.191
46366.119	NaN	-3.500	1.620	9.293	1506.227	1504.029	1512.088	-3.389	-0.061	2.702	-6.201	-0.153	8.344
46367.096	NaN	-3.511	1.620	9.283	1504.762	1504.029	1509.890	-3.344	0.031	2.656	-6.124	-0.230	8.191
46368.073	NaN	-3.522	1.609	9.272	1506.960	1504.029	1509.890	-3.282	-0.031	2.611	-6.124	-0.230	8.268
46369.049	NaN	-3.511	1.609	9.261	1506.227	1504.029	1512.088	-3.344	-0.107	2.427	-6.278	-0.230	8.191
46370.026	NaN	-3.511	1.620	9.261	1504.762	1504.762	1511.355	-3.328	-0.183	2.565	-6.278	-0.306	8.268
46371.002	NaN	-3.489	1.620	9.272	1505.495	1504.029	1511.355	-3.359	-0.351	2.840	-6.278	-0.153	8.115
46371.979	NaN	-3.489	1.620	9.272	1505.495	1504.029	1510.623	-3.649	-0.321	2.779	-6.278	-0.230	8.191
46372.955	NaN	-3.500	1.630	9.272	1505.495	1504.762	1510.623	-3.450	-0.153	2.763	-6.278	-0.153	8.191
46373.932	NaN	-3.500	1.620	9.283	1506.227	1504.762	1510.623	-3.389	-0.122	2.519	-6.354	-0.230	8.268
46374.908	NaN	-3.489	1.620	9.283	1506.227	1505.495	1510.623	-3.328	-0.137	2.672	-6.124	-0.306	8.268
46375.885	NaN	-3.489	1.620	9.283	1504.762	1504.762	1510.623	-3.374	-0.244	2.855	-6.278	-0.153	8.344
46376.862	NaN	-3.511	1.609	9.272	1504.762	1503.297	1511.355	-3.511	-0.305	2.840	-6.124	0.000	8.115
46377.838	NaN	-3.500	1.620	9.272	1505.495	1505.495	1510.623	-3.618	-0.244	2.748	-6.278	-0.153	8.191
46378.815	NaN	-3.489	1.620	9.283	1506.227	1504.029	1510.623	-3.328	-0.061	2.794	-6.201	-0.230	8.268
46379.791	NaN	-3.489	1.620	9.272	1505.495	1504.762	1509.890	-3.450	0.137	2.809	-6.201	-0.153	8.115
46380.768	NaN	-3.489	1.620	9.272	1504.762	1504.029	1511.355	-3.695	0.214	2.870	-6.278	-0.230	8.268
46381.744	NaN	-3.489	1.620	9.261	1506.227	1503.297	1509.890	-3.374	0.092	2.794	-6.124	-0.230	8.115
46382.721	NaN	-3.478	1.620	9.250	1507.692	1504.029	1509.890	-3.221	0.061	2.626	-6.201	0.000	8.268
46383.698	NaN	-3.489	1.620	9.239	1504.762	1504.762	1511.355	-3.298	-0.092	2.641	-6.278	-0.230	8.038
46384.674	NaN	-3.489	1.620	9.239	1506.227	1504.029	1512.088	-3.435	-0.107	2.626	-6.124	-0.306	8.115
46385.651	NaN	-3.489	1.620	9.239	1504.762	1504.029	1510.623	-3.435	-0.046	2.626	-6.201	-0.230	8.191
46386.627	NaN	-3.467	1.620	9.239	1506.227	1504.762	1509.890	-3.374	0.015	2.779	-6.124	-0.077	8.115
46387.604	NaN	-3.478	1.620	9.228	1506.227	1504.762	1511.355	-3.328	-0.153	2.962	-6.048	-0.153	8.115
46388.580	NaN	-3.478	1.620	9.228	1504.762	1504.029	1511.355	-3.405	-0.214	3.008	-6.124	-0.153	8.115
46389.557	NaN	-3.467	1.630	9.228	1505.495	1504.762	1509.890	-3.344	-0.153	2.733	-6.048	-0.153	8.268
46390.533	NaN	-3.467	1.630	9.228	1504.762	1504.762	1510.623	-3.130	0.137	2.824	-6.201	-0.153	8.191
46391.510	NaN	-3.446	1.641	9.228	1506.227	1504.762	1510.623	-3.160	0.137	2.947	-6.201	-0.230	8.191
46392.487	NaN	-3.446	1.630	9.239	1506.227	1504.029	1510.623	-3.053	-0.031	2.809	-6.124	-0.230	8.191
46393.463	NaN	-3.446	1.630	9.228	1506.960	1504.029	1510.623	-3.130	-0.153	2.824	-6.201	-0.306	8.191
46394.440	NaN	-3.467	1.630	9.217	1505.495	1504.762	1510.623	-3.389	-0.198	2.656	-6.124	-0.230	7.962
46395.416	NaN	-3.446	1.630	9.207	1506.227	1504.029	1510.623	-3.282	-0.214	2.687	-6.278	-0.306	7.962
46396.393	NaN	-3.457	1.620	9.207	1505.495	1504.029	1510.623	-3.099	-0.168	2.794	-6.048	-0.230	8.115
46397.369	NaN	-3.446	1.630	9.207	1506.227	1504.762	1509.158	-3.069	0.000	2.794	-6.201	-0.153	8.191
46398.346	NaN	-3.435	1.630	9.196	1505.495	1503.297	1510.623	-3.008	-0.031	2.992	-6.201	-0.230	8.115
46399.323	NaN	-3.446	1.630	9.185	1504.762	1504.029	1508.425	-2.931	0.137	2.977	-6.201	-0.230	8.115
46400.299	NaN	-3.435	1.630	9.196	1506.227	1504.029	1511.355	-3.145	0.076	2.885	-6.201	-0.153	8.191
46401.276	NaN	-3.424	1.630	9.196	1504.762	1504.762	1510.623	-3.267	-0.046	2.870	-6.048	-0.230	8.115
46402.252	NaN	-3.424	1.630	9.185	1504.762	1503.297	1510.623	-3.405	-0.183	2.855	-6.278	-0.230	8.038
46403.229	NaN	-3.424	1.620	9.196	1505.495	1503.297	1509.890	-3.267	-0.168	2.855	-6.201	-0.153	8.038
46404.205	NaN	-3.435	1.630	9.196	1504.762	1504.029	1510.623	-3.252	-0.092	2.672	-6.124	-0.153	8.268
46405.182	NaN	-3.457	1.630	9.207	1505.495	1503.297	1509.158	-3.130	0.061	2.611	-6.124	-0.306	8.038
46406.158	NaN	-3.446	1.630	9.207	1505.495	1504.029	1510.623	-3.252	0.000	2.611	-6.201	-0.153	8.191
46407.135	NaN	-3.446	1.620	9.207	1505.495	1504.029	1512.088	-3.298	-0.168	2.687	-6.048	-0.153	8.038
46408.112	NaN	-3.446	1.620	9.207	1504.029	1502.564	1510.623	-3.313	-0.137	2.824	-6.124	-0.230	8.038
46409.088	NaN	-3.446	1.609	9.207	1505.495	1503.297	1509.890	-3.191	-0.092	2.931	-6.278	-0.230	8.115
46410.065	NaN	-3.435	1.620	9.196	1505.495	1504.029	1509.890	-3.176	0.031	3.023	-6.048	-0.077	7.885
46411.041	NaN	-3.446	1.620	9.185	1504.762	1504.029	1509.158	-3.191	0.061	2.870	-6.124	-0.077	8.268
46412.018	NaN	-3.446	1.620	9.185	1503.297	1504.029	1509.890	-3.237	0.092	2.916	-6.201	-0.230	8.191
46412.994	NaN	-3.457	1.620	9.174	1502.564	1502.564	1509.890	-3.130	0.107	2.931	-6.201	-0.230	8.115
46413.971	NaN	-3.446	1.630	9.174	1505.495	1503.297	1512.088	-3.191	-0.015	2.962	-6.201	-0.077	8.038
46414.948	NaN	-3.457	1.630	9.163	1504.762	1504.029	1509.158	-3.084	-0.122	2.962	-6.048	-0.230	8.191
46415.924	NaN	-3.457	1.630	9.174	1504.029	1503.297	1509.158	-2.748	-0.031	2.794	-6.278	-0.077	8.115
46416.901	NaN	-3.457	1.630	9.174	1504.029	1503.297	1509.890	-2.641	-0.107	2.641	-6.201	-0.230	7.962
46417.877	NaN	-3.457	1.641	9.185	1504.762	1502.564	1509.158	-3.038	-0.183	2.718	-6.278	-0.230	8.191
46418.854	NaN	-3.435	1.652	9.196	1505.495	1505.495	1509.890	-3.252	-0.137	3.130	-6.201	-0.230	8.038
46419.830	NaN	-3.435	1.641	9.185	1504.762	1504.762	1511.355	-3.145	0.076	3.145	-6.278	-0.230	8.038
46420.807	NaN	-3.457	1.641	9.174	1503.297	1502.564	1508.425	-3.145	0.183	2.947	-6.201	-0.230	8.115
46421.783	NaN	-3.446	1.641	9.174	1504.762	1504.762	1509.890	-3.023	0.031	2.947	-6.124	-0.230	8.191
46422.760	NaN	-3.457	1.641	9.174	1503.297	1503.297	1508.425	-3.130	-0.031	2.977	-6.124	-0.230	7.885
46423.737	NaN	-3.446	1.641	9.185	1504.029	1504.029	1510.623	-2.977	-0.168	2.901	-6.124	-0.230	8.115
46424.713	NaN	-3.457	1.641	9.185	1504.762	1504.762	1509.890	-2.885	0.031	2.702	-6.201	-0.230	8.191
46425.690	NaN	-3.457	1.630	9.174	1504.029	1503.297	1509.890	-2.855	0.412	2.824	-6.201	-0.306	8.115
46426.666	NaN	-3.446	1.641	9.185	1506.227	1504.762	1510.623	-2.931	0.321	2.931	-6.201	-0.153	8.038
46427.643	NaN	-3.446	1.630	9.196	1506.227	1504.029	1510.623	-3.084	0.107	2.840	-6.201	-0.153	8.115
46428.619	NaN	-3.446	1.641	9.207	1506.227	1504.029	1509.890	-2.977	0.092	2.763	-5.971	0.000	8.268
46429.596	NaN	-3.457	1.630	9.207	1506.227	1504.029	1510.623	-2.824	-0.107	2.855	-6.278	-0.230	8.115
46430.573	NaN	-3.467	1.620	9.196	1504.762	1504.029	1509.158	-3.145	-0.229	2.901	-6.201	-0.153	8.191
46431.549	NaN	-3.467	1.620	9.217	1506.227	1504.762	1509.890	-3.298	-0.183	2.916	-6.201	-0.153	8.115
46432.526	NaN	-3.467	1.630	9.217	1506.227	1504.029	1510.623	-3.359	-0.031	2.885	-6.201	-0.153	8.115
46433.502	NaN	-3.467	1.620	9.207	1505.495	1504.762	1509.890	-3.176	-0.107	2.763	-6.124	-0.153	8.191
46434.479	NaN	-3.478	1.620	9.196	1506.227	1503.297	1509.890	-2.992	-0.183	2.840	-7.349	-0.306	8.191
46435.455	NaN	-3.478	1.620	9.196	1505.495	1504.029	1511.355	-2.870	0.092	2.977	-6.201	-0.153	8.191
46436.432	NaN	-3.467	1.620	9.185	1504.762	1504.762	1509.890	-2.626	0.153	2.809	-6.124	-0.230	7.962
46437.408	NaN	-3.478	1.620	9.185	1504.762	1504.029	1511.355	-2.885	0.015	3.038	-6.201	-0.230	8.038
46438.385	NaN	-3.467	1.630	9.196	1505.495	1503.297	1509.890	-3.130	-0.092	2.962	-6.124	-0.077	8.115
46439.362	NaN	-3.467	1.620	9.196	1506.227	1503.297	1509.890	-3.084	-0.260	2.824	-6.124	-0.153	8.115
46440.338	NaN	-3.467	1.630	9.217	1506.227	1504.762	1510.623	-2.962	-0.168	2.947	-6.124	-0.230	8.268
46441.315	NaN	-3.467	1.630	9.228	1505.495	1504.029	1510.623	-2.885	-0.122	3.008	-6.124	-0.230	8.191
46442.291	NaN	-3.467	1.630	9.228	1505.495	1504.029	1509.890	-2.962	-0.092	2.977	-6.201	-0.306	8.115
46443.268	NaN	-3.467	1.620	9.228	1505.495	1504.029	1509.890	-3.084	-0.076	2.855	-6.201	-0.230	8.268
46444.244	NaN	-3.467	1.620	9.228	1506.960	1504.762	1510.623	-2.992	0.153	2.855	-6.201	-0.230	8.115
46445.221	NaN	-3.467	1.620	9.239	1504.029	1504.029	1509.890	-3.130	0.137	2.840	-6.048	-0.306	8.115
46446.198	NaN	-3.467	1.630	9.250	1506.227	1503.297	1509.890	-3.130	-0.061	2.733	-6.124	-0.153	8.191
46447.174	NaN	-3.467	1.641	9.250	1505.495	1504.029	1509.890	-3.053	-0.076	2.672	-6.201	-0.077	8.038
46448.151	NaN	-3.478	1.620	9.250	1505.495	1504.762	1510.623	-2.763	-0.198	2.748	-6.124	-0.230	8.191
46449.127	NaN	-3.467	1.630	9.261	1506.960	1504.029	1510.623	-2.748	-0.214	2.931	-6.048	-0.153	8.268
46450.104	NaN	-3.478	1.630	9.261	1506.227	1504.029	1510.623	-2.840	-0.260	2.916	-6.124	-0.230	8.115
46451.080	NaN	-3.478	1.630	9.261	1504.762	1504.762	1509.890	-2.947	-0.260	2.794	-6.354	-0.306	8.191
46452.057	NaN	-3.478	1.620	9.250	1506.227	1504.762	1509.158	-3.023	-0.107	2.916	-6.124	-0.077	8.115
46453.033	NaN	-3.489	1.620	9.261	1505.495	1504.029	1509.890	-2.977	-0.122	2.901	-6.278	-0.153	8.268
46454.010	NaN	-3.489	1.630	9.272	1505.495	1504.762	1510.623	-2.931	0.015	2.840	-6.201	-0.153	8.115
46454.987	NaN	-3.489	1.630	9.283	1505.495	1504.762	1512.088	-2.840	0.015	2.855	-6.278	-0.153	8.268
46455.963	NaN	-3.500	1.630	9.272	1506.960	1504.029	1509.890	-2.901	-0.107	2.885	-6.201	-0.230	8.115
46456.940	NaN	-3.500	1.620	9.272	1505.495	1504.029	1512.088	-2.733	0.015	2.870	-6.048	-0.230	8.268
46457.916	NaN	-3.489	1.630	9.261	1506.227	1504.762	1510.623	-2.962	0.031	2.794	-6.201	-0.153	8.268
46458.893	NaN	-3.489	1.630	9.272	1505.495	1504.029	1510.623	-3.069	-0.168	2.702	-6.048	-0.153	8.191
46459.869	NaN	-3.500	1.641	9.272	1506.227	1504.762	1509.890	-2.855	-0.061	2.794	-6.278	-0.306	8.191
46460.846	NaN	-3.500	1.630	9.261	1505.495	1504.762	1510.623	-2.962	0.031	2.885	-6.201	-0.077	8.115
46461.823	NaN	-3.522	1.630	9.250	1506.227	1503.297	1509.890	-3.069	0.061	2.840	-6.201	-0.230	8.268
46462.799	NaN	-3.511	1.641	9.250	1504.762	1505.495	1512.088	-2.626	0.000	2.901	-6.201	-0.230	8.191
46463.776	NaN	-3.511	1.641	9.261	1505.495	1504.762	1511.355	-2.550	-0.061	2.840	-6.354	-0.077	8.115
46464.752	NaN	-3.511	1.641	9.272	1505.495	1504.762	1509.890	-2.580	-0.015	2.641	-6.278	-0.153	8.268
46465.729	NaN	-3.511	1.641	9.293	1505.495	1504.029	1509.890	-2.626	0.031	2.718	-6.124	-0.230	8.268
46466.705	NaN	-3.500	1.641	9.293	1506.960	1504.762	1510.623	-2.840	-0.046	2.840	-6.048	-0.153	8.191
46467.682	NaN	-3.511	1.630	9.293	1504.762	1503.297	1511.355	-2.992	-0.031	2.763	-6.048	-0.306	8.268
46468.658	NaN	-3.500	1.641	9.293	1505.495	1503.297	1511.355	-3.008	0.015	2.718	-6.354	-0.230	8.268
46469.635	NaN	-3.500	1.630	9.272	1504.762	1504.029	1510.623	-3.008	0.031	2.672	-6.201	-0.230	8.268
46470.612	NaN	-3.500	1.620	9.283	1505.495	1502.564	1509.158	-3.069	-0.031	2.733	-6.354	-0.153	8.344
46471.588	NaN	-3.489	1.641	9.272	1505.495	1504.762	1511.355	-3.038	-0.031	2.855	-6.124	-0.153	8.268
46472.565	NaN	-3.511	1.630	9.261	1504.029	1504.029	1509.158	-3.023	0.015	2.748	-6.201	-0.153	8.191
46473.541	NaN	-3.500	1.630	9.261	1504.762	1504.029	1510.623	-3.191	-0.214	2.534	-6.278	-0.153	8.115
46474.518	NaN	-3.500	1.620	9.250	1505.495	1504.029	1510.623	-2.824	-0.198	2.794	-6.124	-0.230	8.191
46475.494	NaN	-3.500	1.630	9.250	1505.495	1503.297	1509.890	-2.763	-0.183	2.962	-6.201	-0.230	8.115
46476.471	NaN	-3.489	1.641	9.272	1506.227	1504.029	1511.355	-2.748	-0.244	2.718	-6.124	-0.077	8.115
46477.448	NaN	-3.500	1.641	9.272	1505.495	1504.029	1510.623	-2.550	-0.244	2.595	-6.278	-0.153	8.344
46478.424	NaN	-3.500	1.641	9.283	1505.495	1503.297	1509.890	-2.718	-0.046	2.565	-6.201	-0.230	8.115
46479.401	NaN	-3.489	1.641	9.261	1505.495	1503.297	1509.158	-2.885	0.076	2.611	-6.201	-0.153	8.115
46480.377	NaN	-3.489	1.630	9.261	1504.762	1503.297	1509.890	-2.947	-0.092	2.626	-6.201	-0.077	8.115
46481.354	NaN	-3.467	1.641	9.250	1506.227	1504.029	1510.623	-2.962	-0.122	2.656	-6.278	-0.153	8.038
46482.330	NaN	-3.478	1.641	9.250	1506.227	1504.762	1509.890	-2.992	-0.122	2.870	-6.201	-0.153	8.268
46483.307	NaN	-3.478	1.630	9.250	1505.495	1501.832	1509.890	-3.191	-0.092	2.840	-6.201	-0.153	8.268
46484.283	NaN	-3.478	1.630	9.250	1505.495	1504.762	1509.890	-2.992	0.000	2.702	-6.201	-0.153	8.191
46485.260	NaN	-3.489	1.630	9.228	1505.495	1503.297	1509.890	-3.038	-0.031	2.687	-6.201	-0.306	8.115
46486.237	NaN	-3.478	1.630	9.239	1505.495	1503.297	1510.623	-2.763	-0.076	2.702	-6.354	-0.230	8.191
46487.213	NaN	-3.467	1.641	9.239	1506.227	1504.762	1510.623	-2.672	-0.076	2.794	-6.124	-0.230	8.115
46488.190	NaN	-3.478	1.641	9.239	1505.495	1503.297	1509.158	-3.038	0.000	2.763	-6.201	-0.153	8.038
46489.166	NaN	-3.467	1.641	9.239	1506.227	1504.762	1510.623	-3.160	-0.061	2.702	-6.201	-0.230	8.115
46490.143	NaN	-3.478	1.630	9.228	1504.029	1503.297	1509.890	-3.374	-0.031	2.687	-6.201	-0.153	8.344
46491.119	NaN	-3.467	1.630	9.228	1506.227	1504.029	1509.890	-3.008	-0.076	2.672	-6.124	-0.230	8.038
46492.096	NaN	-3.478	1.630	9.239	1505.495	1504.762	1509.890	-2.885	-0.076	2.687	-6.278	-0.230	8.268
46493.073	NaN	-3.467	1.630	9.239	1504.762	1504.029	1511.355	-2.885	0.046	2.794	-6.124	-0.230	8.115
46494.049	NaN	-3.478	1.630	9.239	1505.495	1504.762	1511.355	-2.916	0.015	2.702	-6.124	-0.230	8.268
46495.026	NaN	-3.478	1.630	9.239	1505.495	1504.029	1510.623	-2.885	0.046	2.641	-6.124	-0.230	8.115
46496.002	NaN	-3.467	1.620	9.239	1505.495	1504.029	1510.623	-2.824	0.076	2.519	-6.278	-0.230	8.115
46496.979	NaN	-3.467	1.630	9.239	1506.227	1504.029	1509.158	-2.870	-0.031	2.489	-6.278	-0.306	8.038
46497.955	NaN	-3.467	1.641	9.239	1506.960	1504.029	1510.623	-2.840	0.015	2.672	-6.278	-0.153	8.115
46498.932	NaN	-3.457	1.641	9.228	1506.227	1504.762	1509.890	-3.038	-0.107	2.916	-6.124	-0.230	8.038
46499.908	NaN	-3.457	1.641	9.217	1505.495	1504.029	1512.088	-3.069	-0.137	2.855	-6.124	-0.153	8.268
46500.885	NaN	-3.467	1.641	9.207	1505.495	1504.029	1511.355	-2.901	-0.092	2.733	-5.971	-0.306	8.038
46501.862	NaN	-3.478	1.641	9.207	1504.762	1503.297	1510.623	-2.992	0.061	2.687	-6.201	-0.306	8.038
46502.838	NaN	-3.467	1.630	9.207	1506.227	1504.762	1511.355	-3.023	0.046	2.565	-6.201	-0.230	8.115
46503.815	NaN	-3.457	1.620	9.196	1506.227	1504.029	1509.890	-2.916	-0.107	2.656	-6.048	-0.230	8.191
46504.791	NaN	-3.457	1.630	9.196	1505.495	1504.029	1509.158	-2.748	-0.275	2.901	-6.201	-0.230	8.115
46505.768	NaN	-3.457	1.630	9.196	1505.495	1505.495	1510.623	-2.687	-0.214	2.870	-6.201	0.000	8.115
46506.744	NaN	-3.467	1.630	9.185	1506.227	1504.029	1509.890	-2.870	-0.260	2.809	-6.124	-0.153	8.191
46507.721	NaN	-3.467	1.620	9.196	1505.495	1503.297	1510.623	-2.855	-0.229	2.748	-6.124	-0.230	8.115
46508.698	NaN	-3.467	1.620	9.207	1505.495	1504.029	1510.623	-2.947	-0.092	2.443	-6.278	-0.077	8.115
46509.674	NaN	-3.467	1.620	9.207	1505.495	1504.029	1511.355	-2.840	-0.122	2.519	-5.971	-0.077	8.038
46510.651	NaN	-3.467	1.630	9.207	1505.495	1503.297	1510.623	-2.794	-0.214	2.763	-6.201	-0.230	8.038
46511.627	NaN	-3.457	1.630	9.207	1506.960	1504.029	1509.890	-3.053	-0.229	2.779	-6.048	-0.230	8.115
46512.604	NaN	-3.457	1.641	9.217	1506.227	1504.762	1510.623	-3.115	-0.046	2.779	-6.278	-0.153	8.191
46513.580	NaN	-3.446	1.652	9.217	1505.495	1504.762	1511.355	-2.947	0.046	2.885	-6.201	-0.153	8.115
46514.557	NaN	-3.446	1.663	9.207	1506.227	1504.762	1510.623	-2.641	0.061	2.779	-6.048	-0.230	8.268
46515.533	NaN	-3.457	1.641	9.207	1506.227	1504.029	1508.425	-2.901	-0.015	2.595	-6.124	-0.230	7.962
46516.510	NaN	-3.457	1.641	9.207	1506.960	1504.762	1510.623	-2.962	-0.076	2.779	-6.124	-0.230	8.115
46517.487	NaN	-3.457	1.641	9.207	1504.762	1504.762	1510.623	-2.840	-0.305	2.733	-6.124	-0.077	8.038
46518.463	NaN	-3.457	1.630	9.217	1506.227	1504.762	1510.623	-2.901	-0.305	2.748	-6.201	-0.230	8.115
46519.440	NaN	-3.467	1.620	9.207	1505.495	1504.029	1511.355	-2.687	-0.031	2.702	-6.048	-0.077	8.038
46520.416	NaN	-3.457	1.641	9.207	1506.227	1504.762	1510.623	-2.779	0.122	2.656	-6.048	-0.153	8.038
46521.393	NaN	-3.457	1.630	9.207	1505.495	1504.029	1509.890	-2.947	0.015	2.687	-6.048	-0.230	8.115
46522.369	NaN	-3.457	1.630	9.207	1506.227	1504.029	1510.623	-2.916	-0.183	2.534	-6.201	-0.230	8.115
46523.346	NaN	-3.446	1.630	9.196	1503.297	1503.297	1509.890	-2.809	-0.229	2.656	-6.201	-0.230	8.038
46524.323	NaN	-3.467	1.630	9.185	1504.762	1504.029	1509.158	-2.824	-0.061	2.748	-6.201	-0.306	7.885
46525.299	NaN	-3.457	1.630	9.196	1505.495	1505.495	1510.623	-2.733	0.015	2.702	-6.201	-0.230	8.191
46526.276	NaN	-3.457	1.630	9.196	1506.227	1504.029	1510.623	-2.870	-0.122	2.733	-6.201	-0.153	8.268
46527.252	NaN	-3.457	1.630	9.207	1505.495	1503.297	1509.890	-3.160	-0.107	2.580	-6.278	-0.230	8.038
46528.229	NaN	-3.446	1.620	9.207	1506.227	1504.029	1509.158	-3.237	-0.046	2.458	-6.124	-0.153	8.038
46529.205	NaN	-3.446	1.630	9.207	1506.227	1504.762	1510.623	-2.885	-0.275	2.534	-6.278	-0.153	8.038
46530.182	NaN	-3.457	1.620	9.217	1504.762	1504.762	1511.355	-2.992	-0.443	2.748	-6.124	-0.153	8.038
46531.158	NaN	-3.457	1.620	9.217	1506.227	1504.762	1512.821	-2.794	-0.412	2.916	-6.354	-0.230	8.191
46532.135	NaN	-3.446	1.620	9.207	1506.227	1504.762	1512.088	-2.748	-0.275	2.702	-6.201	-0.153	8.038
46533.112	NaN	-3.457	1.609	9.207	1506.227	1503.297	1509.158	-2.870	-0.229	2.550	-6.124	-0.077	8.038
46534.088	NaN	-3.457	1.609	9.207	1506.227	1502.564	1509.158	-3.023	-0.183	2.489	-6.278	-0.077	8.191
46535.065	NaN	-3.446	1.620	9.196	1506.960	1503.297	1509.890	-3.084	-0.214	2.672	-6.124	-0.230	8.038
46536.041	NaN	-3.457	1.630	9.207	1505.495	1504.029	1510.623	-3.084	-0.321	2.718	-6.354	-0.230	8.115
46537.018	NaN	-3.467	1.620	9.207	1504.762	1504.029	1510.623	-2.962	-0.397	2.519	-6.124	-0.230	8.038
46537.994	NaN	-3.457	1.630	9.207	1506.227	1504.029	1509.890	-2.901	-0.244	2.565	-6.201	-0.077	8.115
46538.971	NaN	-3.467	1.620	9.207	1505.495	1503.297	1510.623	-2.885	-0.137	2.458	-6.124	-0.153	8.115
46539.948	NaN	-3.467	1.641	9.228	1505.495	1503.297	1509.158	-2.885	-0.061	2.351	-6.124	-0.230	8.115
46540.924	NaN	-3.457	1.641	9.239	1505.495	1504.029	1510.623	-2.947	-0.061	2.534	-6.278	-0.230	8.191
46541.901	NaN	-3.467	1.641	9.239	1506.227	1502.564	1509.890	-3.023	-0.137	2.687	-6.048	-0.153	8.191
46542.877	NaN	-3.467	1.652	9.239	1506.960	1504.029	1510.623	-3.069	-0.244	2.733	-6.124	-0.306	8.191
46543.854	NaN	-3.478	1.630	9.228	1506.227	1503.297	1511.355	-2.779	-0.336	2.656	-6.124	-0.153	8.115
46544.830	NaN	-3.467	1.641	9.239	1505.495	1503.297	1512.088	-2.595	-0.321	2.611	-6.201	-0.230	8.115
46545.807	NaN	-3.467	1.630	9.228	1506.227	1504.029	1509.158	-2.687	-0.305	2.687	-6.124	-0.153	8.191
46546.783	NaN	-3.467	1.641	9.239	1504.762	1504.029	1510.623	-2.733	-0.214	2.641	-6.124	-0.153	8.115
46547.760	NaN	-3.467	1.641	9.239	1505.495	1504.762	1510.623	-2.947	-0.275	2.550	-6.124	-0.077	8.268
46548.737	NaN	-3.489	1.630	9.239	1504.762	1504.029	1511.355	-2.947	-0.305	2.519	-6.124	-0.230	8.191
46549.713	3736846956.474	-3.478	1.630	9.261	1506.227	1504.762	1509.890	-2.916	-0.244	2.458	-6.048	-0.153	8.115
46550.690	NaN	-3.500	1.630	9.250	1505.495	1504.029	1512.088	-3.008	-0.229	2.412	-6.201	-0.153	8.191
46551.666	NaN	-3.500	1.630	9.239	1504.029	1502.564	1508.425	-3.023	-0.046	2.351	-6.201	-0.153	8.115
46552.643	NaN	-3.478	1.630	9.228	1505.495	1504.762	1509.158	-2.931	0.000	2.412	-6.278	0.000	8.038
46553.619	NaN	-3.489	1.630	9.228	1506.227	1504.029	1511.355	-2.595	-0.153	2.443	-6.201	-0.077	8.191
46554.596	NaN	-3.467	1.630	9.239	1505.495	1503.297	1509.890	-2.641	-0.275	2.458	-6.278	-0.230	8.115
46555.573	NaN	-3.489	1.620	9.239	1506.227	1503.297	1509.158	-2.794	-0.244	2.550	-6.201	-0.077	8.115
46556.549	NaN	-3.489	1.630	9.228	1504.762	1503.297	1509.890	-2.885	-0.214	2.519	-6.278	-0.153	8.115
46557.526	NaN	-3.489	1.620	9.228	1504.762	1503.297	1509.890	-2.931	-0.076	2.321	-6.124	-0.230	8.191
46558.502	NaN	-3.478	1.630	9.228	1505.495	1504.762	1510.623	-2.840	-0.229	2.489	-6.201	-0.153	8.191
46559.479	NaN	-3.478	1.630	9.228	1506.227	1501.832	1510.623	-2.855	-0.321	2.641	-6.201	-0.230	8.115
46560.455	NaN	-3.478	1.630	9.228	1505.495	1503.297	1510.623	-2.885	-0.290	2.565	-6.354	-0.153	8.268
46561.432	NaN	-3.478	1.630	9.239	1504.762	1504.029	1509.158	-2.916	-0.290	2.412	-6.124	-0.230	8.268
46562.408	NaN	-3.467	1.620	9.239	1506.227	1503.297	1511.355	-2.885	-0.397	2.412	-6.048	-0.153	8.268
46563.385	NaN	-3.478	1.620	9.250	1506.227	1504.029	1510.623	-2.824	-0.336	2.534	-6.278	-0.230	8.191
46564.362	NaN	-3.478	1.620	9.250	1506.227	1504.029	1510.623	-2.779	-0.198	2.687	-6.124	-0.230	8.115
46565.338	NaN	-3.467	1.641	9.261	1506.960	1504.029	1512.088	-2.947	-0.214	2.611	-6.278	-0.153	8.038
46566.315	NaN	-3.478	1.641	9.261	1505.495	1504.029	1511.355	-3.008	-0.198	2.397	-6.201	-0.153	8.191
46567.291	NaN	-3.489	1.630	9.261	1504.762	1503.297	1509.890	-2.962	-0.122	2.366	-6.201	-0.077	8.191
46568.268	NaN	-3.489	1.641	9.261	1506.227	1503.297	1510.623	-2.885	0.015	2.458	-6.124	-0.230	8.115
46569.244	NaN	-3.500	1.641	9.261	1506.227	1504.029	1509.890	-2.702	0.031	2.443	-6.201	-0.153	8.191
46570.221	NaN	-3.489	1.641	9.283	1506.227	1504.029	1512.088	-2.641	-0.137	2.412	-6.201	-0.153	8.268
46571.198	NaN	-3.489	1.641	9.272	1504.762	1504.029	1509.158	-2.702	-0.137	2.473	-6.201	-0.153	8.268
46572.174	NaN	-3.489	1.630	9.261	1505.495	1504.029	1509.158	-2.870	-0.229	2.687	-6.201	-0.230	8.191
46573.151	NaN	-3.478	1.641	9.250	1505.495	1504.762	1510.623	-3.069	-0.092	2.687	-6.124	-0.230	8.268
46574.127	NaN	-3.478	1.641	9.250	1506.227	1504.029	1511.355	-3.099	-0.153	2.382	-6.124	-0.306	8.038
46575.104	NaN	-3.489	1.641	9.250	1505.495	1504.029	1509.890	-3.038	-0.351	2.183	-6.201	-0.230	8.191
46576.080	NaN	-3.500	1.630	9.261	1505.495	1504.029	1510.623	-2.870	-0.366	2.183	-6.124	-0.153	8.268
46577.057	NaN	-3.500	1.630	9.261	1506.227	1504.029	1509.890	-2.885	-0.214	2.458	-6.354	-0.230	8.191
46578.033	NaN	-3.511	1.620	9.261	1504.762	1504.029	1511.355	-2.885	-0.229	2.580	-6.048	-0.306	8.268
46579.010	NaN	-3.500	1.630	9.272	1505.495	1504.029	1512.088	-2.901	-0.382	2.489	-6.201	-0.230	8.268
46579.987	NaN	-3.511	1.630	9.261	1504.762	1504.029	1511.355	-2.885	-0.336	2.305	-6.201	-0.230	8.268
46580.963	NaN	-3.500	1.620	9.250	1506.227	1504.029	1510.623	-2.947	-0.336	2.366	-6.048	-0.383	8.115
46581.940	NaN	-3.489	1.620	9.250	1505.495	1504.029	1510.623	-2.916	-0.198	2.366	-6.124	-0.306	8.191
46582.916	NaN	-3.478	1.630	9.250	1506.960	1504.029	1510.623	-2.794	-0.061	2.427	-6.201	-0.230	8.191
46583.893	NaN	-3.489	1.641	9.261	1506.227	1504.029	1509.890	-2.779	-0.168	2.321	-6.048	-0.230	8.268
46584.869	NaN	-3.489	1.630	9.261	1505.495	1503.297	1509.158	-2.656	-0.290	2.321	-6.278	-0.306	8.268
46585.846	NaN	-3.500	1.630	9.261	1506.227	1504.029	1510.623	-2.534	-0.366	2.427	-6.201	-0.230	8.115
46586.823	NaN	-3.489	1.630	9.239	1505.495	1504.029	1510.623	-2.580	-0.351	2.718	-6.278	-0.077	8.038
46587.799	NaN	-3.489	1.620	9.250	1505.495	1504.029	1509.890	-2.748	-0.321	2.702	-6.201	-0.153	8.038
46588.776	NaN	-3.489	1.630	9.239	1504.762	1503.297	1510.623	-2.870	-0.351	2.519	-6.201	-0.230	8.115
46589.752	NaN	-3.489	1.620	9.239	1504.762	1504.762	1510.623	-3.008	-0.229	2.366	-6.201	-0.077	8.115
46590.729	NaN	-3.478	1.630	9.239	1506.227	1504.029	1510.623	-3.084	-0.137	2.244	-6.201	-0.153	8.268
46591.705	NaN	-3.478	1.641	9.239	1506.227	1504.762	1511.355	-3.008	-0.122	2.260	-6.201	-0.230	8.191
46592.682	NaN	-3.478	1.641	9.250	1505.495	1504.029	1509.890	-3.099	-0.260	2.153	-6.201	-0.077	7.962
46593.658	NaN	-3.500	1.641	9.239	1505.495	1504.029	1510.623	-2.840	-0.321	2.244	-6.278	-0.153	8.038
46594.635	NaN	-3.500	1.630	9.239	1504.762	1503.297	1509.158	-2.748	-0.229	2.351	-6.201	-0.230	8.268
46595.612	NaN	-3.489	1.630	9.250	1507.692	1504.029	1510.623	-2.794	-0.168	2.183	-6.124	-0.153	8.191
46596.588	NaN	-3.489	1.620	9.250	1505.495	1503.297	1509.158	-2.687	-0.092	2.168	-6.278	-0.153	8.038
46597.565	NaN	-3.478	1.641	9.250	1505.495	1504.029	1510.623	-2.901	-0.031	2.229	-6.048	-0.077	8.115
46598.541	NaN	-3.489	1.641	9.250	1506.227	1504.029	1510.623	-2.763	-0.229	2.443	-6.124	-0.077	8.191
46599.518	NaN	-3.500	1.630	9.239	1503.297	1502.564	1509.158	-2.931	-0.397	2.580	-6.278	-0.153	8.038
46600.494	NaN	-3.489	1.630	9.250	1505.495	1504.762	1510.623	-3.053	-0.336	2.214	-6.278	-0.153	8.191
46601.471	NaN	-3.500	1.609	9.239	1504.029	1503.297	1509.158	-3.038	-0.092	2.015	-6.201	-0.230	8.191
46602.448	NaN	-3.478	1.630	9.250	1505.495	1503.297	1509.890	-2.885	-0.137	2.046	-6.201	0.000	8.191
46603.424	NaN	-3.467	1.630	9.239	1506.227	1504.029	1510.623	-3.038	-0.198	2.076	-6.124	-0.153	8.115
46604.401	NaN	-3.478	1.641	9.228	1504.762	1504.029	1510.623	-3.191	-0.290	2.198	-4.976	-0.077	8.191
46605.377	NaN	-3.467	1.652	9.207	1506.960	1504.029	1510.623	-3.084	-0.305	2.305	-6.048	-0.153	8.115
46606.354	NaN	-3.478	1.641	9.207	1506.227	1503.297	1508.425	-3.053	-0.244	2.458	-6.201	-0.230	8.191
46607.330	NaN	-3.467	1.641	9.196	1505.495	1502.564	1509.158	-3.069	-0.153	2.427	-6.278	-0.230	8.191
46608.307	NaN	-3.457	1.641	9.207	1505.495	1503.297	1510.623	-3.221	-0.229	2.305	-6.124	-0.306	8.191
46609.283	NaN	-3.467	1.630	9.207	1505.495	1504.029	1510.623	-3.038	-0.260	2.153	-6.278	-0.230	8.115
46610.260	NaN	-3.467	1.630	9.217	1505.495	1503.297	1509.158	-2.840	-0.244	2.198	-6.124	-0.383	8.268
46611.237	NaN	-3.457	1.630	9.228	1505.495	1502.564	1511.355	-2.885	-0.275	2.183	-6.278	-0.153	8.268
46612.213	NaN	-3.467	1.641	9.239	1506.227	1503.297	1510.623	-3.008	-0.260	2.183	-6.048	-0.230	8.038
46613.190	NaN	-3.478	1.641	9.228	1504.762	1503.297	1509.890	-3.099	-0.244	2.351	-6.124	-0.230	8.115
46614.166	NaN	-3.457	1.641	9.228	1506.227	1504.762	1509.890	-3.053	-0.183	2.397	-6.201	-0.077	8.191
46615.143	NaN	-3.467	1.641	9.217	1504.762	1503.297	1510.623	-3.008	-0.122	2.122	-6.048	-0.153	8.115
46616.119	NaN	-3.467	1.652	9.207	1504.762	1503.297	1509.890	-3.130	-0.229	2.076	-6.278	-0.153	8.268
46617.096	NaN	-3.467	1.663	9.207	1506.960	1504.029	1511.355	-3.115	-0.260	2.275	-6.124	-0.153	8.191
46618.073	NaN	-3.478	1.663	9.207	1504.762	1503.297	1508.425	-2.977	-0.244	2.107	-6.201	-0.230	8.191
46619.049	NaN	-3.467	1.663	9.217	1505.495	1504.762	1511.355	-3.008	-0.229	2.092	-6.201	-0.153	8.191
46620.026	NaN	-3.478	1.652	9.207	1505.495	1503.297	1510.623	-3.023	-0.305	2.168	-6.201	-0.306	8.115
46621.002	NaN	-3.467	1.630	9.217	1505.495	1504.029	1511.355	-3.145	-0.321	2.183	-6.201	-0.306	8.191
46621.979	NaN	-3.467	1.630	9.217	1506.227	1504.029	1511.355	-3.176	-0.153	2.122	-6.048	-0.153	8.191
46622.955	NaN	-3.467	1.641	9.207	1506.227	1504.762	1510.623	-3.252	-0.076	2.015	-6.201	-0.153	8.115
46623.932	NaN	-3.457	1.641	9.217	1506.227	1504.029	1509.890	-2.977	-0.153	1.985	-6.124	-0.230	7.962
46624.908	NaN	-3.457	1.630	9.207	1505.495	1504.029	1512.088	-2.855	-0.122	2.031	-6.354	-0.306	8.038
46625.885	NaN	-3.457	1.630	9.217	1506.227	1504.029	1511.355	-2.794	-0.122	2.153	-6.201	-0.230	8.115
46626.862	NaN	-3.478	1.620	9.228	1505.495	1504.029	1512.088	-3.069	-0.061	2.183	-6.278	-0.153	8.038
46627.838	NaN	-3.467	1.630	9.228	1506.960	1504.029	1510.623	-2.977	-0.198	2.244	-6.124	-0.153	8.191
46628.815	NaN	-3.467	1.630	9.217	1506.960	1504.029	1511.355	-2.870	-0.382	2.107	-6.048	-0.230	8.268
46629.791	NaN	-3.457	1.630	9.217	1506.227	1505.495	1510.623	-3.023	-0.473	2.122	-6.124	-0.077	8.115
46630.768	NaN	-3.446	1.620	9.228	1506.227	1504.029	1511.355	-3.176	-0.229	2.137	-6.278	-0.153	8.191
46631.744	NaN	-3.457	1.630	9.217	1506.960	1504.762	1510.623	-3.008	-0.107	2.092	-6.201	0.000	8.038
46632.721	NaN	-3.446	1.641	9.228	1506.227	1504.029	1510.623	-2.840	-0.031	2.076	-6.124	-0.230	8.268
46633.698	NaN	-3.446	1.641	9.228	1506.960	1504.029	1510.623	-2.947	-0.183	2.122	-6.124	-0.077	8.268
46634.674	NaN	-3.446	1.641	9.228	1504.762	1504.029	1510.623	-3.221	-0.244	2.107	-6.048	-0.306	8.268
46635.651	NaN	-3.446	1.630	9.217	1506.227	1504.029	1508.425	-3.313	-0.351	2.198	-6.048	-0.153	8.115
46636.627	NaN	-3.446	1.630	9.207	1505.495	1504.762	1509.890	-2.977	-0.214	2.168	-6.201	-0.153	8.191
46637.604	NaN	-3.457	1.641	9.207	1506.227	1504.762	1510.623	-2.809	-0.183	2.107	-6.048	-0.077	8.115
46638.580	NaN	-3.457	1.652	9.217	1506.227	1504.029	1512.088	-2.947	-0.153	2.061	-6.201	-0.153	8.115
46639.557	NaN	-3.457	1.641	9.228	1505.495	1504.029	1509.890	-3.115	-0.214	2.076	-6.278	-0.077	8.268
46640.533	NaN	-3.457	1.630	9.228	1506.227	1504.762	1510.623	-3.099	-0.168	2.137	-6.124	-0.077	8.038
46641.510	NaN	-3.457	1.630	9.228	1505.495	1504.762	1512.088	-3.023	-0.183	2.031	-6.201	-0.230	8.115
46642.487	NaN	-3.457	1.641	9.228	1505.495	1504.762	1509.890	-3.053	-0.290	1.969	-6.124	-0.153	8.191
46643.463	NaN	-3.457	1.641	9.217	1506.227	1504.029	1509.890	-3.115	-0.321	1.756	-6.201	-0.153	8.191
46644.440	NaN	-3.467	1.641	9.217	1505.495	1503.297	1509.890	-3.115	-0.168	1.832	-6.048	-0.230	8.038
46645.416	NaN	-3.457	1.641	9.217	1506.227	1504.762	1510.623	-3.267	-0.183	2.015	-6.124	-0.153	8.115
46646.393	NaN	-3.457	1.630	9.217	1506.227	1504.029	1511.355	-3.435	-0.305	2.122	-6.201	-0.230	8.191
46682.526	NaN	-3.478	1.630	9.239	1505.495	1504.029	1511.355	-3.053	-0.260	1.985	-6.431	-0.153	8.115
46683.502	NaN	-3.457	1.641	9.250	1504.762	1503.297	1509.890	-2.992	-0.198	1.832	-6.124	-0.306	8.268
46684.479	NaN	-3.467	1.641	9.250	1506.960	1503.297	1510.623	-3.130	-0.076	1.710	-6.201	-0.230	8.191
46685.455	NaN	-3.467	1.630	9.239	1504.029	1503.297	1509.158	-3.206	0.031	1.969	-6.124	-0.230	8.115
46686.432	NaN	-3.457	1.641	9.239	1504.029	1504.029	1508.425	-3.053	-0.061	2.061	-6.201	-0.230	8.115
46687.408	NaN	-3.457	1.630	9.239	1506.960	1504.029	1509.158	-2.962	-0.229	2.061	-6.201	-0.230	8.191
46688.385	NaN	-3.457	1.630	9.239	1505.495	1504.029	1509.890	-3.069	-0.168	1.847	-6.201	-0.153	8.115
46689.362	NaN	-3.467	1.620	9.239	1504.762	1503.297	1509.890	-2.916	-0.046	1.771	-6.278	-0.230	8.038
46690.338	NaN	-3.457	1.630	9.239	1506.227	1504.762	1509.890	-2.992	-0.015	1.847	-6.201	-0.230	8.268
46691.315	NaN	-3.457	1.630	9.239	1506.227	1504.762	1510.623	-3.267	-0.122	1.832	-6.201	-0.230	7.962
46692.291	NaN	-3.457	1.630	9.239	1505.495	1504.029	1512.088	-3.252	-0.122	1.756	-6.201	-0.230	8.268
46693.268	NaN	-3.457	1.630	9.250	1505.495	1503.297	1512.088	-3.023	-0.061	1.786	-6.354	0.000	8.191
46694.244	NaN	-3.467	1.630	9.250	1506.227	1504.029	1510.623	-2.885	-0.168	1.878	-6.278	-0.153	8.115
46695.221	NaN	-3.467	1.630	9.239	1505.495	1504.029	1510.623	-3.282	-0.305	1.924	-6.201	-0.306	8.191
46696.198	NaN	-3.467	1.630	9.239	1505.495	1504.029	1510.623	-3.267	-0.305	1.817	-6.124	-0.230	8.115
46697.174	NaN	-3.478	1.630	9.239	1506.227	1503.297	1510.623	-3.099	-0.321	1.725	-6.124	-0.153	8.038
46698.151	NaN	-3.478	1.620	9.239	1505.495	1503.297	1510.623	-3.084	-0.489	1.756	-6.201	-0.230	8.191
46699.127	NaN	-3.478	1.620	9.239	1506.227	1505.495	1510.623	-3.115	-0.473	1.832	-6.124	-0.153	8.191
46700.104	NaN	-3.467	1.630	9.239	1506.227	1503.297	1511.355	-3.313	-0.122	1.679	-6.124	-0.153	8.191
46701.080	NaN	-3.457	1.641	9.250	1506.227	1504.762	1509.890	-3.237	-0.046	1.893	-6.278	-0.230	7.962
46702.057	NaN	-3.457	1.641	9.250	1504.762	1504.029	1509.890	-3.053	-0.076	2.137	-6.201	-0.077	8.268
46703.033	NaN	-3.467	1.630	9.250	1505.495	1504.029	1509.890	-3.084	-0.076	2.000	-6.201	-0.153	8.191
46704.010	NaN	-3.467	1.641	9.250	1504.762	1504.029	1512.088	-3.115	0.015	1.710	-6.201	-0.153	8.038
46704.987	NaN	-3.457	1.630	9.239	1506.960	1503.297	1510.623	-3.069	0.168	1.634	-6.048	-0.077	8.115
46705.963	NaN	-3.467	1.630	9.250	1504.762	1504.029	1511.355	-2.824	0.092	1.924	-6.124	-0.230	8.115
46706.940	NaN	-3.478	1.630	9.239	1506.227	1503.297	1509.890	-2.809	-0.076	2.015	-6.201	-0.230	8.038
46707.916	NaN	-3.467	1.641	9.239	1506.960	1504.762	1511.355	-2.931	-0.137	2.031	-6.124	-0.077	8.268
46708.893	NaN	-3.467	1.641	9.228	1505.495	1504.029	1511.355	-2.916	-0.229	1.939	-6.048	-0.153	8.038
46709.869	NaN	-3.457	1.630	9.228	1505.495	1504.029	1510.623	-3.160	-0.168	2.031	-6.201	-0.153	8.344
46710.846	NaN	-3.446	1.630	9.228	1506.227	1503.297	1510.623	-3.298	0.061	2.153	-6.201	-0.230	8.191
46711.823	NaN	-3.457	1.609	9.228	1505.495	1504.029	1509.158	-3.298	0.061	2.061	-6.201	-0.153	8.115
46712.799	NaN	-3.446	1.620	9.239	1506.227	1504.762	1511.355	-3.328	-0.092	1.939	-6.278	-0.306	8.038
46713.776	NaN	-3.446	1.620	9.239	1505.495	1504.029	1511.355	-3.359	-0.168	1.802	-6.048	-0.153	8.268
46714.752	NaN	-3.457	1.620	9.228	1504.762	1505.495	1509.890	-3.252	-0.183	1.802	-6.124	-0.077	8.115
46715.729	NaN	-3.457	1.620	9.228	1505.495	1504.029	1509.890	-2.977	-0.153	1.863	-6.201	-0.153	8.191
46716.705	NaN	-3.457	1.630	9.217	1505.495	1504.762	1510.623	-2.840	-0.107	1.817	-6.124	0.000	8.115
46717.682	NaN	-3.457	1.641	9.228	1504.762	1503.297	1510.623	-2.794	0.107	1.740	-6.124	-0.230	8.268
46718.658	NaN	-3.457	1.641	9.217	1505.495	1503.297	1511.355	-3.176	0.244	1.863	-6.048	-0.306	8.191
46719.635	NaN	-3.457	1.630	9.228	1505.495	1504.029	1509.158	-2.992	0.137	1.847	-6.201	-0.153	8.344
46720.612	NaN	-3.467	1.630	9.228	1505.495	1503.297	1511.355	-2.901	-0.122	1.878	-6.201	-0.230	8.038
46721.588	NaN	-3.467	1.620	9.228	1504.762	1504.029	1509.890	-3.038	-0.321	1.893	-6.201	-0.153	8.115
46722.565	NaN	-3.446	1.641	9.239	1505.495	1504.029	1511.355	-3.221	-0.137	1.817	-6.201	-0.230	8.268
46723.541	NaN	-3.457	1.630	9.239	1505.495	1504.762	1510.623	-3.252	-0.076	1.695	-6.201	-0.077	8.191
46724.518	NaN	-3.467	1.630	9.228	1505.495	1504.029	1509.890	-3.145	-0.046	1.756	-6.278	-0.077	8.191
46725.494	NaN	-3.467	1.641	9.217	1504.762	1504.029	1509.890	-3.115	-0.168	1.939	-6.201	-0.230	8.115
46726.471	NaN	-3.478	1.630	9.207	1505.495	1503.297	1508.425	-2.885	-0.229	1.924	-6.201	-0.230	8.268
46727.448	NaN	-3.478	1.620	9.207	1505.495	1503.297	1508.425	-2.947	-0.229	1.756	-6.124	-0.306	8.115
46728.424	NaN	-3.478	1.630	9.207	1505.495	1504.029	1510.623	-3.145	-0.153	1.664	-6.278	-0.077	8.115
46729.401	NaN	-3.489	1.620	9.207	1504.762	1504.029	1509.158	-3.389	0.076	1.786	-6.201	-0.383	8.115
46730.377	NaN	-3.489	1.620	9.217	1504.762	1504.029	1509.890	-3.328	-0.031	1.863	-6.048	-0.230	8.115
46731.354	NaN	-3.489	1.630	9.228	1505.495	1502.564	1509.890	-3.298	-0.137	1.817	-6.124	-0.153	8.115
46732.330	NaN	-3.478	1.630	9.239	1506.227	1502.564	1509.890	-3.130	-0.061	1.771	-6.048	-0.230	8.115
46733.307	NaN	-3.467	1.630	9.239	1505.495	1503.297	1509.890	-2.870	-0.015	1.695	-6.201	-0.153	8.268
46734.283	NaN	-3.478	1.630	9.250	1504.762	1504.029	1508.425	-2.824	-0.107	1.908	-6.278	-0.153	8.191
46735.260	NaN	-3.478	1.641	9.250	1505.495	1503.297	1509.158	-2.947	0.000	2.000	-6.201	-0.153	8.038
46736.237	NaN	-3.489	1.641	9.250	1505.495	1504.029	1509.158	-3.053	0.122	1.985	-6.201	-0.383	8.115
46737.213	NaN	-3.489	1.620	9.250	1505.495	1502.564	1510.623	-2.962	0.122	1.649	-6.354	-0.383	7.962
46738.190	NaN	-3.489	1.620	9.250	1505.495	1503.297	1509.890	-3.237	-0.122	1.557	-6.201	-0.230	8.191
46739.166	NaN	-3.489	1.620	9.239	1504.762	1502.564	1508.425	-3.237	-0.076	1.725	-6.201	-0.306	8.191
46740.143	NaN	-3.467	1.630	9.239	1505.495	1504.029	1511.355	-3.053	-0.031	1.847	-6.048	-0.153	8.191
46741.119	NaN	-3.467	1.620	9.250	1504.762	1504.029	1511.355	-3.038	-0.122	1.969	-6.124	-0.230	8.115
46742.096	NaN	-3.457	1.620	9.261	1505.495	1503.297	1509.158	-3.099	-0.092	2.076	-6.278	-0.077	8.191
46743.073	NaN	-3.467	1.609	9.250	1505.495	1504.762	1509.158	-3.313	-0.107	2.046	-6.201	-0.153	8.115
46744.049	NaN	-3.467	1.609	9.261	1505.495	1504.029	1510.623	-3.206	-0.046	1.985	-6.124	-0.153	8.268
46745.026	NaN	-3.457	1.620	9.250	1505.495	1504.029	1510.623	-3.008	-0.046	1.756	-6.201	-0.230	8.115
46746.002	NaN	-3.457	1.609	9.239	1505.495	1504.029	1509.890	-2.916	0.000	1.664	-6.201	-0.077	8.344
46746.979	NaN	-3.457	1.609	9.239	1504.029	1504.029	1509.158	-2.931	0.046	1.695	-6.201	-0.153	8.115
46747.955	NaN	-3.457	1.620	9.239	1506.227	1504.762	1510.623	-2.855	-0.031	1.863	-6.124	-0.230	8.038
46748.932	NaN	-3.457	1.620	9.239	1506.227	1504.762	1510.623	-2.870	0.000	2.092	-6.124	-0.230	8.191
46749.908	NaN	-3.457	1.620	9.228	1506.960	1503.297	1510.623	-3.023	-0.061	2.122	-6.124	-0.153	8.038
46750.885	NaN	-3.467	1.620	9.228	1504.762	1504.029	1508.425	-2.962	-0.031	2.153	-6.201	-0.306	8.191
46751.862	NaN	-3.478	1.609	9.217	1506.227	1503.297	1509.158	-2.977	-0.122	1.817	-6.201	-0.153	8.038
46752.838	NaN	-3.457	1.609	9.217	1505.495	1504.762	1509.890	-2.748	-0.122	1.847	-6.278	-0.153	8.115
46753.815	NaN	-3.467	1.620	9.207	1505.495	1504.762	1509.890	-2.641	-0.076	1.756	-6.124	-0.153	8.038
46754.791	NaN	-3.467	1.620	9.228	1505.495	1504.029	1509.890	-2.794	0.000	1.634	-6.048	-0.230	8.191
46755.768	NaN	-3.467	1.620	9.228	1505.495	1504.029	1510.623	-3.008	0.015	1.649	-6.278	-0.306	8.268
46756.744	3736846956.644	-3.467	1.620	9.217	1506.960	1504.762	1510.623	-3.145	0.076	1.893	-6.201	-0.153	8.191
46757.721	NaN	-3.457	1.609	9.228	1506.960	1504.029	1511.355	-2.992	0.214	1.847	-6.048	-0.077	8.115
46758.698	NaN	-3.457	1.609	9.239	1505.495	1504.029	1509.890	-2.992	0.107	1.756	-6.124	-0.383	8.115
46759.674	NaN	-3.446	1.620	9.239	1506.227	1504.762	1510.623	-3.084	0.107	1.817	-6.124	-0.306	8.038
46760.651	NaN	-3.457	1.620	9.228	1504.762	1504.029	1511.355	-2.992	0.153	1.863	-5.971	-0.383	8.268
46761.627	NaN	-3.446	1.641	9.228	1506.227	1504.762	1510.623	-2.947	0.015	1.863	-6.201	-0.230	8.038
46762.604	NaN	-3.446	1.630	9.217	1506.227	1504.762	1510.623	-3.023	0.015	1.863	-6.048	-0.153	8.115
46763.580	NaN	-3.446	1.630	9.207	1504.762	1504.029	1509.890	-3.053	0.000	2.000	-6.201	-0.230	8.115
46764.557	NaN	-3.446	1.630	9.196	1506.227	1504.029	1510.623	-3.069	0.122	1.878	-6.048	-0.153	8.115
46765.533	NaN	-3.457	1.630	9.185	1506.227	1504.029	1509.890	-2.977	0.214	1.878	-5.971	-0.230	8.191
46766.510	NaN	-3.457	1.630	9.196	1506.227	1504.762	1512.821	-3.191	0.092	1.802	-6.201	-0.077	8.191
46767.487	NaN	-3.457	1.641	9.196	1505.495	1504.762	1510.623	-3.130	-0.076	1.817	-6.278	-0.306	8.191
46768.463	NaN	-3.457	1.630	9.196	1505.495	1503.297	1511.355	-3.191	0.031	1.954	-6.124	-0.153	8.115
46769.440	NaN	-3.457	1.630	9.196	1506.227	1503.297	1510.623	-3.160	0.107	2.046	-6.124	-0.306	8.191
46770.416	NaN	-3.446	1.620	9.196	1506.227	1504.762	1510.623	-3.008	0.153	2.183	-6.124	-0.077	8.115
46771.393	NaN	-3.446	1.630	9.207	1505.495	1504.762	1511.355	-2.916	-0.046	1.771	-6.201	-0.230	8.191
46772.369	NaN	-3.446	1.609	9.196	1506.227	1504.762	1511.355	-2.763	0.015	1.542	-6.201	-0.077	8.038
46773.346	NaN	-3.446	1.620	9.196	1506.960	1503.297	1509.158	-2.977	0.000	1.878	-6.201	-0.153	8.191
46774.323	NaN	-3.446	1.620	9.196	1506.960	1503.297	1509.158	-2.992	-0.122	2.107	-6.124	-0.230	8.191
46775.299	NaN	-3.435	1.620	9.207	1505.495	1504.029	1510.623	-2.947	-0.214	1.786	-6.201	-0.153	7.962
46776.276	NaN	-3.435	1.609	9.207	1505.495	1504.762	1510.623	-2.779	-0.153	1.756	-6.124	-0.306	8.115
46777.252	NaN	-3.446	1.620	9.207	1505.495	1504.029	1510.623	-2.794	-0.198	1.939	-6.278	-0.153	8.115
46778.229	NaN	-3.446	1.609	9.207	1505.495	1503.297	1510.623	-2.702	-0.076	1.985	-6.278	-0.230	8.115
46779.205	NaN	-3.446	1.620	9.196	1506.960	1504.029	1511.355	-2.611	0.153	2.092	-6.278	-0.153	8.038
46780.182	NaN	-3.446	1.620	9.207	1506.227	1504.029	1511.355	-2.809	0.122	2.015	-6.201	-0.306	8.115
46781.158	NaN	-3.446	1.620	9.217	1506.227	1504.029	1510.623	-2.733	-0.092	1.985	-4.976	-0.077	8.191
46782.135	NaN	-3.457	1.630	9.228	1506.227	1503.297	1509.890	-2.718	0.061	1.847	-6.278	-0.230	8.115
46783.112	NaN	-3.457	1.620	9.217	1505.495	1503.297	1509.890	-2.809	0.046	1.863	-6.124	-0.153	8.115
46784.088	NaN	-3.457	1.620	9.217	1506.227	1504.029	1511.355	-2.779	-0.015	1.832	-6.124	-0.230	8.038
46810.455	NaN	-3.489	1.630	9.261	1506.227	1505.495	1510.623	-2.840	-0.031	1.802	-6.201	-0.230	8.115
46811.432	NaN	-3.489	1.620	9.250	1506.227	1503.297	1509.158	-2.977	0.000	1.969	-6.201	-0.230	8.115
46812.408	NaN	-3.489	1.620	9.261	1506.227	1503.297	1509.890	-2.901	0.275	2.061	-6.201	-0.306	8.191
46813.385	NaN	-3.489	1.630	9.272	1506.227	1504.029	1509.890	-2.733	0.214	2.015	-6.201	-0.230	8.038
46814.362	NaN	-3.489	1.620	9.261	1504.762	1503.297	1510.623	-2.580	0.229	1.939	-6.124	-0.153	8.268
46815.338	NaN	-3.478	1.630	9.261	1506.227	1504.029	1511.355	-2.748	0.214	1.954	-6.354	-0.153	8.268
46816.315	NaN	-3.478	1.630	9.261	1504.762	1504.762	1510.623	-2.916	0.214	1.832	-5.971	-0.306	8.115
46817.291	NaN	-3.478	1.630	9.261	1506.227	1503.297	1509.890	-2.748	0.168	1.893	-6.201	-0.230	8.191
46818.268	NaN	-3.478	1.630	9.261	1505.495	1504.762	1512.088	-2.611	0.260	2.137	-6.201	-0.306	8.268
46819.244	NaN	-3.478	1.641	9.261	1506.227	1505.495	1511.355	-2.641	0.031	2.122	-6.201	-0.230	8.191
46820.221	NaN	-3.478	1.641	9.261	1505.495	1504.762	1509.890	-2.748	0.000	1.985	-6.278	-0.230	8.115
46821.198	NaN	-3.467	1.641	9.250	1506.227	1504.762	1510.623	-2.992	0.092	1.878	-6.278	-0.230	8.191
46822.174	NaN	-3.467	1.630	9.250	1506.227	1503.297	1510.623	-2.916	0.260	1.847	-6.278	-0.153	8.115
46823.151	NaN	-3.478	1.620	9.261	1505.495	1504.029	1511.355	-2.733	0.214	1.802	-6.201	-0.306	8.115
46824.127	NaN	-3.489	1.620	9.272	1506.960	1504.762	1512.088	-2.565	0.244	1.649	-6.201	-0.230	8.191
46825.104	NaN	-3.478	1.630	9.272	1504.762	1504.029	1509.890	-2.534	0.122	1.695	-6.124	-0.230	8.191
46826.080	NaN	-3.478	1.620	9.283	1505.495	1504.762	1510.623	-2.611	-0.046	1.863	-6.201	-0.306	8.191
46827.057	NaN	-3.478	1.620	9.272	1506.227	1504.762	1512.088	-2.718	0.137	2.031	-7.349	-0.153	8.191
46828.033	NaN	-3.478	1.609	9.261	1504.762	1504.029	1510.623	-2.763	0.153	1.985	-6.048	-0.230	8.115
46829.010	NaN	-3.478	1.609	9.272	1505.495	1504.762	1510.623	-2.672	0.031	2.015	-6.278	-0.230	8.191
46829.987	NaN	-3.489	1.598	9.272	1505.495	1504.762	1511.355	-2.641	-0.031	1.878	-6.354	-0.153	8.191
46830.963	NaN	-3.489	1.609	9.272	1505.495	1504.029	1509.890	-2.687	0.137	2.000	-6.278	-0.230	8.038
46831.940	NaN	-3.489	1.609	9.261	1504.762	1504.029	1509.158	-2.687	0.137	2.046	-6.278	-0.230	8.038
46832.916	NaN	-3.478	1.620	9.250	1506.227	1504.029	1511.355	-2.611	0.137	1.817	-6.124	-0.153	8.268
46833.893	NaN	-3.489	1.620	9.250	1505.495	1504.762	1510.623	-2.489	0.198	1.802	-6.354	-0.077	8.191
46834.869	NaN	-3.489	1.620	9.250	1505.495	1504.762	1512.088	-2.519	0.275	1.817	-6.124	-0.306	8.115
46835.846	3736846956.796	-3.500	1.620	9.250	1505.495	1504.029	1508.425	-2.534	0.076	1.939	-6.201	-0.153	8.191
46836.823	NaN	-3.500	1.620	9.250	1506.227	1504.762	1509.158	-2.702	-0.107	2.015	-6.354	-0.230	8.115
46837.799	NaN	-3.478	1.620	9.250	1506.227	1505.495	1510.623	-2.687	0.122	1.924	-6.278	-0.230	8.038
46838.776	NaN	-3.478	1.620	9.272	1506.227	1504.029	1511.355	-2.718	0.183	1.969	-6.278	-0.153	8.268
46839.752	NaN	-3.478	1.620	9.272	1504.762	1504.762	1511.355	-2.763	0.153	1.908	-6.201	-0.230	8.268
46840.729	NaN	-3.489	1.630	9.283	1505.495	1504.029	1510.623	-2.824	0.061	1.817	-6.124	-0.153	8.268
46841.705	NaN	-3.489	1.630	9.272	1506.227	1504.762	1509.890	-2.931	0.015	1.969	-6.278	-0.230	8.191
46842.682	NaN	-3.489	1.641	9.272	1506.227	1504.029	1510.623	-2.885	0.183	2.015	-6.201	-0.230	8.115
46843.658	NaN	-3.489	1.630	9.261	1504.762	1504.029	1509.158	-2.809	0.183	1.954	-6.201	-0.230	8.191
46844.635	NaN	-3.489	1.630	9.250	1506.960	1502.564	1509.890	-2.519	0.061	1.985	-6.278	-0.153	8.268
46845.612	NaN	-3.500	1.620	9.239	1505.495	1504.029	1510.623	-2.519	0.061	2.061	-6.124	-0.153	7.962
46846.588	NaN	-3.478	1.630	9.239	1506.227	1504.029	1509.890	-2.305	0.122	2.092	-6.048	-0.153	8.115
46847.565	NaN	-3.489	1.630	9.239	1505.495	1504.029	1509.890	-2.687	0.168	1.893	-6.278	-0.230	8.191
46848.541	NaN	-3.489	1.630	9.239	1506.227	1504.029	1510.623	-2.916	0.183	1.756	-6.278	-0.153	8.115
46849.518	NaN	-3.489	1.620	9.239	1504.762	1502.564	1509.158	-2.656	0.153	1.939	-6.278	-0.306	8.115
46850.494	NaN	-3.489	1.630	9.228	1506.227	1504.762	1510.623	-2.504	0.046	1.939	-6.124	-0.153	8.191
46851.471	NaN	-3.489	1.620	9.228	1506.227	1503.297	1509.890	-2.519	0.046	1.832	-6.201	-0.077	8.191
46852.448	NaN	-3.467	1.630	9.239	1505.495	1503.297	1509.890	-2.672	0.061	1.924	-6.124	-0.153	8.268
46853.424	NaN	-3.467	1.630	9.239	1505.495	1504.029	1509.158	-2.565	0.061	1.740	-6.278	-0.230	8.115
46854.401	NaN	-3.467	1.641	9.228	1504.762	1503.297	1509.890	-2.443	0.183	1.740	-6.201	-0.306	8.115
46855.377	NaN	-3.467	1.641	9.228	1506.227	1504.029	1510.623	-2.412	0.183	2.061	-6.278	0.077	8.191
46856.354	NaN	-3.489	1.620	9.228	1505.495	1504.029	1510.623	-2.626	0.183	2.153	-6.201	-0.153	8.268
46857.330	NaN	-3.489	1.630	9.228	1504.762	1502.564	1508.425	-2.718	0.000	2.046	-6.201	-0.230	8.038
46858.307	NaN	-3.478	1.630	9.239	1504.762	1503.297	1509.158	-2.794	-0.015	1.786	-6.278	-0.230	8.115
46859.283	NaN	-3.478	1.630	9.228	1505.495	1502.564	1509.890	-2.733	0.000	1.740	-6.124	-0.153	8.115
46860.260	NaN	-3.467	1.630	9.228	1504.762	1504.029	1509.158	-2.412	0.061	1.817	-6.124	-0.230	8.038
46861.237	NaN	-3.478	1.620	9.217	1504.762	1504.762	1509.890	-2.611	0.214	2.031	-6.124	-0.306	8.115
46862.213	NaN	-3.478	1.620	9.228	1505.495	1503.297	1509.890	-2.901	0.107	2.183	-6.124	-0.230	8.191
46863.190	NaN	-3.478	1.609	9.217	1504.762	1503.297	1509.890	-2.870	-0.092	1.969	-6.124	-0.230	8.115
46864.166	NaN	-3.467	1.620	9.207	1505.495	1504.029	1509.890	-2.565	-0.244	1.969	-6.354	-0.153	8.191
46865.143	NaN	-3.457	1.630	9.217	1504.762	1504.029	1509.890	-2.260	-0.076	2.092	-6.124	-0.153	8.268
46866.119	NaN	-3.467	1.620	9.207	1505.495	1503.297	1510.623	-2.351	0.229	2.031	-4.976	-0.230	8.038
46867.096	NaN	-3.467	1.620	9.207	1504.762	1503.297	1509.890	-2.397	0.321	1.786	-6.201	-0.153	7.962
46868.073	NaN	-3.467	1.630	9.207	1505.495	1504.029	1511.355	-2.427	0.198	2.031	-6.201	-0.153	8.038
46869.049	NaN	-3.467	1.620	9.207	1505.495	1504.762	1511.355	-2.489	0.092	2.015	-6.124	-0.230	8.038
46870.026	NaN	-3.467	1.609	9.196	1505.495	1504.029	1509.890	-2.565	-0.076	2.076	-6.201	-0.153	8.191
46871.002	NaN	-3.457	1.620	9.185	1504.029	1503.297	1509.890	-2.565	0.015	2.092	-6.124	-0.306	7.962
46871.979	NaN	-3.467	1.620	9.185	1504.762	1503.297	1510.623	-2.641	0.122	2.092	-6.201	-0.153	8.115
46872.955	NaN	-3.457	1.620	9.185	1504.029	1503.297	1508.425	-2.656	0.061	2.076	-6.124	-0.306	8.191
46873.932	NaN	-3.446	1.641	9.196	1505.495	1504.029	1509.890	-2.580	0.092	1.908	-6.201	-0.153	7.962
46874.908	NaN	-3.446	1.630	9.196	1505.495	1503.297	1510.623	-2.382	0.122	1.710	-6.201	-0.230	8.115
46875.885	NaN	-3.457	1.630	9.196	1505.495	1503.297	1509.890	-2.336	0.046	1.695	-6.201	-0.230	8.191
46876.862	NaN	-3.467	1.620	9.196	1506.960	1503.297	1509.158	-2.427	0.168	1.878	-6.048	-0.383	8.115
46877.838	NaN	-3.446	1.630	9.196	1506.960	1504.029	1510.623	-2.580	0.122	1.817	-6.201	-0.153	8.038
46878.815	NaN	-3.457	1.620	9.196	1506.227	1503.297	1510.623	-2.580	0.076	1.679	-6.124	-0.306	8.268
46879.791	NaN	-3.457	1.630	9.196	1504.762	1504.029	1510.623	-2.473	0.229	1.756	-6.278	-0.153	8.038
46880.768	NaN	-3.446	1.630	9.185	1504.762	1504.029	1510.623	-2.397	0.137	1.832	-6.201	-0.230	8.115
46881.744	NaN	-3.446	1.641	9.163	1504.762	1504.762	1509.890	-2.473	-0.061	1.908	-6.201	-0.230	8.115
46882.721	NaN	-3.435	1.641	9.163	1504.762	1503.297	1509.890	-2.275	-0.168	1.908	-6.124	-0.230	8.191
46883.698	NaN	-3.435	1.630	9.174	1503.297	1504.029	1510.623	-2.107	-0.046	1.817	-6.201	-0.153	8.115
46884.674	NaN	-3.446	1.620	9.174	1504.762	1504.029	1509.890	-2.244	-0.046	1.725	-6.124	-0.077	8.038
46885.651	NaN	-3.446	1.620	9.185	1504.029	1504.029	1509.890	-2.443	-0.031	1.878	-6.124	-0.230	8.038
46886.627	NaN	-3.424	1.620	9.185	1505.495	1504.029	1509.890	-2.595	0.061	2.046	-6.124	-0.153	8.191
46887.604	NaN	-3.424	1.620	9.174	1504.762	1504.762	1510.623	-2.427	0.122	1.893	-6.201	-0.230	8.191
46888.580	NaN	-3.446	1.609	9.174	1504.029	1504.029	1509.890	-2.198	0.122	1.847	-6.124	-0.306	8.115
46889.557	NaN	-3.435	1.620	9.174	1504.762	1504.029	1509.890	-2.366	-0.061	1.893	-6.124	-0.077	8.038
46890.533	NaN	-3.446	1.620	9.185	1505.495	1504.762	1509.890	-2.229	-0.076	1.985	-6.201	-0.153	8.115
46891.510	NaN	-3.446	1.630	9.196	1506.227	1503.297	1511.355	-2.168	-0.076	1.832	-6.048	-0.077	8.191
46892.487	NaN	-3.446	1.620	9.196	1504.762	1504.762	1510.623	-2.305	0.137	1.832	-6.201	-0.077	8.038
46893.463	NaN	-3.467	1.620	9.196	1505.495	1503.297	1509.158	-2.366	0.198	1.954	-6.124	-0.153	8.038
46894.440	NaN	-3.478	1.620	9.196	1506.960	1504.029	1509.890	-2.290	0.153	2.122	-6.124	-0.230	8.038
46895.416	NaN	-3.457	1.620	9.196	1506.227	1504.029	1510.623	-2.550	0.015	2.000	-6.278	-0.230	8.038
46896.393	NaN	-3.457	1.620	9.196	1505.495	1504.762	1511.355	-2.580	-0.198	1.786	-6.201	-0.230	8.038
46897.369	NaN	-3.446	1.630	9.196	1505.495	1504.029	1510.623	-2.366	-0.168	1.863	-6.201	-0.230	8.115
46898.346	NaN	-3.457	1.641	9.196	1505.495	1503.297	1510.623	-2.305	-0.168	2.031	-6.124	-0.230	7.962
46899.323	NaN	-3.467	1.630	9.196	1505.495	1504.029	1510.623	-2.427	-0.122	1.893	-6.124	-0.306	8.038
46900.299	NaN	-3.457	1.630	9.207	1505.495	1504.762	1510.623	-2.550	-0.092	1.924	-6.278	-0.230	7.962
46901.276	NaN	-3.457	1.630	9.207	1505.495	1503.297	1510.623	-2.656	-0.168	2.015	-6.124	-0.230	8.191
46917.877	NaN	-3.500	1.620	9.250	1504.762	1504.029	1510.623	-2.351	0.046	1.802	-6.201	-0.230	8.191
46918.854	NaN	-3.511	1.630	9.250	1505.495	1503.297	1510.623	-2.321	0.031	1.802	-6.278	-0.230	8.115
46919.830	NaN	-3.511	1.630	9.250	1504.029	1504.029	1509.158	-2.397	0.031	1.863	-6.278	-0.153	8.191
46920.807	NaN	-3.489	1.652	9.261	1504.762	1504.029	1511.355	-2.214	0.153	1.939	-6.201	-0.153	8.115
46921.783	NaN	-3.500	1.641	9.261	1505.495	1503.297	1508.425	-2.168	0.107	1.969	-6.201	-0.153	8.191
46922.760	NaN	-3.489	1.641	9.261	1504.029	1503.297	1509.158	-2.260	0.015	1.969	-6.354	-0.230	8.268
46923.737	NaN	-3.489	1.641	9.272	1505.495	1504.029	1509.890	-2.427	0.061	1.893	-6.354	-0.230	8.191
46924.713	NaN	-3.489	1.641	9.293	1505.495	1503.297	1510.623	-2.397	0.031	1.908	-6.124	-0.153	8.115
46925.690	NaN	-3.500	1.630	9.293	1504.762	1503.297	1509.890	-2.443	0.076	1.740	-6.354	-0.306	8.344
46926.666	NaN	-3.500	1.630	9.283	1504.762	1503.297	1509.890	-2.275	-0.046	1.710	-6.354	-0.230	8.268
46927.643	NaN	-3.500	1.620	9.293	1504.029	1503.297	1509.158	-2.168	-0.061	1.832	-6.278	0.000	8.268
46928.619	NaN	-3.500	1.630	9.293	1505.495	1503.297	1510.623	-2.305	-0.092	1.893	-6.278	-0.230	8.268
46929.596	NaN	-3.500	1.641	9.293	1504.762	1502.564	1509.890	-2.321	-0.107	2.046	-6.431	-0.306	8.191
46930.573	NaN	-3.511	1.630	9.283	1505.495	1504.762	1509.158	-2.427	-0.046	2.260	-6.278	-0.230	8.268
46931.549	NaN	-3.511	1.630	9.283	1505.495	1502.564	1509.890	-2.504	0.153	2.275	-6.278	-0.306	8.038
46932.526	NaN	-3.511	1.641	9.272	1504.762	1503.297	1509.890	-2.382	0.000	1.939	-6.278	-0.230	8.115
46933.502	NaN	-3.511	1.630	9.250	1505.495	1503.297	1509.158	-2.351	-0.092	1.634	-6.201	-0.077	8.344
46934.479	NaN	-3.500	1.641	9.250	1505.495	1503.297	1509.158	-2.107	-0.046	1.832	-6.354	-0.230	8.191
46935.455	NaN	-3.511	1.641	9.250	1506.227	1504.762	1510.623	-2.229	0.076	2.015	-6.278	-0.153	8.191
46936.432	NaN	-3.511	1.630	9.250	1506.227	1502.564	1509.890	-2.366	0.137	2.015	-6.124	-0.077	8.191
46937.408	NaN	-3.500	1.630	9.261	1506.227	1503.297	1511.355	-2.443	0.000	1.832	-6.354	-0.153	8.115
46938.385	NaN	-3.511	1.630	9.261	1506.227	1504.029	1508.425	-2.443	-0.015	1.802	-6.278	-0.230	8.115
46939.362	NaN	-3.511	1.620	9.261	1504.762	1503.297	1508.425	-2.504	0.015	1.786	-6.124	-0.077	8.115
46940.338	NaN	-3.500	1.630	9.272	1506.227	1504.029	1510.623	-2.519	0.031	1.725	-6.201	-0.077	8.191
46941.315	NaN	-3.511	1.630	9.272	1506.227	1503.297	1512.088	-2.153	-0.076	1.618	-6.278	-0.153	8.115
46942.291	NaN	-3.511	1.620	9.272	1506.227	1504.029	1511.355	-2.168	-0.137	1.710	-6.201	-0.153	8.268
46943.268	NaN	-3.511	1.620	9.261	1505.495	1504.029	1510.623	-2.290	-0.015	1.740	-6.354	-0.230	8.268
46944.244	NaN	-3.522	1.630	9.250	1506.960	1504.762	1511.355	-2.489	-0.046	1.695	-4.976	-0.153	8.191
46945.221	NaN	-3.522	1.630	9.250	1505.495	1504.029	1510.623	-2.534	-0.031	1.664	-6.201	-0.153	8.115
46946.198	NaN	-3.511	1.630	9.261	1506.227	1504.762	1510.623	-2.550	0.107	1.863	-6.201	-0.230	8.268
46947.174	NaN	-3.511	1.641	9.261	1505.495	1504.029	1511.355	-2.351	0.168	1.756	-6.124	-0.230	8.115
46948.151	NaN	-3.511	1.641	9.261	1505.495	1502.564	1510.623	-2.275	-0.031	1.649	-6.124	-0.077	8.191
46949.127	NaN	-3.500	1.630	9.283	1506.227	1504.762	1511.355	-2.351	-0.076	1.893	-6.278	-0.306	8.038
46950.104	NaN	-3.500	1.630	9.293	1506.227	1504.029	1509.890	-2.244	-0.122	2.061	-6.124	-0.077	8.268
46951.080	NaN	-3.500	1.630	9.283	1504.029	1503.297	1510.623	-2.290	-0.198	1.863	-7.349	-0.230	8.115
46952.057	NaN	-3.489	1.620	9.272	1505.495	1504.029	1508.425	-2.198	-0.015	1.618	-6.201	-0.230	8.115
46953.033	NaN	-3.489	1.620	9.261	1506.227	1504.029	1510.623	-2.366	-0.015	1.573	-6.354	-0.230	8.038
46954.010	NaN	-3.478	1.630	9.261	1506.960	1504.029	1510.623	-2.397	-0.031	1.588	-6.278	-0.153	8.038
46954.987	NaN	-3.478	1.630	9.272	1505.495	1504.029	1510.623	-2.153	0.000	1.817	-6.124	-0.153	8.191
46955.963	NaN	-3.489	1.630	9.272	1505.495	1503.297	1509.890	-2.076	0.000	1.893	-6.124	-0.230	8.268
46956.940	NaN	-3.478	1.620	9.261	1504.762	1504.029	1509.890	-2.137	0.076	1.802	-6.124	-0.306	8.115
46957.916	NaN	-3.478	1.641	9.239	1504.762	1504.029	1510.623	-2.168	0.076	1.832	-6.278	-0.230	8.268
46958.893	NaN	-3.478	1.641	9.239	1505.495	1504.029	1510.623	-2.473	-0.031	1.756	-6.124	-0.230	8.115
46959.869	NaN	-3.467	1.641	9.239	1505.495	1504.029	1509.890	-2.702	-0.168	1.725	-6.048	-0.230	8.268
46960.846	NaN	-3.478	1.641	9.250	1505.495	1503.297	1510.623	-2.550	-0.107	1.649	-6.124	-0.230	8.191
46961.823	NaN	-3.478	1.630	9.239	1506.227	1503.297	1509.890	-2.275	0.000	1.756	-6.354	-0.230	8.038
46962.799	NaN	-3.457	1.620	9.239	1506.227	1504.762	1511.355	-2.397	0.092	1.832	-6.201	-0.306	8.115
46963.776	NaN	-3.457	1.620	9.228	1505.495	1504.762	1511.355	-2.366	-0.122	1.802	-6.201	-0.077	8.191
46964.752	NaN	-3.457	1.609	9.239	1505.495	1504.029	1509.158	-2.092	-0.122	1.695	-6.124	-0.230	8.268
46965.729	NaN	-3.467	1.609	9.239	1505.495	1504.029	1510.623	-2.107	0.092	1.511	-6.201	-0.153	8.191
46966.705	NaN	-3.467	1.620	9.228	1505.495	1504.029	1510.623	-2.275	0.168	1.527	-6.201	-0.153	8.191
46967.682	NaN	-3.467	1.630	9.228	1505.495	1504.029	1510.623	-2.443	-0.046	1.634	-6.201	-0.230	8.115
46968.658	NaN	-3.467	1.620	9.228	1505.495	1504.029	1511.355	-2.458	-0.061	1.802	-6.124	-0.230	8.115
46969.635	NaN	-3.467	1.630	9.217	1504.762	1504.762	1510.623	-2.412	-0.061	1.847	-5.971	-0.077	8.191
46970.612	NaN	-3.467	1.630	9.207	1505.495	1504.029	1510.623	-2.458	-0.107	1.802	-6.124	-0.153	8.038
46971.588	NaN	-3.457	1.641	9.217	1505.495	1504.029	1511.355	-2.366	-0.076	1.832	-6.278	-0.230	8.038
46972.565	NaN	-3.457	1.630	9.217	1506.227	1504.762	1509.890	-2.168	0.015	1.710	-6.278	-0.153	8.115
46973.541	NaN	-3.457	1.630	9.217	1505.495	1504.029	1512.088	-2.260	0.015	1.664	-6.124	-0.077	8.038
46974.518	NaN	-3.446	1.620	9.217	1505.495	1505.495	1511.355	-2.290	-0.076	1.664	-6.201	-0.153	8.038
46975.494	NaN	-3.457	1.620	9.207	1506.960	1504.762	1509.890	-2.382	-0.122	1.817	-6.354	-0.230	8.038
46976.471	NaN	-3.446	1.630	9.196	1506.227	1504.029	1510.623	-2.382	0.061	1.863	-6.124	-0.230	8.115
46977.448	NaN	-3.446	1.641	9.196	1506.227	1504.762	1510.623	-2.519	-0.122	1.603	-6.124	-0.230	8.115
46978.424	NaN	-3.457	1.641	9.196	1505.495	1504.029	1510.623	-2.427	-0.137	1.603	-6.201	-0.153	8.115
46979.401	NaN	-3.457	1.630	9.185	1505.495	1504.029	1509.890	-2.397	-0.107	1.664	-6.201	-0.153	8.115
46980.377	NaN	-3.446	1.641	9.185	1504.762	1504.762	1511.355	-2.366	-0.107	1.786	-6.124	-0.230	8.115
46981.354	NaN	-3.446	1.641	9.185	1504.762	1504.029	1511.355	-2.427	-0.137	1.847	-6.201	-0.306	8.115
46982.330	NaN	-3.435	1.641	9.196	1504.762	1504.029	1510.623	-2.382	-0.183	1.725	-6.201	-0.077	8.038
46983.307	NaN	-3.446	1.630	9.196	1504.762	1504.029	1510.623	-2.076	-0.107	1.618	-4.976	-0.077	8.115
46984.283	NaN	-3.457	1.641	9.196	1504.029	1503.297	1511.355	-2.076	-0.107	1.710	-6.048	-0.153	8.115
46985.260	NaN	-3.424	1.641	9.185	1504.762	1504.762	1509.890	-2.412	-0.107	1.679	-6.201	-0.230	8.038
46986.237	NaN	-3.435	1.641	9.174	1504.762	1504.029	1510.623	-2.489	-0.046	1.725	-6.124	-0.230	8.038
46987.213	NaN	-3.435	1.652	9.174	1503.297	1502.564	1509.158	-2.351	-0.107	1.527	-6.124	-0.153	7.962
46988.190	NaN	-3.457	1.652	9.174	1504.029	1502.564	1510.623	-2.412	-0.244	1.435	-5.971	-0.153	8.115
46989.166	NaN	-3.446	1.652	9.174	1503.297	1503.297	1509.890	-2.382	-0.305	1.481	-6.201	-0.230	8.038
46990.143	NaN	-3.446	1.652	9.174	1504.029	1503.297	1509.890	-2.290	-0.244	1.450	-6.201	-0.230	8.115
46991.119	NaN	-3.435	1.663	9.185	1504.762	1504.029	1510.623	-2.244	-0.137	1.511	-6.201	-0.230	8.268
46992.096	NaN	-3.435	1.652	9.185	1504.762	1504.029	1509.890	-2.198	-0.046	1.634	-6.124	-0.230	8.038
46993.073	NaN	-3.435	1.641	9.185	1504.762	1504.029	1509.890	-2.351	-0.214	1.466	-6.124	-0.153	8.115
46994.049	NaN	-3.435	1.652	9.174	1504.029	1502.564	1509.890	-2.458	-0.290	1.511	-6.124	-0.153	8.038
46995.026	NaN	-3.446	1.652	9.185	1504.029	1504.029	1509.158	-2.366	-0.198	1.695	-6.201	-0.230	8.038
46996.002	NaN	-3.446	1.641	9.185	1504.762	1503.297	1510.623	-2.321	-0.092	1.771	-6.124	-0.153	8.038
46996.979	NaN	-3.446	1.641	9.185	1503.297	1503.297	1510.623	-2.229	-0.092	1.679	-6.048	-0.153	8.038
46997.955	NaN	-3.446	1.641	9.185	1504.762	1504.029	1510.623	-2.626	-0.061	1.481	-6.201	-0.230	8.038
46998.932	NaN	-3.446	1.641	9.185	1504.029	1503.297	1509.158	-2.672	-0.015	1.359	-6.124	-0.230	8.038
46999.908	NaN	-3.446	1.652	9.185	1505.495	1504.029	1509.158	-2.321	-0.092	1.542	-6.048	-0.230	7.962
47000.885	NaN	-3.446	1.641	9.174	1504.029	1503.297	1509.158	-2.397	-0.137	1.496	-5.971	-0.230	8.038
47001.862	NaN	-3.446	1.652	9.174	1504.762	1503.297	1509.890	-2.260	-0.168	1.573	-6.201	-0.153	8.191
47002.838	NaN	-3.446	1.641	9.174	1502.564	1504.029	1509.890	-2.198	-0.183	1.710	-6.278	-0.153	8.038
47003.815	NaN	-3.446	1.641	9.196	1504.029	1503.297	1509.158	-2.672	-0.076	1.649	-6.124	-0.230	8.115
47004.791	NaN	-3.457	1.641	9.196	1505.495	1504.029	1511.355	-2.504	0.076	1.527	-6.124	-0.077	8.115
47005.768	NaN	-3.457	1.641	9.196	1504.762	1503.297	1509.890	-2.366	0.000	1.588	-6.278	-0.230	8.268
47006.744	NaN	-3.457	1.663	9.196	1506.227	1504.029	1510.623	-2.366	-0.260	1.634	-6.124	-0.077	8.115
47007.721	NaN	-3.467	1.641	9.207	1504.029	1504.029	1510.623	-2.763	-0.244	1.496	-6.124	-0.077	8.115
47008.698	NaN	-3.457	1.630	9.196	1504.029	1503.297	1509.158	-2.656	-0.168	1.511	-6.201	-0.306	8.038
47056.549	NaN	-3.489	1.630	9.272	1505.495	1503.297	1510.623	-2.534	0.061	1.267	-6.278	-0.230	8.191
47057.526	NaN	-3.478	1.641	9.272	1506.227	1504.029	1510.623	-2.641	-0.046	1.267	-6.201	-0.230	8.191
47058.502	NaN	-3.489	1.630	9.261	1506.227	1502.564	1509.890	-2.580	-0.198	1.298	-6.201	-0.153	8.268
47059.479	NaN	-3.500	1.630	9.272	1504.029	1503.297	1509.158	-2.443	-0.137	1.130	-6.048	-0.230	8.115
47060.455	NaN	-3.489	1.630	9.272	1506.227	1505.495	1510.623	-2.351	0.076	1.115	-6.201	-0.153	8.191
47061.432	NaN	-3.489	1.630	9.261	1506.227	1502.564	1509.158	-2.519	0.092	1.130	-5.053	-0.153	8.191
47062.408	NaN	-3.478	1.641	9.272	1504.762	1504.029	1509.890	-2.733	-0.061	1.237	-6.201	0.000	8.191
47063.385	NaN	-3.478	1.641	9.283	1504.029	1503.297	1509.158	-2.641	-0.046	1.420	-6.201	-0.153	8.191
47064.362	NaN	-3.467	1.641	9.272	1505.495	1503.297	1508.425	-2.641	0.031	1.344	-6.201	-0.230	8.268
47065.338	NaN	-3.457	1.630	9.261	1504.762	1504.029	1509.158	-2.565	0.153	1.221	-6.201	-0.230	7.962
47066.315	NaN	-3.467	1.641	9.261	1505.495	1504.029	1509.158	-2.473	0.046	1.084	-6.124	-0.230	8.191
47067.291	NaN	-3.467	1.641	9.250	1506.227	1503.297	1509.158	-2.641	0.107	1.206	-6.124	-0.306	8.115
47068.268	NaN	-3.478	1.652	9.239	1504.762	1503.297	1509.890	-3.038	0.046	1.145	-5.053	-0.230	8.268
47069.244	NaN	-3.467	1.641	9.217	1504.762	1503.297	1509.158	-2.824	0.076	1.206	-6.201	-0.153	8.268
47070.221	NaN	-3.457	1.652	9.228	1504.762	1504.029	1510.623	-2.519	0.000	1.069	-6.278	-0.153	8.038
47071.198	NaN	-3.457	1.652	9.217	1505.495	1503.297	1510.623	-2.412	0.015	1.160	-6.124	-0.153	8.038
47072.174	NaN	-3.467	1.641	9.228	1505.495	1503.297	1509.890	-2.412	0.015	1.176	-6.124	-0.153	8.115
47073.151	NaN	-3.467	1.630	9.217	1504.762	1503.297	1509.158	-2.626	-0.076	1.130	-6.354	-0.153	8.038
47074.127	NaN	-3.457	1.652	9.228	1506.960	1504.029	1509.890	-2.550	0.015	1.115	-6.201	-0.153	8.191
47075.104	NaN	-3.446	1.652	9.217	1505.495	1504.762	1510.623	-2.611	0.153	1.145	-6.278	-0.153	8.191
47076.080	NaN	-3.435	1.652	9.207	1506.227	1503.297	1510.623	-2.748	-0.015	1.008	-6.124	-0.153	7.962
47077.057	NaN	-3.435	1.641	9.207	1505.495	1504.762	1509.890	-2.504	0.061	0.962	-6.124	-0.230	8.115
47078.033	NaN	-3.446	1.641	9.207	1506.227	1504.029	1509.158	-2.458	0.214	1.176	-6.124	-0.077	8.038
47079.010	NaN	-3.435	1.641	9.207	1505.495	1504.762	1509.890	-2.504	0.153	1.191	-6.278	-0.306	8.038
47079.987	NaN	-3.435	1.641	9.196	1505.495	1504.762	1511.355	-2.687	0.137	1.145	-6.124	-0.230	8.268
47080.963	NaN	-3.435	1.641	9.196	1504.762	1503.297	1510.623	-2.718	0.168	0.977	-6.201	-0.153	8.038
47081.940	NaN	-3.446	1.641	9.196	1504.762	1504.029	1509.890	-2.595	0.061	1.115	-6.124	-0.153	8.038
47082.916	NaN	-3.435	1.641	9.196	1506.227	1504.762	1510.623	-2.504	-0.015	1.328	-6.048	-0.230	8.115
47083.893	NaN	-3.424	1.641	9.174	1504.762	1503.297	1510.623	-2.504	0.015	1.252	-6.124	-0.230	8.038
47084.869	NaN	-3.413	1.641	9.185	1504.029	1504.762	1509.890	-2.519	0.015	0.992	-6.048	-0.153	8.268
47085.846	NaN	-3.413	1.641	9.185	1505.495	1503.297	1511.355	-2.427	-0.076	0.885	-6.124	-0.153	8.115
47086.823	NaN	-3.424	1.630	9.174	1504.762	1504.029	1510.623	-2.580	-0.015	0.931	-6.124	-0.230	8.115
47087.799	NaN	-3.413	1.630	9.185	1504.762	1504.762	1512.088	-2.840	-0.122	1.099	-6.278	-0.230	8.038
47088.776	NaN	-3.413	1.641	9.185	1504.762	1503.297	1509.158	-2.702	-0.107	1.145	-6.201	-0.306	8.038
47089.752	NaN	-3.413	1.630	9.185	1504.762	1504.029	1510.623	-2.473	-0.076	0.962	-6.201	-0.153	8.115
47090.729	NaN	-3.424	1.620	9.174	1504.762	1504.029	1510.623	-2.305	0.015	1.038	-6.048	-0.383	8.115
47091.705	NaN	-3.413	1.620	9.174	1505.495	1503.297	1510.623	-2.458	-0.076	1.115	-6.124	-0.383	8.115
47092.682	NaN	-3.424	1.620	9.163	1504.762	1503.297	1510.623	-2.901	-0.107	1.084	-6.048	-0.230	8.038
47093.658	NaN	-3.424	1.620	9.163	1505.495	1504.029	1511.355	-2.870	-0.137	0.962	-5.971	-0.077	8.038
47094.635	NaN	-3.413	1.620	9.152	1504.029	1503.297	1509.158	-2.763	0.046	0.840	-6.201	-0.077	8.191
47095.612	NaN	-3.435	1.620	9.152	1504.762	1504.029	1511.355	-2.702	0.000	0.947	-6.201	-0.230	8.191
47096.588	NaN	-3.424	1.630	9.163	1504.029	1504.762	1510.623	-2.763	-0.031	1.191	-6.124	-0.077	8.115
47097.565	NaN	-3.424	1.641	9.163	1504.762	1504.029	1510.623	-2.626	-0.015	1.282	-6.201	-0.306	8.191
47098.541	NaN	-3.413	1.630	9.163	1505.495	1504.029	1509.890	-2.489	0.000	1.237	-6.048	-0.306	8.038
47099.518	NaN	-3.424	1.630	9.152	1504.762	1504.029	1510.623	-2.550	0.000	1.069	-6.201	-0.153	8.038
47100.494	NaN	-3.424	1.641	9.141	1504.762	1505.495	1510.623	-2.702	-0.214	1.084	-6.048	-0.230	8.038
47101.471	NaN	-3.424	1.630	9.163	1505.495	1504.029	1510.623	-2.519	-0.137	0.931	-5.971	-0.153	8.038
47102.448	NaN	-3.435	1.641	9.163	1505.495	1503.297	1509.890	-2.550	0.092	1.053	-6.278	0.000	7.962
47103.424	NaN	-3.435	1.620	9.174	1505.495	1504.029	1509.890	-2.489	0.107	1.313	-6.048	-0.230	8.038
47104.401	NaN	-3.446	1.620	9.174	1505.495	1504.029	1509.158	-2.473	-0.015	1.145	-6.201	-0.230	8.191
47105.377	NaN	-3.446	1.620	9.174	1504.762	1502.564	1509.158	-2.336	-0.275	0.977	-6.201	-0.306	7.962
47106.354	NaN	-3.446	1.630	9.174	1504.762	1502.564	1509.158	-2.275	-0.153	0.840	-6.124	-0.230	8.115
47107.330	NaN	-3.446	1.641	9.174	1504.029	1504.762	1511.355	-2.504	-0.031	0.947	-7.273	-0.153	8.268
47108.307	NaN	-3.457	1.620	9.185	1504.029	1503.297	1509.890	-2.718	0.092	1.115	-5.971	-0.153	8.038
47109.283	NaN	-3.446	1.620	9.185	1504.762	1504.029	1510.623	-2.763	-0.015	1.206	-6.278	-0.153	8.115
47110.260	NaN	-3.457	1.620	9.185	1504.029	1504.762	1510.623	-2.550	0.061	1.191	-6.201	-0.230	8.115
47111.237	NaN	-3.446	1.620	9.185	1503.297	1503.297	1508.425	-2.611	0.031	1.130	-6.201	-0.153	8.115
47112.213	NaN	-3.424	1.620	9.185	1504.762	1503.297	1509.158	-2.534	-0.031	0.977	-6.124	-0.153	8.191
47113.190	NaN	-3.457	1.620	9.174	1505.495	1504.029	1509.158	-2.489	0.000	0.885	-6.124	-0.153	8.191
47114.166	NaN	-3.446	1.630	9.174	1503.297	1504.029	1510.623	-2.595	0.092	0.962	-6.124	-0.230	8.038
47115.143	NaN	-3.446	1.620	9.174	1504.762	1503.297	1509.890	-2.534	-0.153	1.023	-6.124	-0.230	8.191
47116.119	NaN	-3.457	1.630	9.185	1504.029	1501.832	1509.890	-2.534	-0.122	0.916	-6.201	-0.230	8.115
47117.096	3736846956.963	-3.457	1.641	9.207	1505.495	1504.029	1510.623	-2.473	-0.015	1.069	-6.278	-0.153	8.038
47118.073	NaN	-3.478	1.630	9.196	1505.495	1504.029	1509.158	-2.351	-0.015	1.099	-6.354	-0.306	8.115
47119.049	NaN	-3.467	1.620	9.217	1504.029	1504.762	1509.158	-2.489	0.092	0.977	-6.201	-0.153	8.344
47120.026	NaN	-3.446	1.641	9.228	1506.227	1504.029	1509.890	-2.458	0.137	0.794	-6.201	-0.230	8.115
47121.002	NaN	-3.457	1.641	9.228	1506.227	1504.029	1509.890	-2.519	0.092	0.809	-6.201	-0.153	8.268
47121.979	NaN	-3.467	1.620	9.250	1504.762	1503.297	1509.890	-2.534	0.046	0.763	-6.354	-0.077	8.115
47122.955	NaN	-3.467	1.630	9.261	1506.227	1503.297	1509.890	-2.489	0.153	0.901	-6.124	-0.153	8.344
47123.932	NaN	-3.457	1.630	9.261	1506.227	1503.297	1512.088	-2.443	0.046	0.977	-6.124	-0.306	8.191
47124.908	NaN	-3.457	1.641	9.261	1506.227	1503.297	1510.623	-2.489	-0.168	0.962	-6.201	-0.077	8.268
47125.885	NaN	-3.457	1.641	9.261	1504.029	1504.029	1509.158	-2.534	-0.275	0.947	-6.201	-0.230	8.268
47126.862	NaN	-3.467	1.641	9.272	1504.762	1504.029	1509.890	-2.550	-0.153	0.794	-6.124	-0.230	8.191
47127.838	NaN	-3.478	1.641	9.283	1504.762	1503.297	1509.890	-2.595	-0.046	0.702	-6.201	-0.306	8.038
47128.815	NaN	-3.489	1.630	9.272	1504.762	1503.297	1509.158	-2.504	0.122	0.855	-6.278	-0.153	8.268
47129.791	NaN	-3.489	1.630	9.272	1505.495	1503.297	1509.158	-2.351	0.183	0.977	-6.124	-0.153	8.344
47130.768	NaN	-3.489	1.630	9.272	1505.495	1503.297	1509.890	-2.412	0.290	1.069	-6.278	-0.153	8.268
47131.744	NaN	-3.478	1.630	9.272	1505.495	1503.297	1510.623	-2.412	0.107	1.038	-6.201	-0.306	8.191
47132.721	NaN	-3.478	1.641	9.283	1506.960	1504.029	1510.623	-2.565	-0.046	0.977	-6.201	-0.306	7.962
47133.698	NaN	-3.489	1.630	9.283	1506.227	1504.762	1510.623	-2.565	0.092	1.069	-6.278	-0.230	8.268
47134.674	NaN	-3.489	1.620	9.293	1506.227	1504.029	1509.890	-2.504	0.183	0.916	-6.201	-0.153	8.268
47135.651	NaN	-3.500	1.609	9.283	1505.495	1503.297	1510.623	-2.366	0.092	0.931	-6.201	-0.153	8.268
47136.627	NaN	-3.489	1.620	9.293	1506.227	1504.762	1509.890	-2.336	0.061	0.885	-6.278	-0.077	8.038
47137.604	NaN	-3.500	1.630	9.283	1505.495	1504.762	1511.355	-2.458	-0.015	0.809	-6.124	-0.077	8.268
47138.580	NaN	-3.500	1.630	9.283	1505.495	1504.029	1510.623	-2.702	-0.122	0.916	-6.278	-0.230	8.115
47139.557	NaN	-3.500	1.630	9.283	1505.495	1504.029	1511.355	-2.534	-0.122	0.947	-6.201	-0.153	8.191
47140.533	NaN	-3.500	1.630	9.272	1504.762	1504.762	1510.623	-2.458	-0.046	0.962	-6.278	-0.306	8.268
47141.510	NaN	-3.500	1.641	9.272	1506.227	1504.029	1512.821	-2.366	0.244	1.038	-6.201	-0.306	8.038
47142.487	NaN	-3.500	1.641	9.272	1506.227	1503.297	1510.623	-2.458	0.229	1.038	-6.201	-0.306	8.344
47143.463	NaN	-3.500	1.641	9.283	1505.495	1503.297	1510.623	-2.443	0.168	0.916	-6.124	-0.306	8.191
47144.440	NaN	-3.511	1.630	9.283	1506.227	1504.029	1511.355	-2.672	0.046	0.992	-5.971	-0.153	8.268
47145.416	NaN	-3.500	1.641	9.283	1504.029	1504.762	1511.355	-2.611	-0.061	1.160	-6.431	-0.077	8.115
47146.393	NaN	-3.500	1.641	9.272	1506.960	1504.029	1509.890	-2.702	0.046	1.038	-6.278	-0.077	8.191
47147.369	NaN	-3.489	1.630	9.283	1505.495	1504.029	1510.623	-2.779	0.183	0.931	-6.278	-0.077	8.191
47148.346	NaN	-3.489	1.641	9.283	1505.495	1503.297	1509.890	-2.824	0.168	1.023	-6.124	-0.230	8.038
47149.323	NaN	-3.500	1.630	9.293	1506.227	1504.762	1511.355	-2.504	0.046	0.947	-6.124	-0.230	8.191
47150.299	NaN	-3.489	1.641	9.293	1506.227	1504.762	1511.355	-2.427	-0.015	0.855	-6.201	-0.153	8.038
47151.276	NaN	-3.478	1.641	9.293	1504.762	1504.029	1510.623	-2.443	0.107	0.962	-6.278	-0.230	8.191
47152.252	NaN	-3.489	1.641	9.293	1505.495	1504.029	1508.425	-2.504	0.015	1.023	-6.278	-0.230	8.268
47153.229	NaN	-3.500	1.630	9.293	1504.762	1504.029	1511.355	-2.351	-0.153	0.840	-6.278	-0.306	8.191
47154.205	NaN	-3.489	1.641	9.283	1506.227	1504.762	1511.355	-2.305	-0.183	0.840	-6.278	-0.230	8.115
47155.182	NaN	-3.489	1.630	9.272	1505.495	1504.762	1510.623	-2.458	0.031	0.901	-6.354	-0.230	8.268
47156.158	NaN	-3.489	1.630	9.272	1506.227	1504.029	1511.355	-2.443	0.168	0.947	-6.201	-0.230	8.344
47157.135	NaN	-3.489	1.620	9.261	1505.495	1503.297	1511.355	-2.305	0.260	0.870	-6.278	-0.306	8.268
47158.112	NaN	-3.511	1.609	9.261	1505.495	1504.762	1510.623	-2.168	0.214	0.763	-6.201	-0.306	8.115
47159.088	NaN	-3.500	1.630	9.261	1507.692	1504.029	1509.890	-2.198	0.275	0.885	-6.048	-0.153	8.191
47160.065	NaN	-3.489	1.630	9.261	1506.227	1504.029	1510.623	-2.336	0.168	1.145	-6.278	-0.153	8.191
47161.041	NaN	-3.489	1.620	9.261	1505.495	1504.029	1509.890	-2.595	0.107	0.977	-6.124	-0.230	8.344
47162.018	NaN	-3.489	1.609	9.272	1504.762	1504.029	1509.890	-2.550	0.031	0.962	-6.201	-0.153	8.191
47162.994	NaN	-3.500	1.620	9.261	1505.495	1504.762	1510.623	-2.489	-0.015	1.053	-6.354	-0.153	8.191
47163.971	NaN	-3.489	1.630	9.272	1503.297	1504.029	1510.623	-2.427	0.076	1.038	-6.201	-0.230	8.268
47164.948	NaN	-3.489	1.630	9.283	1505.495	1504.029	1511.355	-2.672	0.137	0.763	-6.124	-0.153	8.268
47165.924	NaN	-3.489	1.630	9.272	1505.495	1503.297	1511.355	-2.519	-0.031	0.809	-6.201	-0.230	8.268
47166.901	NaN	-3.489	1.620	9.272	1505.495	1504.029	1510.623	-2.397	-0.061	0.855	-6.201	0.000	8.115
47167.877	NaN	-3.478	1.620	9.261	1506.960	1504.762	1510.623	-2.321	0.183	0.840	-6.124	-0.230	8.191
47168.854	NaN	-3.489	1.609	9.250	1505.495	1503.297	1510.623	-2.397	0.290	0.962	-6.048	-0.153	8.191
47169.830	NaN	-3.489	1.620	9.239	1505.495	1503.297	1509.890	-2.366	0.260	0.916	-6.201	-0.077	8.115
47170.807	NaN	-3.478	1.620	9.239	1505.495	1503.297	1508.425	-2.550	0.214	0.794	-6.278	-0.230	8.191
47171.783	NaN	-3.500	1.630	9.228	1504.762	1503.297	1509.890	-2.397	0.198	0.870	-6.201	-0.230	8.191
47172.760	NaN	-3.489	1.641	9.239	1505.495	1503.297	1511.355	-2.244	0.198	0.855	-6.124	-0.230	8.191
47173.737	NaN	-3.489	1.630	9.228	1505.495	1504.029	1509.890	-2.397	0.107	0.916	-6.201	-0.230	7.962
47174.713	NaN	-3.478	1.630	9.228	1505.495	1502.564	1509.890	-2.550	0.046	0.840	-6.201	-0.153	8.268
47175.690	NaN	-3.478	1.641	9.228	1504.762	1503.297	1509.890	-2.427	0.092	0.916	-6.048	-0.230	8.191
47176.666	NaN	-3.478	1.630	9.228	1504.762	1504.029	1509.890	-2.580	0.137	0.947	-6.201	-0.077	8.191
47177.643	NaN	-3.457	1.652	9.239	1506.227	1504.029	1509.890	-2.489	0.153	0.962	-6.124	-0.306	8.115
47178.619	NaN	-3.467	1.630	9.239	1505.495	1504.029	1510.623	-2.397	0.168	0.962	-6.201	-0.153	8.115
47179.596	NaN	-3.467	1.620	9.250	1505.495	1502.564	1510.623	-2.519	0.076	0.885	-6.201	-0.153	8.191
47180.573	NaN	-3.467	1.620	9.228	1506.227	1504.029	1510.623	-2.748	0.076	0.840	-6.124	-0.153	8.191
47181.549	NaN	-3.457	1.620	9.217	1506.227	1503.297	1509.890	-2.718	0.321	0.962	-6.278	-0.230	8.191
47182.526	NaN	-3.435	1.620	9.207	1506.227	1504.029	1511.355	-2.443	0.397	1.130	-6.201	-0.230	8.115
47183.502	NaN	-3.457	1.620	9.217	1506.227	1504.762	1510.623	-2.427	0.397	0.977	-6.124	-0.306	8.191
47184.479	NaN	-3.446	1.630	9.207	1506.227	1504.029	1512.088	-2.611	0.427	0.809	-6.201	-0.230	8.115
47185.455	NaN	-3.457	1.630	9.217	1506.960	1504.762	1510.623	-2.687	0.183	0.733	-6.201	-0.153	8.115
47186.432	NaN	-3.446	1.630	9.217	1504.762	1504.762	1510.623	-2.473	0.122	0.947	-6.201	-0.306	8.191
47187.408	NaN	-3.435	1.630	9.207	1505.495	1504.029	1509.890	-2.397	0.137	1.023	-5.971	-0.153	8.038
47188.385	NaN	-3.446	1.630	9.207	1504.762	1503.297	1508.425	-2.458	0.137	1.023	-6.048	-0.230	7.962
47189.362	NaN	-3.446	1.641	9.196	1505.495	1504.029	1510.623	-2.351	0.137	0.992	-6.124	-0.077	8.038
47190.338	NaN	-3.446	1.641	9.196	1506.227	1503.297	1509.890	-2.412	0.183	0.870	-6.201	-0.153	8.115
47191.315	NaN	-3.435	1.641	9.196	1504.762	1503.297	1509.890	-2.504	0.092	0.794	-6.124	-0.230	8.115
47192.291	NaN	-3.446	1.630	9.196	1506.227	1504.029	1509.890	-2.458	0.107	0.977	-6.048	-0.077	8.038
47193.268	NaN	-3.446	1.630	9.174	1504.029	1502.564	1509.890	-2.504	0.244	0.962	-6.201	-0.153	8.191
47194.244	NaN	-3.446	1.641	9.163	1505.495	1504.762	1509.890	-2.397	0.214	0.870	-6.201	-0.153	8.191
47195.221	NaN	-3.435	1.641	9.163	1505.495	1503.297	1509.158	-2.351	0.061	0.824	-6.048	-0.077	8.038
47196.198	NaN	-3.435	1.641	9.174	1504.029	1504.029	1512.088	-2.412	0.168	0.916	-6.048	-0.077	7.885
47197.174	NaN	-3.435	1.652	9.163	1505.495	1504.029	1511.355	-2.656	0.214	0.962	-6.124	-0.230	7.962
47198.151	NaN	-3.424	1.630	9.163	1504.762	1503.297	1509.890	-2.687	0.046	0.885	-6.048	-0.153	8.038
47199.127	NaN	-3.413	1.641	9.174	1504.029	1504.762	1510.623	-2.458	0.046	0.977	-6.201	-0.153	8.038
47200.104	NaN	-3.424	1.630	9.185	1504.762	1504.762	1510.623	-2.366	0.046	0.885	-5.971	-0.077	8.115
47201.080	NaN	-3.413	1.630	9.174	1504.762	1503.297	1510.623	-2.427	0.046	0.901	-6.124	-0.230	8.038
47202.057	NaN	-3.424	1.620	9.174	1504.762	1504.762	1509.890	-2.580	0.076	0.809	-6.201	-0.153	7.885
47203.033	NaN	-3.424	1.620	9.185	1505.495	1504.762	1509.890	-2.611	0.275	0.656	-6.124	-0.230	8.115
47204.010	NaN	-3.413	1.620	9.185	1505.495	1504.029	1510.623	-2.702	0.244	0.779	-6.124	-0.077	7.962
47204.987	NaN	-3.413	1.630	9.185	1505.495	1503.297	1510.623	-2.626	0.092	0.824	-6.048	-0.230	8.268
47205.963	NaN	-3.435	1.630	9.163	1504.029	1503.297	1509.890	-2.580	0.229	0.977	-6.124	-0.230	8.115
47206.940	NaN	-3.435	1.630	9.152	1504.762	1504.029	1510.623	-2.443	0.427	1.038	-6.201	-0.077	8.038
47207.916	NaN	-3.435	1.641	9.152	1505.495	1504.762	1510.623	-2.305	0.336	1.160	-6.124	-0.153	8.038
47208.893	NaN	-3.424	1.630	9.163	1504.762	1504.762	1509.158	-2.183	0.244	1.130	-6.048	-0.306	8.115
47209.869	NaN	-3.435	1.630	9.163	1504.762	1504.029	1510.623	-2.412	0.198	0.885	-6.201	-0.153	8.115
47210.846	NaN	-3.435	1.641	9.152	1505.495	1503.297	1509.890	-2.366	0.229	0.855	-6.124	-0.230	7.885
47211.823	NaN	-3.446	1.630	9.152	1505.495	1503.297	1510.623	-2.351	0.275	0.931	-6.124	-0.153	8.115
47212.799	NaN	-3.446	1.641	9.163	1504.029	1504.762	1511.355	-2.351	0.183	0.901	-6.201	-0.230	7.962
47213.776	NaN	-3.446	1.641	9.163	1505.495	1503.297	1511.355	-2.107	0.198	0.885	-6.124	-0.077	7.885
47214.752	NaN	-3.446	1.620	9.163	1504.762	1503.297	1509.158	-2.137	0.244	1.023	-6.201	-0.077	8.344
47215.729	NaN	-3.457	1.620	9.163	1504.762	1504.762	1509.158	-2.076	0.214	0.977	-6.048	-0.077	8.191
47216.705	NaN	-3.457	1.641	9.152	1506.227	1504.029	1511.355	-2.183	0.275	0.870	-6.048	-0.153	8.191
47217.682	NaN	-3.446	1.641	9.163	1505.495	1504.762	1510.623	-2.351	0.076	0.763	-6.278	-0.153	8.038
47218.658	NaN	-3.435	1.641	9.152	1504.762	1504.029	1510.623	-2.260	-0.031	0.977	-6.124	-0.306	8.191
47219.635	NaN	-3.446	1.641	9.152	1504.029	1504.029	1509.158	-2.382	0.260	0.992	-6.124	-0.153	8.191
47220.612	NaN	-3.457	1.641	9.152	1506.227	1503.297	1508.425	-2.397	0.351	0.885	-6.124	-0.230	8.191
47221.588	NaN	-3.446	1.641	9.163	1504.762	1504.029	1512.088	-2.336	0.214	0.840	-6.278	-0.230	8.191
47222.565	NaN	-3.446	1.641	9.174	1504.762	1504.029	1511.355	-2.275	0.137	0.855	-5.971	-0.230	8.115
47223.541	NaN	-3.457	1.630	9.185	1504.762	1502.564	1509.890	-2.427	0.244	0.947	-6.124	-0.230	8.191
47224.518	NaN	-3.446	1.620	9.185	1504.029	1504.762	1509.890	-2.473	0.443	0.962	-6.278	-0.153	8.115
47225.494	NaN	-3.457	1.630	9.196	1506.227	1504.029	1510.623	-2.473	0.290	1.053	-6.124	-0.230	8.115
47226.471	NaN	-3.457	1.641	9.196	1506.227	1504.029	1512.088	-2.397	-0.031	1.099	-6.201	-0.306	8.038
47227.448	NaN	-3.467	1.641	9.196	1505.495	1504.029	1510.623	-2.489	-0.107	0.824	-6.201	-0.153	8.038
47228.424	NaN	-3.478	1.630	9.196	1505.495	1504.029	1509.890	-2.229	0.137	0.824	-6.048	-0.153	8.038
47229.401	NaN	-3.478	1.630	9.196	1504.762	1504.029	1511.355	-2.137	0.336	0.840	-6.048	-0.153	8.115
47230.377	NaN	-3.467	1.652	9.207	1505.495	1505.495	1511.355	-2.260	0.198	0.962	-6.048	-0.153	8.191
47231.354	NaN	-3.467	1.641	9.217	1506.227	1504.029	1509.158	-2.229	0.198	1.099	-6.278	-0.077	8.191
47232.330	NaN	-3.478	1.641	9.239	1506.227	1503.297	1510.623	-2.458	0.122	0.977	-6.124	-0.230	8.191
47233.307	NaN	-3.489	1.641	9.239	1505.495	1504.029	1509.890	-2.641	0.107	0.992	-6.278	-0.077	8.191
47234.283	NaN	-3.489	1.630	9.228	1506.227	1504.762	1509.890	-2.473	0.168	1.023	-6.201	-0.153	8.191
47235.260	NaN	-3.511	1.630	9.239	1504.762	1503.297	1509.890	-2.046	0.198	0.992	-6.201	-0.153	8.191
47236.237	NaN	-3.511	1.630	9.239	1506.227	1504.029	1509.890	-2.137	0.198	0.794	-6.201	-0.230	8.268
47237.213	NaN	-3.511	1.630	9.239	1506.227	1503.297	1510.623	-2.382	0.153	0.840	-6.124	-0.230	8.115
47238.190	NaN	-3.511	1.620	9.250	1504.762	1503.297	1509.158	-2.351	0.000	0.794	-6.201	-0.230	8.115
47239.166	NaN	-3.500	1.630	9.250	1504.762	1504.029	1511.355	-2.290	0.107	0.687	-6.201	-0.153	8.191
47240.143	NaN	-3.511	1.620	9.250	1506.227	1503.297	1510.623	-2.198	0.183	0.824	-6.278	-0.230	8.115
47241.119	NaN	-3.511	1.641	9.261	1505.495	1502.564	1510.623	-2.137	0.122	0.916	-6.278	-0.230	8.191
47242.096	NaN	-3.500	1.641	9.261	1505.495	1504.029	1510.623	-2.229	0.000	0.733	-6.048	-0.153	8.344
47243.073	NaN	-3.511	1.641	9.261	1504.762	1504.029	1509.158	-2.427	-0.015	0.733	-6.124	-0.230	8.191
47244.049	3736846957.131	-3.500	1.652	9.283	1506.227	1504.762	1512.088	-2.397	0.168	0.794	-6.201	-0.153	8.268
47245.026	NaN	-3.511	1.641	9.272	1505.495	1504.029	1510.623	-2.397	0.244	0.885	-6.354	-0.306	8.191
47246.002	NaN	-3.500	1.641	9.283	1504.762	1502.564	1509.158	-2.260	0.153	0.962	-6.278	-0.153	8.191
47246.979	NaN	-3.511	1.641	9.283	1504.762	1503.297	1509.890	-2.168	0.168	0.916	-6.201	-0.153	8.115
47247.955	NaN	-3.500	1.630	9.283	1504.762	1503.297	1509.158	-2.183	0.336	0.962	-6.201	-0.230	8.191
47248.932	NaN	-3.489	1.641	9.293	1505.495	1504.029	1509.890	-2.305	0.351	0.992	-6.278	-0.306	8.191
47249.908	NaN	-3.500	1.630	9.304	1504.762	1504.762	1509.890	-2.214	0.214	0.947	-6.354	-0.153	8.268
47250.885	NaN	-3.511	1.641	9.304	1504.762	1502.564	1509.890	-2.046	0.061	0.855	-6.201	-0.230	8.191
47251.862	NaN	-3.511	1.641	9.293	1506.227	1504.762	1510.623	-2.031	0.015	0.916	-6.201	-0.230	8.115
47252.838	NaN	-3.522	1.641	9.293	1506.227	1502.564	1508.425	-2.229	0.122	0.901	-6.278	-0.230	8.191
47253.815	NaN	-3.511	1.630	9.304	1506.227	1504.029	1510.623	-2.290	0.076	0.947	-6.354	-0.230	8.344
47254.791	NaN	-3.522	1.630	9.293	1505.495	1504.029	1509.890	-2.229	-0.122	1.053	-6.124	-0.230	8.268
47255.768	NaN	-3.511	1.620	9.293	1504.762	1503.297	1509.158	-2.153	-0.076	1.160	-6.278	-0.230	8.268
47256.744	NaN	-3.511	1.630	9.293	1506.960	1504.029	1509.890	-2.031	0.229	1.099	-6.354	-0.230	8.191
47257.721	NaN	-3.522	1.620	9.293	1504.762	1504.029	1509.890	-2.198	0.351	1.084	-6.201	-0.230	8.191
47258.698	NaN	-3.511	1.620	9.304	1504.762	1503.297	1509.890	-2.305	0.260	1.008	-6.201	-0.230	8.268
47259.674	NaN	-3.511	1.620	9.304	1505.495	1504.762	1510.623	-2.382	0.122	0.901	-6.124	-0.230	8.191
47260.651	NaN	-3.511	1.620	9.293	1505.495	1503.297	1509.890	-2.168	0.122	0.885	-6.201	0.000	8.191
47261.627	NaN	-3.511	1.609	9.293	1504.762	1502.564	1507.692	-2.076	0.229	0.885	-6.201	-0.230	8.268
47262.604	NaN	-3.500	1.630	9.293	1506.227	1504.029	1511.355	-2.076	0.229	1.008	-6.278	-0.153	8.344
47263.580	NaN	-3.489	1.630	9.293	1506.227	1504.029	1510.623	-2.214	0.321	1.008	-6.201	-0.230	8.115
47264.557	NaN	-3.500	1.630	9.293	1505.495	1504.029	1509.890	-2.321	0.214	1.084	-6.124	-0.077	8.268
47265.533	NaN	-3.500	1.620	9.283	1506.960	1504.029	1510.623	-2.183	0.183	1.130	-6.201	-0.230	8.191
47266.510	NaN	-3.511	1.630	9.283	1506.227	1504.029	1511.355	-1.985	0.275	0.962	-6.278	-0.230	8.115
47267.487	NaN	-3.500	1.630	9.272	1504.762	1503.297	1509.890	-2.168	0.198	0.718	-6.124	-0.153	8.268
47268.463	NaN	-3.500	1.630	9.272	1505.495	1504.029	1511.355	-2.244	0.122	0.794	-6.201	-0.230	8.115
47269.440	NaN	-3.522	1.620	9.272	1504.762	1503.297	1510.623	-2.153	0.275	0.977	-6.354	-0.230	8.115
47270.416	NaN	-3.511	1.630	9.272	1506.227	1504.029	1510.623	-2.076	0.397	1.389	-6.278	-0.230	8.191
47271.393	NaN	-3.511	1.620	9.272	1506.227	1504.029	1509.158	-1.954	0.321	1.267	-6.201	-0.153	8.191
47272.369	NaN	-3.500	1.630	9.272	1505.495	1504.029	1510.623	-1.893	0.122	1.038	-6.201	-0.306	8.344
47273.346	NaN	-3.500	1.620	9.272	1505.495	1504.029	1509.890	-1.908	0.137	1.099	-6.354	-0.306	8.191
47274.323	NaN	-3.500	1.630	9.261	1506.960	1504.029	1511.355	-1.847	0.244	1.023	-6.278	-0.230	8.191
47275.299	NaN	-3.500	1.620	9.261	1505.495	1504.762	1510.623	-1.954	0.290	0.901	-6.124	-0.077	8.191
47276.276	NaN	-3.500	1.620	9.261	1506.227	1505.495	1512.088	-2.046	0.351	0.840	-6.201	-0.153	8.191
47277.252	NaN	-3.500	1.630	9.283	1506.227	1504.762	1512.088	-2.137	0.321	0.901	-6.048	-0.230	8.191
47278.229	NaN	-3.500	1.630	9.272	1505.495	1504.762	1511.355	-2.198	0.275	0.977	-6.201	0.000	8.344
47279.205	NaN	-3.489	1.630	9.272	1506.227	1505.495	1510.623	-2.305	0.321	0.931	-6.201	-0.153	8.191
47280.182	NaN	-3.467	1.630	9.272	1506.227	1504.029	1511.355	-1.924	0.092	0.870	-6.124	-0.306	8.115
47281.158	NaN	-3.478	1.630	9.272	1504.762	1504.029	1510.623	-1.954	-0.092	0.916	-6.124	-0.153	8.115
47282.135	NaN	-3.467	1.630	9.261	1506.227	1504.762	1510.623	-2.000	0.229	1.145	-6.201	-0.153	8.115
47283.112	NaN	-3.489	1.620	9.261	1506.227	1504.029	1509.890	-2.198	0.412	1.282	-6.201	-0.077	8.115
47284.088	NaN	-3.478	1.620	9.261	1506.227	1504.029	1510.623	-2.321	0.305	1.145	-6.278	-0.306	8.115
47285.065	NaN	-3.478	1.620	9.261	1506.227	1504.029	1510.623	-2.260	0.031	0.901	-6.124	-0.153	8.115
47286.041	NaN	-3.467	1.620	9.261	1505.495	1504.762	1509.890	-2.031	-0.031	0.809	-6.048	-0.077	8.115
47287.018	NaN	-3.467	1.620	9.250	1505.495	1504.762	1509.890	-2.076	0.183	0.962	-6.201	-0.153	8.191
47287.994	NaN	-3.478	1.620	9.239	1506.227	1504.762	1509.890	-2.061	0.076	0.977	-6.048	-0.153	8.038
47288.971	NaN	-3.478	1.630	9.239	1506.227	1504.762	1509.890	-2.000	0.046	0.763	-6.278	-0.306	8.038
47289.948	NaN	-3.478	1.641	9.239	1506.227	1504.029	1511.355	-2.000	0.076	0.885	-6.124	-0.230	8.115
47290.924	NaN	-3.478	1.641	9.228	1505.495	1504.029	1509.890	-2.153	0.290	0.947	-6.048	-0.230	8.038
47291.901	NaN	-3.478	1.620	9.217	1504.762	1504.029	1509.158	-2.153	0.443	1.038	-6.048	-0.153	8.115
47292.877	NaN	-3.478	1.620	9.228	1504.762	1505.495	1510.623	-2.046	0.275	1.038	-6.124	0.000	8.115
47293.854	NaN	-3.467	1.630	9.217	1505.495	1504.762	1509.890	-2.061	0.061	0.870	-6.201	-0.230	8.115
47294.830	NaN	-3.467	1.641	9.217	1504.762	1504.762	1510.623	-2.336	-0.076	0.855	-6.354	-0.230	8.191
47295.807	NaN	-3.457	1.641	9.217	1506.227	1504.029	1510.623	-2.290	0.107	1.053	-6.048	-0.153	8.038
47296.783	NaN	-3.467	1.630	9.207	1506.227	1504.029	1509.890	-2.092	0.168	1.374	-6.124	-0.077	8.421
47297.760	NaN	-3.467	1.630	9.207	1506.227	1503.297	1511.355	-2.000	0.046	1.389	-6.201	-0.153	8.038
47298.737	NaN	-3.457	1.620	9.207	1505.495	1504.029	1509.890	-2.046	0.107	1.099	-6.201	-0.230	8.115
47299.713	NaN	-3.467	1.620	9.207	1505.495	1504.029	1510.623	-2.046	0.183	0.809	-6.278	-0.230	8.115
47300.690	NaN	-3.457	1.620	9.196	1504.762	1504.029	1509.158	-2.107	0.183	0.748	-6.124	-0.230	8.191
47301.666	NaN	-3.446	1.620	9.196	1505.495	1502.564	1509.158	-2.061	0.015	1.008	-6.278	-0.230	8.115
47302.643	NaN	-3.435	1.630	9.185	1504.029	1504.029	1509.890	-2.168	0.107	1.069	-6.201	-0.153	8.115
47303.619	NaN	-3.435	1.620	9.185	1505.495	1504.029	1510.623	-2.122	0.229	0.916	-6.048	-0.153	8.038
47304.596	NaN	-3.435	1.630	9.185	1502.564	1502.564	1509.890	-2.031	0.229	0.794	-6.201	-0.230	8.038
47305.573	NaN	-3.435	1.641	9.185	1503.297	1502.564	1509.158	-1.908	0.107	0.824	-6.048	-0.230	8.115
47306.549	NaN	-3.424	1.652	9.174	1504.029	1504.762	1509.890	-1.908	0.107	1.038	-6.201	-0.153	8.038
47307.526	NaN	-3.435	1.641	9.174	1504.762	1503.297	1509.890	-1.985	0.244	1.084	-6.124	-0.153	8.191
47308.502	NaN	-3.446	1.641	9.163	1504.029	1503.297	1509.158	-2.000	0.031	1.023	-6.278	-0.230	8.038
47309.479	NaN	-3.446	1.641	9.163	1502.564	1502.564	1510.623	-2.092	0.076	0.901	-6.278	-0.230	8.191
47310.455	NaN	-3.424	1.641	9.152	1504.762	1504.029	1509.890	-2.076	0.183	0.763	-6.124	-0.306	8.115
47311.432	NaN	-3.446	1.641	9.141	1505.495	1504.029	1509.158	-1.908	0.290	0.840	-6.048	-0.153	8.191
47312.408	NaN	-3.446	1.630	9.152	1503.297	1504.029	1508.425	-1.802	0.137	0.992	-6.124	-0.153	7.962
47313.385	NaN	-3.424	1.641	9.152	1503.297	1503.297	1509.890	-1.924	0.076	1.237	-6.201	-0.230	8.038
47314.362	NaN	-3.413	1.641	9.163	1504.029	1504.029	1510.623	-1.954	0.000	1.344	-6.278	-0.153	8.115
47315.338	NaN	-3.424	1.641	9.163	1504.029	1504.762	1509.158	-1.985	-0.015	1.252	-6.201	-0.230	7.962
47316.315	NaN	-3.413	1.630	9.174	1502.564	1502.564	1508.425	-2.061	0.061	1.130	-6.201	-0.230	8.115
47317.291	NaN	-3.413	1.620	9.185	1504.029	1503.297	1509.890	-1.817	0.153	1.038	-6.124	-0.153	7.962
47318.268	NaN	-3.413	1.620	9.196	1506.227	1503.297	1509.890	-1.847	0.183	1.221	-6.201	-0.153	8.115
47319.244	NaN	-3.424	1.609	9.185	1504.762	1503.297	1508.425	-2.015	0.214	1.237	-6.048	-0.230	8.038
47320.221	NaN	-3.424	1.609	9.174	1504.029	1502.564	1507.692	-1.847	0.290	1.038	-6.124	-0.383	8.191
47321.198	NaN	-3.435	1.630	9.185	1504.029	1503.297	1510.623	-1.786	0.290	0.916	-6.201	-0.230	8.191
47322.174	NaN	-3.435	1.630	9.196	1504.762	1503.297	1509.158	-1.954	0.076	0.870	-6.124	-0.230	7.962
47323.151	NaN	-3.435	1.630	9.185	1504.029	1503.297	1509.158	-2.092	-0.046	0.840	-6.124	-0.153	8.115
47324.127	NaN	-3.435	1.641	9.196	1506.227	1505.495	1510.623	-2.015	-0.076	1.099	-6.201	-0.230	8.115
47325.104	NaN	-3.446	1.620	9.174	1503.297	1504.029	1511.355	-1.924	-0.061	1.176	-6.201	-0.153	8.038
47326.080	NaN	-3.435	1.630	9.185	1504.029	1504.029	1510.623	-1.863	-0.076	1.191	-6.201	-0.230	8.115
47327.057	NaN	-3.424	1.620	9.196	1505.495	1504.762	1509.890	-1.695	-0.046	0.916	-6.124	-0.153	8.268
47328.033	NaN	-3.446	1.620	9.185	1504.762	1504.762	1509.890	-1.832	-0.061	0.824	-4.976	-0.230	8.115
47329.010	NaN	-3.446	1.620	9.185	1504.762	1504.762	1510.623	-1.954	-0.015	1.038	-6.124	-0.153	7.962
47329.987	NaN	-3.446	1.609	9.185	1505.495	1504.762	1511.355	-1.969	0.031	0.992	-6.124	-0.306	8.191
47330.963	NaN	-3.457	1.620	9.185	1505.495	1504.029	1510.623	-2.122	0.168	0.916	-6.201	-0.306	8.115
47331.940	NaN	-3.457	1.609	9.185	1504.029	1503.297	1510.623	-2.092	-0.031	0.916	-6.048	-0.230	7.962
47332.916	NaN	-3.446	1.620	9.174	1504.762	1504.029	1510.623	-1.863	-0.061	0.901	-6.201	-0.153	8.038
47333.893	NaN	-3.457	1.630	9.185	1505.495	1503.297	1509.890	-1.695	0.046	0.931	-6.201	-0.153	8.115
47334.869	NaN	-3.467	1.630	9.196	1506.960	1504.762	1510.623	-1.939	0.061	1.008	-6.201	-0.306	8.115
47335.846	NaN	-3.467	1.620	9.196	1505.495	1504.029	1509.158	-1.985	0.092	1.099	-5.971	-0.230	8.038
47336.823	NaN	-3.467	1.620	9.196	1504.762	1504.029	1512.088	-1.802	0.351	1.115	-6.124	-0.153	8.038
47337.799	NaN	-3.457	1.630	9.207	1504.762	1504.762	1511.355	-1.603	0.305	1.038	-6.201	-0.230	8.191
47338.776	NaN	-3.457	1.630	9.207	1503.297	1504.762	1509.890	-1.664	0.122	0.824	-6.201	-0.230	8.191
47339.752	NaN	-3.467	1.620	9.217	1504.762	1504.762	1510.623	-2.000	-0.031	0.824	-6.048	-0.230	8.268
47340.729	NaN	-3.478	1.620	9.217	1505.495	1504.029	1509.890	-2.122	0.107	0.962	-6.201	-0.153	8.115
47341.705	NaN	-3.457	1.620	9.217	1505.495	1504.029	1509.890	-2.031	0.015	0.901	-6.124	-0.306	8.344
47342.682	NaN	-3.457	1.620	9.217	1506.227	1504.762	1509.890	-1.878	0.000	0.885	-6.124	-0.230	8.268
47343.658	NaN	-3.478	1.620	9.228	1506.227	1504.029	1512.088	-2.031	-0.061	0.901	-6.354	-0.153	8.191
47344.635	NaN	-3.489	1.620	9.228	1505.495	1504.762	1509.890	-2.107	0.046	0.870	-6.278	-0.230	8.038
47345.612	NaN	-3.489	1.609	9.250	1506.227	1504.029	1510.623	-1.924	0.046	0.916	-6.124	-0.153	8.191
47346.588	NaN	-3.478	1.620	9.250	1505.495	1504.029	1512.088	-1.847	0.031	0.901	-6.201	-0.306	8.268
47347.565	NaN	-3.478	1.620	9.261	1504.762	1504.029	1512.088	-1.939	-0.031	0.931	-6.278	-0.077	8.115
47348.541	NaN	-3.489	1.630	9.261	1505.495	1504.029	1510.623	-1.954	-0.015	0.855	-6.278	-0.153	8.268
47349.518	NaN	-3.489	1.630	9.283	1505.495	1504.029	1510.623	-2.031	0.031	1.038	-6.124	-0.153	8.115
47350.494	NaN	-3.500	1.641	9.272	1506.227	1504.762	1510.623	-2.244	0.046	1.145	-6.354	-0.230	8.191
47351.471	NaN	-3.489	1.641	9.272	1506.227	1504.762	1510.623	-2.290	0.061	1.282	-6.201	-0.230	8.115
47352.448	NaN	-3.489	1.641	9.272	1505.495	1504.762	1509.158	-2.031	0.046	1.038	-6.201	-0.306	8.115
47353.424	NaN	-3.500	1.630	9.272	1505.495	1504.029	1510.623	-1.908	0.061	0.901	-6.201	-0.230	8.268
47354.401	NaN	-3.511	1.630	9.272	1504.762	1504.762	1509.890	-1.847	0.046	0.748	-6.201	-0.230	8.191
47355.377	NaN	-3.500	1.641	9.272	1506.227	1504.029	1511.355	-2.092	-0.015	1.084	-6.201	-0.153	8.115
47356.354	NaN	-3.500	1.641	9.283	1505.495	1504.762	1510.623	-2.137	-0.015	1.176	-6.124	-0.230	8.191
47357.330	NaN	-3.500	1.641	9.293	1504.762	1504.029	1510.623	-1.802	0.168	1.023	-6.201	-0.153	8.115
47358.307	NaN	-3.500	1.641	9.304	1505.495	1504.029	1509.890	-1.924	-0.031	0.687	-6.278	-0.306	8.268
47359.283	NaN	-3.511	1.641	9.293	1505.495	1504.029	1509.158	-2.031	-0.076	0.580	-6.124	-0.153	8.191
47360.260	NaN	-3.522	1.630	9.293	1505.495	1504.029	1509.890	-1.695	-0.076	0.870	-7.349	-0.230	8.191
47361.237	NaN	-3.500	1.652	9.293	1504.762	1503.297	1509.890	-1.649	-0.031	1.115	-6.201	-0.153	8.268
47362.213	NaN	-3.511	1.641	9.293	1506.227	1504.029	1510.623	-1.695	0.061	0.992	-6.278	-0.230	8.268
47363.190	NaN	-3.500	1.641	9.304	1504.762	1503.297	1509.158	-1.832	0.198	0.916	-6.278	-0.230	8.115
47364.166	NaN	-3.500	1.641	9.304	1505.495	1504.762	1511.355	-1.740	0.198	0.885	-6.124	-0.153	8.344
47365.143	NaN	-3.522	1.630	9.293	1505.495	1503.297	1510.623	-1.832	0.092	0.977	-6.278	-0.153	8.268
47366.119	NaN	-3.522	1.630	9.293	1505.495	1502.564	1509.158	-1.771	0.076	0.855	-6.278	-0.230	8.268
47367.096	NaN	-3.511	1.641	9.283	1505.495	1504.029	1509.890	-1.664	0.198	0.870	-6.278	-0.153	8.268
47368.073	NaN	-3.511	1.641	9.293	1504.762	1503.297	1508.425	-1.618	0.168	0.870	-6.201	-0.153	8.344
47369.049	NaN	-3.511	1.652	9.304	1504.762	1504.029	1509.158	-1.664	0.092	0.855	-6.124	-0.153	8.344
47370.026	NaN	-3.511	1.652	9.293	1506.227	1502.564	1509.890	-1.893	0.107	0.901	-6.278	-0.230	8.115
47371.002	NaN	-3.511	1.641	9.293	1504.029	1503.297	1508.425	-1.832	-0.076	0.870	-6.278	-0.077	8.191
47371.979	NaN	-3.522	1.630	9.283	1504.762	1504.029	1510.623	-1.969	-0.137	0.855	-6.124	-0.153	8.344
47372.955	NaN	-3.522	1.641	9.283	1504.762	1502.564	1510.623	-2.046	-0.015	0.885	-6.278	-0.230	8.421
47373.932	NaN	-3.511	1.652	9.283	1505.495	1503.297	1510.623	-1.954	-0.015	1.008	-6.354	-0.153	8.191
47374.908	NaN	-3.511	1.630	9.272	1504.762	1504.029	1510.623	-1.924	-0.031	1.145	-6.201	-0.230	8.038
47375.885	NaN	-3.522	1.630	9.261	1505.495	1503.297	1510.623	-1.557	-0.015	0.992	-6.278	-0.230	8.115
47376.862	NaN	-3.511	1.620	9.261	1506.227	1504.029	1512.088	-1.511	0.061	0.931	-6.354	-0.153	8.268
47377.838	NaN	-3.511	1.620	9.261	1504.762	1504.029	1510.623	-1.954	0.000	0.626	-6.201	-0.306	8.115
47378.815	NaN	-3.500	1.641	9.272	1505.495	1502.564	1510.623	-1.832	0.061	0.794	-6.278	-0.153	8.191
47379.791	NaN	-3.500	1.630	9.261	1505.495	1504.029	1511.355	-1.649	0.076	0.840	-6.278	-0.153	8.191
47380.768	NaN	-3.500	1.641	9.272	1505.495	1503.297	1509.158	-1.740	0.153	0.763	-6.201	-0.230	8.115
47381.744	NaN	-3.489	1.652	9.272	1505.495	1504.029	1511.355	-1.939	0.168	0.779	-6.124	-0.230	8.191
47382.721	NaN	-3.489	1.630	9.261	1505.495	1503.297	1509.158	-1.954	0.229	0.870	-6.124	-0.230	8.038
47383.698	NaN	-3.478	1.630	9.272	1505.495	1503.297	1510.623	-1.863	0.183	0.962	-6.278	-0.230	8.191
47384.674	NaN	-3.489	1.620	9.272	1505.495	1504.029	1512.088	-1.908	0.061	1.038	-6.201	-0.230	8.268
47385.651	NaN	-3.489	1.620	9.261	1505.495	1502.564	1508.425	-1.878	0.015	0.977	-6.278	-0.153	8.268
47386.627	NaN	-3.478	1.620	9.272	1506.227	1504.762	1510.623	-1.847	0.061	0.855	-6.278	-0.230	8.115
47387.604	NaN	-3.489	1.630	9.272	1504.762	1504.762	1510.623	-2.137	0.046	0.779	-6.201	-0.153	8.191
47388.580	NaN	-3.489	1.620	9.272	1505.495	1504.029	1510.623	-2.305	-0.015	0.824	-6.201	-0.153	8.038
47389.557	NaN	-3.478	1.630	9.283	1506.227	1504.029	1511.355	-2.061	0.061	0.855	-6.201	-0.153	8.038
47390.533	NaN	-3.489	1.630	9.250	1506.227	1504.029	1509.158	-1.832	0.168	0.885	-6.201	-0.230	8.268
47391.510	NaN	-3.467	1.641	9.239	1506.960	1504.029	1509.890	-1.710	0.107	0.809	-6.124	-0.153	8.191
47392.487	NaN	-3.467	1.641	9.228	1505.495	1504.762	1510.623	-1.817	0.183	0.794	-6.124	-0.230	8.268
47393.463	NaN	-3.467	1.652	9.228	1504.762	1504.762	1511.355	-1.832	0.168	0.809	-6.201	-0.230	8.191
47394.440	NaN	-3.478	1.641	9.239	1504.762	1504.029	1511.355	-2.015	0.153	0.794	-6.124	-0.230	8.191
47395.416	NaN	-3.467	1.641	9.228	1505.495	1504.762	1509.890	-1.985	0.061	0.748	-6.201	-0.306	8.038
47396.393	NaN	-3.467	1.641	9.239	1505.495	1504.762	1509.890	-2.061	-0.092	0.733	-6.124	-0.230	8.115
47397.369	NaN	-3.478	1.641	9.228	1506.227	1504.029	1510.623	-1.664	-0.076	0.763	-6.278	-0.153	7.885
47398.346	NaN	-3.478	1.641	9.228	1506.227	1504.029	1509.890	-1.557	0.046	0.794	-6.201	-0.230	8.191
47399.323	NaN	-3.489	1.630	9.217	1506.227	1503.297	1510.623	-1.649	0.321	0.885	-6.124	-0.153	8.115
47400.299	NaN	-3.478	1.641	9.228	1505.495	1504.029	1510.623	-1.847	0.214	0.748	-6.201	-0.230	8.115
47401.276	NaN	-3.467	1.652	9.217	1505.495	1504.762	1510.623	-1.893	0.168	0.748	-6.048	-0.077	8.038
47402.252	NaN	-3.467	1.641	9.217	1506.227	1504.762	1509.890	-1.802	0.244	0.672	-6.124	-0.230	8.191
47403.229	NaN	-3.467	1.630	9.196	1504.029	1503.297	1510.623	-1.710	0.229	0.672	-5.971	-0.153	8.038
47433.502	NaN	-3.435	1.620	9.163	1505.495	1504.029	1511.355	-1.832	0.122	0.626	-6.124	-0.230	8.115
47434.479	NaN	-3.446	1.630	9.163	1504.029	1503.297	1511.355	-1.710	0.000	0.672	-6.201	-0.230	8.038
47435.455	NaN	-3.435	1.630	9.174	1504.029	1504.029	1510.623	-1.649	0.076	0.519	-6.048	-0.230	8.115
47436.432	NaN	-3.446	1.620	9.185	1504.762	1503.297	1509.158	-1.756	0.122	0.565	-6.124	-0.306	8.115
47437.408	NaN	-3.446	1.641	9.196	1506.227	1504.029	1510.623	-2.153	0.031	0.687	-6.278	-0.383	7.962
47438.385	3736846957.299	-3.446	1.641	9.185	1505.495	1504.029	1511.355	-2.244	-0.015	0.687	-5.971	-0.230	8.115
47439.362	NaN	-3.457	1.641	9.174	1504.762	1503.297	1509.890	-2.015	-0.214	0.580	-6.278	-0.230	8.191
47440.338	NaN	-3.457	1.630	9.174	1504.762	1503.297	1509.890	-1.832	-0.122	0.763	-6.201	-0.077	8.344
47441.315	NaN	-3.446	1.620	9.174	1503.297	1504.029	1510.623	-1.908	0.076	0.809	-6.354	-0.153	8.191
47442.291	NaN	-3.446	1.620	9.174	1504.762	1504.029	1511.355	-2.122	0.153	0.733	-6.278	-0.153	8.191
47443.268	NaN	-3.457	1.620	9.196	1505.495	1503.297	1509.890	-1.985	0.000	0.611	-6.278	-0.153	8.115
47444.244	NaN	-3.446	1.630	9.196	1504.029	1504.029	1509.158	-2.061	0.000	0.504	-6.124	-0.230	8.115
47445.221	NaN	-3.446	1.630	9.196	1505.495	1504.762	1509.890	-2.061	0.076	0.534	-6.278	-0.153	8.268
47446.198	NaN	-3.457	1.630	9.207	1505.495	1504.029	1509.890	-1.985	-0.122	0.809	-5.971	-0.230	8.115
47447.174	NaN	-3.457	1.620	9.207	1505.495	1503.297	1508.425	-1.908	-0.183	0.901	-6.201	-0.153	8.191
47448.151	NaN	-3.467	1.620	9.217	1506.227	1503.297	1510.623	-1.985	-0.076	0.718	-6.124	-0.153	8.038
47449.127	NaN	-3.467	1.609	9.217	1504.762	1502.564	1509.890	-2.031	-0.076	0.473	-6.201	-0.230	8.115
47450.104	NaN	-3.467	1.630	9.239	1504.762	1503.297	1509.890	-1.817	-0.061	0.443	-6.124	-0.153	8.038
47451.080	NaN	-3.478	1.630	9.239	1504.029	1503.297	1510.623	-1.786	0.122	0.382	-6.201	-0.153	8.191
47452.057	NaN	-3.489	1.630	9.239	1505.495	1504.762	1509.158	-1.893	0.015	0.443	-6.124	-0.153	8.268
47453.033	NaN	-3.489	1.630	9.250	1506.227	1504.762	1510.623	-1.954	-0.153	0.519	-6.201	-0.306	8.191
47454.010	NaN	-3.489	1.641	9.239	1506.227	1504.762	1511.355	-1.954	-0.092	0.565	-6.201	-0.153	8.115
47454.987	NaN	-3.478	1.641	9.239	1505.495	1503.297	1511.355	-2.015	-0.046	0.656	-6.201	-0.077	8.115
47455.963	NaN	-3.489	1.641	9.239	1506.227	1503.297	1509.158	-2.046	0.076	0.611	-6.278	-0.077	8.268
47456.940	NaN	-3.500	1.630	9.239	1505.495	1503.297	1509.890	-2.107	0.107	0.336	-6.124	-0.153	8.191
47457.916	NaN	-3.489	1.630	9.239	1506.227	1504.762	1510.623	-2.122	0.061	0.198	-6.201	-0.230	8.268
47458.893	NaN	-3.500	1.620	9.261	1506.227	1503.297	1510.623	-1.939	0.031	0.321	-6.201	-0.153	8.191
47459.869	NaN	-3.511	1.630	9.261	1506.227	1504.029	1508.425	-1.756	-0.061	0.397	-6.278	-0.230	8.191
47460.846	NaN	-3.511	1.641	9.250	1506.227	1504.029	1509.890	-1.802	-0.153	0.504	-6.124	-0.077	8.191
47461.823	NaN	-3.511	1.630	9.250	1506.227	1504.029	1510.623	-1.924	-0.137	0.427	-6.124	-0.230	8.268
47462.799	NaN	-3.500	1.630	9.261	1506.227	1504.029	1510.623	-1.786	-0.092	0.458	-6.124	-0.230	8.344
47463.776	NaN	-3.511	1.630	9.272	1505.495	1503.297	1510.623	-1.618	-0.137	0.550	-6.201	-0.230	8.115
47464.752	NaN	-3.522	1.620	9.272	1505.495	1503.297	1509.158	-1.832	-0.076	0.687	-6.201	-0.230	8.268
47465.729	NaN	-3.511	1.620	9.283	1506.227	1503.297	1509.158	-2.076	0.046	0.519	-6.201	-0.230	8.268
47466.705	NaN	-3.511	1.630	9.283	1504.762	1504.762	1510.623	-1.939	0.031	0.290	-6.201	-0.230	8.115
47467.682	NaN	-3.511	1.630	9.283	1504.762	1504.029	1510.623	-1.786	0.046	0.275	-6.278	-0.230	8.268
47468.658	NaN	-3.500	1.630	9.283	1504.762	1503.297	1510.623	-1.832	0.061	0.336	-6.124	-0.077	8.268
47469.635	NaN	-3.511	1.630	9.272	1505.495	1503.297	1510.623	-1.939	-0.076	0.504	-6.124	-0.077	8.344
47470.612	NaN	-3.511	1.630	9.283	1506.227	1503.297	1510.623	-2.168	-0.137	0.519	-7.349	-0.230	8.191
47471.588	NaN	-3.500	1.630	9.293	1505.495	1504.762	1510.623	-2.275	-0.046	0.290	-6.278	-0.306	8.191
47472.565	NaN	-3.500	1.630	9.293	1505.495	1504.029	1509.890	-2.137	0.076	0.275	-6.354	-0.230	8.191
47473.541	NaN	-3.511	1.620	9.293	1504.762	1503.297	1509.158	-2.168	0.076	0.336	-6.124	-0.153	8.344
47474.518	NaN	-3.500	1.609	9.293	1505.495	1503.297	1512.088	-2.046	0.046	0.427	-6.124	-0.153	8.268
47475.494	NaN	-3.511	1.630	9.293	1506.960	1504.762	1510.623	-2.137	-0.137	0.626	-6.278	-0.306	8.268
47476.471	NaN	-3.500	1.630	9.293	1506.227	1504.029	1510.623	-2.122	-0.015	0.489	-6.201	-0.153	8.268
47477.448	NaN	-3.511	1.630	9.304	1506.227	1504.029	1509.158	-2.107	0.137	0.443	-6.278	-0.230	8.344
47478.424	NaN	-3.522	1.620	9.293	1505.495	1504.029	1509.890	-2.214	0.198	0.641	-6.201	-0.153	8.115
47479.401	NaN	-3.522	1.620	9.293	1505.495	1504.762	1509.890	-2.107	0.000	0.504	-6.278	-0.383	8.191
47480.377	NaN	-3.511	1.630	9.304	1505.495	1504.029	1511.355	-2.244	0.046	0.458	-6.201	-0.230	8.268
47481.354	NaN	-3.511	1.630	9.293	1505.495	1504.029	1511.355	-1.985	0.122	0.321	-6.278	-0.153	8.191
47482.330	NaN	-3.511	1.630	9.304	1505.495	1503.297	1510.623	-1.832	0.198	0.305	-6.278	-0.230	8.115
47483.307	NaN	-3.522	1.630	9.293	1505.495	1504.029	1510.623	-2.015	0.031	0.321	-6.354	-0.230	8.268
47484.283	NaN	-3.522	1.620	9.283	1506.227	1504.762	1510.623	-2.107	-0.031	0.351	-6.124	-0.153	8.344
47485.260	NaN	-3.522	1.630	9.283	1506.227	1504.762	1509.890	-1.847	-0.031	0.473	-6.278	-0.077	8.115
47486.237	NaN	-3.511	1.630	9.283	1505.495	1504.029	1510.623	-1.985	-0.015	0.427	-6.124	-0.306	8.268
47487.213	NaN	-3.522	1.630	9.283	1506.227	1504.029	1510.623	-2.000	-0.015	0.336	-6.278	-0.153	8.191
47488.190	NaN	-3.511	1.630	9.293	1505.495	1504.029	1510.623	-2.046	0.122	0.427	-6.201	-0.077	8.115
47489.166	NaN	-3.511	1.620	9.283	1506.227	1504.762	1510.623	-1.832	0.183	0.366	-6.278	-0.230	8.191
47490.143	NaN	-3.522	1.609	9.283	1506.227	1503.297	1512.088	-1.832	0.015	0.504	-6.354	-0.153	8.115
47491.119	NaN	-3.511	1.609	9.283	1505.495	1503.297	1509.158	-2.015	-0.031	0.489	-6.201	-0.153	8.268
47492.096	NaN	-3.500	1.609	9.272	1505.495	1503.297	1509.158	-1.832	-0.046	0.305	-6.354	-0.306	8.268
47493.073	NaN	-3.500	1.620	9.283	1506.227	1502.564	1509.158	-1.878	-0.183	0.275	-6.124	-0.153	8.115
47494.049	NaN	-3.500	1.620	9.272	1504.762	1504.029	1508.425	-1.893	-0.015	0.260	-6.201	-0.230	8.115
47495.026	NaN	-3.500	1.620	9.272	1504.762	1503.297	1509.158	-1.847	0.198	0.321	-6.278	0.000	8.191
47496.002	NaN	-3.489	1.630	9.283	1505.495	1503.297	1509.158	-2.107	0.046	0.229	-6.124	-0.230	8.344
47496.979	NaN	-3.489	1.620	9.272	1504.762	1504.762	1510.623	-2.275	-0.107	0.244	-6.201	-0.230	8.191
47497.955	NaN	-3.489	1.620	9.272	1504.762	1503.297	1509.158	-2.137	0.000	0.366	-6.201	-0.153	8.115
47498.932	NaN	-3.467	1.630	9.283	1505.495	1504.029	1510.623	-2.015	0.122	0.382	-6.124	-0.153	8.115
47499.908	NaN	-3.478	1.609	9.261	1505.495	1504.762	1509.890	-2.015	0.061	0.275	-6.124	-0.230	8.191
47500.885	NaN	-3.478	1.620	9.239	1506.227	1504.029	1509.158	-2.000	0.000	0.168	-6.201	-0.153	8.115
47501.862	NaN	-3.478	1.620	9.250	1506.227	1504.029	1510.623	-2.046	-0.076	0.153	-6.124	-0.230	8.115
47502.838	NaN	-3.467	1.641	9.250	1506.960	1504.029	1511.355	-2.290	0.061	0.214	-6.201	-0.306	8.115
47503.815	NaN	-3.489	1.630	9.239	1506.227	1504.029	1511.355	-2.321	0.198	0.336	-6.201	-0.230	8.115
47504.791	NaN	-3.489	1.641	9.250	1506.227	1502.564	1510.623	-2.214	0.153	0.366	-6.201	-0.077	8.191
47505.768	NaN	-3.478	1.620	9.250	1505.495	1504.029	1510.623	-2.229	0.168	0.382	-6.124	-0.153	8.115
47506.744	NaN	-3.478	1.620	9.239	1506.227	1502.564	1508.425	-2.168	0.031	0.260	-6.124	-0.230	8.191
47507.721	NaN	-3.467	1.620	9.228	1505.495	1503.297	1509.158	-2.107	-0.137	-0.061	-6.124	-0.306	8.038
47508.698	NaN	-3.446	1.620	9.217	1506.227	1503.297	1510.623	-2.198	-0.076	-0.076	-6.124	-0.230	8.038
47509.674	NaN	-3.457	1.620	9.217	1505.495	1503.297	1510.623	-2.366	0.000	0.153	-4.976	-0.153	8.038
47510.651	NaN	-3.467	1.620	9.217	1504.762	1503.297	1509.158	-2.305	0.244	0.229	-6.124	-0.230	8.191
47511.627	NaN	-3.446	1.630	9.217	1505.495	1504.762	1510.623	-2.244	0.214	0.183	-6.201	-0.153	8.038
47512.604	NaN	-3.457	1.620	9.196	1506.227	1503.297	1509.158	-2.198	0.092	0.031	-6.124	-0.230	8.115
47513.580	NaN	-3.457	1.630	9.207	1505.495	1502.564	1509.158	-2.046	-0.031	0.031	-6.124	-0.230	8.268
47514.557	NaN	-3.446	1.630	9.196	1504.762	1503.297	1509.158	-1.893	0.015	0.198	-6.201	-0.230	8.115
47515.533	NaN	-3.457	1.630	9.185	1504.762	1504.029	1510.623	-1.786	0.076	0.336	-6.201	-0.230	8.038
47516.510	NaN	-3.435	1.641	9.196	1505.495	1503.297	1510.623	-1.985	0.244	0.305	-6.201	-0.153	8.038
47517.487	NaN	-3.424	1.652	9.207	1506.227	1503.297	1510.623	-2.260	0.275	0.107	-6.048	-0.153	7.962
47518.463	NaN	-3.424	1.652	9.196	1505.495	1504.029	1509.890	-2.260	0.137	0.122	-6.124	-0.153	7.962
47519.440	NaN	-3.424	1.641	9.185	1504.762	1504.029	1510.623	-1.969	0.137	0.489	-6.124	-0.153	8.115
47520.416	NaN	-3.424	1.641	9.185	1504.762	1504.762	1510.623	-2.046	0.107	0.351	-6.201	-0.153	8.038
47521.393	NaN	-3.424	1.641	9.196	1505.495	1504.762	1512.088	-2.137	0.122	0.244	-6.124	-0.153	8.115
47522.369	NaN	-3.413	1.630	9.185	1504.029	1504.762	1509.890	-2.229	0.137	0.214	-6.124	-0.230	8.115
47523.346	NaN	-3.424	1.641	9.174	1506.227	1504.762	1509.158	-2.275	0.153	0.046	-6.124	-0.077	8.191
47524.323	NaN	-3.424	1.641	9.163	1505.495	1504.762	1509.890	-2.260	0.153	-0.122	-6.278	-0.153	8.115
47525.299	NaN	-3.413	1.641	9.152	1505.495	1504.029	1510.623	-1.954	0.153	-0.153	-6.048	-0.077	8.115
47526.276	NaN	-3.413	1.641	9.152	1506.227	1504.029	1510.623	-1.969	0.092	-0.076	-6.201	-0.230	7.962
47527.252	NaN	-3.413	1.630	9.141	1505.495	1504.029	1509.890	-2.107	0.076	0.092	-6.048	-0.153	8.038
47528.229	NaN	-3.424	1.630	9.141	1504.762	1504.029	1511.355	-2.122	0.137	0.244	-6.278	-0.153	8.115
47529.205	NaN	-3.413	1.630	9.130	1505.495	1504.762	1510.623	-2.076	0.107	0.244	-6.048	-0.306	7.962
47530.182	NaN	-3.413	1.641	9.141	1504.762	1504.029	1510.623	-2.061	0.031	0.565	-6.354	-0.230	8.038
47531.158	NaN	-3.424	1.641	9.152	1505.495	1504.029	1510.623	-2.122	-0.015	0.565	-6.124	-0.077	8.038
47532.135	NaN	-3.424	1.630	9.163	1504.029	1504.029	1511.355	-1.969	0.046	0.229	-6.124	-0.230	8.038
47533.112	NaN	-3.424	1.630	9.152	1504.762	1503.297	1511.355	-2.198	-0.046	0.168	-6.124	-0.230	8.038
47534.088	NaN	-3.413	1.641	9.152	1504.762	1504.762	1511.355	-2.366	-0.061	0.244	-6.048	-0.153	8.038
47535.065	NaN	-3.413	1.652	9.152	1504.762	1504.029	1510.623	-2.275	0.015	0.275	-6.201	-0.153	7.962
47536.041	NaN	-3.402	1.652	9.152	1505.495	1503.297	1510.623	-2.107	0.092	0.183	-6.048	-0.153	8.268
47537.018	NaN	-3.424	1.641	9.152	1504.762	1504.029	1510.623	-1.893	0.046	0.183	-6.278	-0.230	8.038
47537.994	NaN	-3.424	1.641	9.141	1505.495	1504.029	1510.623	-1.924	0.000	0.183	-6.201	-0.306	8.115
47538.971	NaN	-3.413	1.641	9.141	1505.495	1504.762	1510.623	-2.076	0.168	-0.137	-6.201	-0.230	8.115
47539.948	NaN	-3.413	1.641	9.152	1504.029	1504.029	1510.623	-2.153	0.229	-0.168	-6.201	-0.230	8.038
47540.924	NaN	-3.424	1.641	9.163	1504.762	1503.297	1509.158	-2.168	0.122	0.183	-6.048	-0.230	8.038
47541.901	NaN	-3.424	1.630	9.174	1503.297	1503.297	1509.890	-2.122	-0.229	0.244	-6.048	-0.077	8.191
47542.877	NaN	-3.424	1.641	9.185	1505.495	1504.029	1511.355	-1.863	-0.183	0.137	-6.048	-0.153	7.962
47543.854	NaN	-3.424	1.620	9.185	1505.495	1504.029	1510.623	-1.802	-0.076	0.137	-6.124	-0.077	8.038
47544.830	NaN	-3.424	1.641	9.196	1505.495	1503.297	1511.355	-1.832	-0.061	0.153	-6.201	-0.306	8.038
47545.807	NaN	-3.446	1.630	9.196	1506.227	1504.762	1509.890	-1.863	-0.076	-0.031	-6.201	-0.230	8.038
47546.783	NaN	-3.446	1.620	9.174	1504.762	1504.762	1509.890	-1.924	0.061	0.107	-6.201	-0.153	8.115
47547.760	NaN	-3.446	1.620	9.185	1504.762	1504.029	1510.623	-2.122	-0.076	0.412	-6.124	-0.153	8.038
47548.737	NaN	-3.446	1.630	9.196	1505.495	1504.762	1510.623	-2.275	-0.122	0.321	-6.201	-0.230	8.191
47549.713	NaN	-3.446	1.630	9.185	1504.762	1504.029	1511.355	-2.137	0.000	0.214	-6.201	-0.153	8.038
47550.690	NaN	-3.446	1.620	9.196	1506.227	1503.297	1510.623	-2.107	0.092	0.046	-6.124	-0.153	8.038
47551.666	NaN	-3.446	1.630	9.207	1506.960	1504.762	1510.623	-2.015	-0.137	0.137	-6.124	-0.230	8.115
47552.643	NaN	-3.457	1.630	9.207	1506.227	1504.029	1509.890	-1.908	0.000	0.305	-6.201	-0.230	8.115
47553.619	NaN	-3.467	1.630	9.196	1505.495	1504.029	1511.355	-1.985	0.183	0.153	-6.124	-0.230	8.115
47554.596	NaN	-3.478	1.630	9.217	1506.227	1504.029	1510.623	-2.229	0.412	0.275	-6.201	-0.153	8.115
47555.573	NaN	-3.467	1.620	9.228	1504.762	1504.029	1510.623	-2.031	0.183	0.137	-6.124	-0.230	8.191
47556.549	NaN	-3.467	1.630	9.228	1505.495	1503.297	1509.158	-2.061	-0.076	0.000	-6.201	-0.153	8.038
47557.526	NaN	-3.478	1.620	9.239	1504.762	1503.297	1509.158	-2.061	-0.168	-0.183	-6.124	-0.230	8.115
47558.502	NaN	-3.467	1.630	9.239	1505.495	1503.297	1509.890	-1.969	-0.183	-0.107	-6.124	-0.153	8.115
47559.479	NaN	-3.478	1.620	9.228	1504.762	1503.297	1511.355	-1.893	-0.092	0.061	-6.124	-0.230	8.268
47560.455	NaN	-3.478	1.620	9.228	1504.029	1503.297	1510.623	-1.969	0.092	0.198	-6.201	-0.230	8.038
47561.432	NaN	-3.478	1.630	9.239	1505.495	1503.297	1509.890	-2.122	0.183	0.000	-6.124	-0.230	8.115
47562.408	NaN	-3.489	1.630	9.261	1506.227	1504.029	1510.623	-2.015	0.092	0.000	-6.278	-0.306	8.115
47563.385	NaN	-3.489	1.630	9.272	1505.495	1504.029	1510.623	-2.031	0.076	0.183	-6.278	-0.230	8.191
47564.362	NaN	-3.500	1.630	9.272	1506.227	1504.029	1509.158	-2.061	0.107	0.153	-6.201	-0.306	8.268
47565.338	NaN	-3.489	1.630	9.272	1504.762	1505.495	1512.088	-1.939	0.183	0.122	-6.201	-0.230	8.268
47566.315	NaN	-3.500	1.630	9.272	1505.495	1503.297	1510.623	-2.015	0.076	0.137	-6.278	-0.230	8.268
47567.291	NaN	-3.500	1.620	9.272	1505.495	1504.029	1509.890	-1.985	0.076	0.168	-6.354	-0.230	8.268
47568.268	NaN	-3.511	1.620	9.272	1505.495	1503.297	1510.623	-2.015	0.229	0.214	-6.431	-0.230	8.268
47569.244	NaN	-3.500	1.630	9.261	1504.762	1504.762	1510.623	-1.969	0.107	-0.015	-6.201	-0.077	8.191
47570.221	3736846957.465	-3.500	1.641	9.272	1506.227	1504.029	1510.623	-1.939	0.031	0.092	-6.201	-0.153	8.191
47571.198	NaN	-3.500	1.652	9.283	1504.762	1504.029	1511.355	-1.802	0.122	0.244	-6.278	-0.153	8.191
47572.174	NaN	-3.500	1.641	9.283	1505.495	1504.029	1511.355	-1.603	0.061	0.168	-6.201	-0.230	8.038
47573.151	NaN	-3.511	1.641	9.283	1505.495	1503.297	1509.890	-1.786	-0.046	0.198	-6.201	-0.153	8.191
47574.127	NaN	-3.511	1.641	9.293	1506.227	1504.762	1510.623	-2.061	0.031	0.046	-6.201	-0.230	8.344
47575.104	NaN	-3.511	1.641	9.304	1504.762	1504.029	1511.355	-2.244	0.168	-0.061	-6.201	-0.153	8.115
47576.080	NaN	-3.500	1.641	9.293	1506.227	1504.762	1510.623	-2.275	0.305	0.061	-6.278	-0.230	8.191
47577.057	NaN	-3.511	1.641	9.293	1506.227	1504.029	1510.623	-2.046	0.290	0.092	-6.124	-0.230	8.191
47578.033	NaN	-3.522	1.630	9.293	1506.227	1503.297	1509.890	-1.969	0.092	0.092	-6.201	-0.153	8.268
47579.010	NaN	-3.511	1.620	9.293	1505.495	1504.029	1511.355	-1.954	-0.015	-0.092	-6.124	-0.230	8.115
47579.987	NaN	-3.511	1.620	9.293	1505.495	1504.762	1512.088	-1.817	0.000	0.000	-6.201	-0.306	8.191
47580.963	NaN	-3.511	1.630	9.283	1505.495	1503.297	1509.890	-1.863	0.183	0.015	-6.201	-0.306	8.191
47581.940	NaN	-3.522	1.620	9.293	1504.762	1504.029	1510.623	-2.092	0.229	-0.076	-6.124	-0.230	8.191
47582.916	NaN	-3.511	1.620	9.315	1506.960	1504.762	1510.623	-2.000	0.122	-0.061	-6.278	-0.230	8.115
47583.893	NaN	-3.522	1.620	9.315	1507.692	1504.029	1510.623	-1.893	0.122	0.031	-6.278	-0.306	8.191
47584.869	NaN	-3.511	1.630	9.315	1504.762	1502.564	1512.088	-2.061	0.183	0.092	-6.278	-0.230	8.191
47585.846	NaN	-3.500	1.641	9.315	1505.495	1504.762	1510.623	-2.076	0.137	0.229	-6.201	-0.077	8.268
47586.823	NaN	-3.511	1.630	9.315	1505.495	1504.762	1511.355	-2.305	0.031	0.198	-6.124	-0.230	8.191
47587.799	NaN	-3.511	1.641	9.304	1505.495	1504.762	1510.623	-2.153	0.122	0.000	-6.278	-0.230	8.191
47588.776	NaN	-3.500	1.630	9.315	1506.227	1504.762	1511.355	-2.153	0.214	0.015	-6.354	-0.306	8.115
47589.752	NaN	-3.511	1.630	9.315	1506.960	1503.297	1510.623	-2.076	0.229	0.031	-6.354	-0.306	8.038
47590.729	NaN	-3.511	1.620	9.315	1505.495	1504.029	1511.355	-2.000	0.137	0.107	-6.201	-0.230	8.344
47591.705	NaN	-3.511	1.630	9.315	1506.227	1504.762	1509.890	-2.107	0.061	0.336	-6.201	-0.230	8.191
47592.682	NaN	-3.500	1.630	9.315	1505.495	1504.762	1510.623	-2.183	0.137	0.321	-6.278	-0.153	8.191
47593.658	NaN	-3.500	1.630	9.293	1505.495	1504.029	1511.355	-2.015	0.046	0.260	-6.278	-0.153	8.268
47594.635	NaN	-3.500	1.630	9.304	1504.029	1504.029	1509.890	-2.031	0.046	0.214	-6.354	-0.306	8.191
47595.612	NaN	-3.511	1.620	9.283	1505.495	1504.029	1509.890	-1.893	0.198	-0.046	-6.201	-0.230	8.115
47596.588	NaN	-3.500	1.620	9.272	1506.227	1504.762	1510.623	-2.061	0.229	0.076	-6.201	-0.230	8.268
47597.565	NaN	-3.500	1.620	9.272	1506.227	1504.029	1510.623	-1.725	0.092	-0.092	-6.278	-0.230	8.268
47598.541	NaN	-3.500	1.620	9.261	1506.227	1504.762	1510.623	-1.588	0.244	-0.061	-6.201	-0.230	8.115
47599.518	NaN	-3.500	1.620	9.261	1505.495	1504.762	1509.890	-1.924	0.534	0.000	-6.201	-0.230	8.038
47600.494	NaN	-3.511	1.630	9.239	1504.762	1504.762	1509.890	-2.046	0.290	0.107	-6.124	0.000	8.115
47601.471	NaN	-3.500	1.630	9.250	1505.495	1504.762	1510.623	-1.924	0.260	0.168	-6.201	-0.306	8.038
47602.448	NaN	-3.500	1.620	9.250	1506.227	1503.297	1511.355	-1.817	0.244	0.107	-6.201	-0.077	8.191
47603.424	NaN	-3.500	1.620	9.250	1506.227	1503.297	1510.623	-2.000	0.336	0.153	-6.201	-0.153	8.038
47604.401	NaN	-3.511	1.620	9.261	1505.495	1504.029	1509.890	-2.168	0.275	0.168	-6.201	-0.230	8.268
47605.377	NaN	-3.489	1.630	9.261	1506.960	1503.297	1510.623	-1.832	0.107	0.107	-6.278	-0.153	8.191
47606.354	NaN	-3.489	1.620	9.261	1506.227	1504.029	1512.088	-1.771	0.046	-0.061	-6.278	-0.153	8.038
47607.330	NaN	-3.489	1.609	9.261	1506.960	1503.297	1509.158	-2.076	0.031	0.061	-6.201	-0.306	8.191
47608.307	NaN	-3.489	1.609	9.261	1505.495	1504.762	1510.623	-2.046	0.198	0.076	-6.124	-0.306	7.962
47609.283	NaN	-3.489	1.620	9.239	1506.227	1504.762	1510.623	-1.847	0.244	0.214	-6.124	-0.077	8.115
47610.260	NaN	-3.478	1.620	9.228	1505.495	1504.029	1510.623	-1.817	0.183	0.076	-6.201	-0.153	8.191
47611.237	NaN	-3.478	1.620	9.228	1505.495	1504.029	1510.623	-1.939	0.153	-0.031	-6.124	-0.230	8.115
47612.213	NaN	-3.478	1.620	9.228	1505.495	1504.029	1510.623	-1.969	0.229	0.092	-6.278	-0.230	8.115
47613.190	NaN	-3.467	1.609	9.239	1505.495	1504.029	1509.890	-1.924	0.290	0.046	-6.278	-0.077	8.191
47614.166	NaN	-3.467	1.620	9.239	1506.960	1504.762	1510.623	-1.954	0.168	0.031	-6.201	-0.153	8.191
47615.143	NaN	-3.457	1.641	9.228	1506.960	1504.029	1511.355	-1.985	0.153	0.061	-6.201	-0.153	8.115
47616.119	NaN	-3.446	1.630	9.228	1505.495	1504.029	1510.623	-1.939	0.214	0.061	-6.124	-0.306	8.268
47617.096	NaN	-3.446	1.620	9.207	1504.029	1503.297	1508.425	-1.786	0.382	-0.031	-6.048	-0.153	8.191
47632.721	NaN	-3.435	1.630	9.174	1505.495	1504.029	1511.355	-1.603	0.168	-0.076	-5.971	-0.230	8.115
47633.698	NaN	-3.446	1.641	9.174	1504.029	1504.762	1510.623	-1.771	0.198	0.031	-6.278	-0.230	8.115
47634.674	NaN	-3.435	1.641	9.185	1504.029	1503.297	1510.623	-1.939	0.214	0.168	-6.124	-0.077	8.038
47635.651	NaN	-3.424	1.641	9.174	1504.762	1504.029	1509.890	-1.878	0.305	0.122	-6.278	-0.306	8.191
47636.627	NaN	-3.424	1.630	9.163	1504.029	1503.297	1508.425	-1.832	0.275	0.061	-6.124	-0.153	7.885
47637.604	NaN	-3.413	1.641	9.163	1504.029	1504.029	1511.355	-1.924	0.168	0.061	-6.048	-0.077	8.038
47638.580	NaN	-3.424	1.630	9.152	1504.762	1504.029	1512.088	-2.061	0.183	-0.061	-6.201	-0.383	8.115
47639.557	NaN	-3.435	1.641	9.152	1504.029	1504.029	1509.158	-2.061	0.092	-0.122	-6.124	-0.153	8.038
47640.533	NaN	-3.435	1.641	9.152	1505.495	1504.029	1511.355	-1.817	0.076	0.153	-6.201	-0.306	8.115
47641.510	NaN	-3.446	1.630	9.163	1504.762	1503.297	1509.890	-1.740	0.229	0.229	-5.971	-0.153	7.962
47642.487	NaN	-3.424	1.641	9.174	1504.762	1504.029	1509.890	-1.847	0.290	0.153	-6.201	-0.153	8.115
47643.463	NaN	-3.435	1.630	9.152	1504.762	1504.029	1509.890	-1.847	0.168	0.229	-6.124	-0.153	7.962
47644.440	NaN	-3.446	1.620	9.152	1504.029	1504.029	1510.623	-1.908	0.153	0.229	-6.048	-0.230	8.038
47645.416	NaN	-3.424	1.620	9.163	1504.029	1505.495	1509.890	-1.954	0.214	0.122	-6.048	-0.077	8.038
47646.393	NaN	-3.424	1.630	9.174	1506.227	1504.762	1511.355	-1.893	0.214	0.015	-6.201	-0.153	7.885
47647.369	NaN	-3.424	1.630	9.163	1504.762	1504.029	1509.890	-1.786	0.015	0.000	-6.124	-0.230	7.962
47648.346	NaN	-3.424	1.630	9.163	1506.227	1503.297	1509.158	-1.786	-0.107	0.168	-6.354	-0.230	8.115
47649.323	NaN	-3.435	1.630	9.163	1503.297	1503.297	1509.890	-1.878	-0.015	0.305	-6.431	-0.153	8.038
47650.299	NaN	-3.435	1.630	9.163	1504.762	1504.762	1510.623	-1.847	0.061	0.351	-6.201	-0.153	7.962
47651.276	NaN	-3.446	1.641	9.174	1506.227	1503.297	1511.355	-1.603	0.153	0.198	-6.201	-0.306	8.038
47652.252	NaN	-3.457	1.630	9.174	1505.495	1504.029	1510.623	-1.496	0.229	0.092	-4.976	-0.230	7.962
47653.229	NaN	-3.457	1.630	9.174	1504.762	1504.029	1510.623	-1.740	0.168	-0.031	-6.124	-0.306	8.038
47654.205	NaN	-3.446	1.630	9.174	1505.495	1504.762	1510.623	-1.679	0.244	0.000	-6.124	-0.230	8.115
47655.182	NaN	-3.457	1.630	9.174	1504.762	1504.029	1511.355	-1.847	-0.046	-0.061	-6.354	-0.230	8.115
47656.158	NaN	-3.446	1.630	9.185	1504.762	1504.762	1510.623	-1.939	-0.107	0.092	-6.201	-0.230	8.038
47657.135	NaN	-3.457	1.641	9.196	1506.227	1504.762	1510.623	-1.802	0.229	0.076	-6.124	-0.230	8.191
47658.112	NaN	-3.467	1.641	9.207	1506.227	1504.762	1509.158	-1.664	0.473	0.046	-6.354	-0.306	8.038
47659.088	NaN	-3.467	1.652	9.207	1506.227	1504.762	1510.623	-1.481	0.351	0.107	-6.201	-0.153	8.344
47660.065	NaN	-3.467	1.641	9.217	1506.227	1504.029	1511.355	-1.511	0.061	0.260	-6.201	-0.383	8.191
47661.041	NaN	-3.467	1.641	9.217	1506.227	1504.029	1510.623	-1.878	0.000	0.214	-6.278	-0.306	8.191
47662.018	NaN	-3.467	1.630	9.217	1505.495	1504.762	1509.890	-1.878	0.137	0.092	-6.124	-0.153	8.115
47662.994	NaN	-3.457	1.630	9.217	1506.227	1504.029	1510.623	-1.847	0.092	0.122	-6.124	-0.077	8.038
47663.971	NaN	-3.457	1.620	9.228	1506.227	1503.297	1510.623	-1.573	0.031	0.137	-6.124	-0.230	8.191
47664.948	NaN	-3.467	1.630	9.217	1504.762	1504.029	1509.890	-1.603	0.031	0.168	-6.201	-0.306	7.962
47665.924	NaN	-3.467	1.641	9.217	1505.495	1504.029	1510.623	-1.847	0.015	0.153	-6.278	-0.153	8.115
47666.901	NaN	-3.478	1.630	9.228	1506.227	1503.297	1510.623	-1.863	0.092	0.137	-6.201	-0.306	8.268
47667.877	NaN	-3.467	1.641	9.239	1506.227	1504.762	1512.088	-1.664	0.122	0.153	-6.354	-0.153	8.268
47668.854	NaN	-3.478	1.641	9.261	1504.762	1504.029	1510.623	-1.603	0.092	0.153	-6.201	-0.230	8.115
47669.830	NaN	-3.478	1.620	9.261	1506.227	1503.297	1510.623	-1.786	-0.092	0.305	-6.278	-0.230	8.191
47670.807	NaN	-3.489	1.630	9.272	1506.960	1504.029	1510.623	-1.893	-0.015	0.260	-6.278	-0.153	7.962
47671.783	NaN	-3.500	1.620	9.272	1506.960	1504.029	1509.890	-1.771	0.275	0.153	-6.201	-0.230	8.268
47672.760	NaN	-3.489	1.620	9.283	1506.227	1504.762	1510.623	-1.588	0.260	-0.015	-6.124	-0.153	8.191
47673.737	NaN	-3.489	1.609	9.283	1505.495	1504.029	1511.355	-1.786	0.015	0.031	-6.201	-0.153	8.115
47674.713	NaN	-3.489	1.620	9.283	1505.495	1504.029	1510.623	-1.969	0.015	0.214	-6.278	-0.230	8.115
47675.690	NaN	-3.500	1.620	9.293	1504.029	1504.029	1509.158	-1.878	0.214	0.244	-6.278	-0.230	8.268
47676.666	NaN	-3.489	1.630	9.293	1506.227	1504.762	1510.623	-1.695	0.046	0.122	-6.278	-0.230	8.268
47677.643	NaN	-3.489	1.620	9.293	1506.227	1503.297	1511.355	-1.557	-0.061	0.015	-6.278	-0.077	8.115
47678.619	NaN	-3.489	1.630	9.293	1506.227	1504.029	1510.623	-1.649	0.076	-0.122	-6.124	-0.230	8.268
47679.596	NaN	-3.489	1.620	9.293	1504.762	1503.297	1511.355	-1.634	0.031	-0.046	-6.278	-0.230	8.115
47680.573	NaN	-3.511	1.630	9.304	1504.762	1503.297	1509.890	-1.695	0.061	0.290	-6.201	-0.230	8.191
47681.549	NaN	-3.489	1.641	9.304	1505.495	1503.297	1510.623	-1.557	0.015	0.198	-6.201	-0.077	8.268
47682.526	NaN	-3.511	1.630	9.293	1505.495	1504.762	1510.623	-1.573	0.137	0.046	-6.201	-0.306	8.344
47683.502	NaN	-3.511	1.630	9.315	1504.029	1503.297	1509.158	-1.786	0.229	0.061	-6.431	-0.230	8.191
47684.479	NaN	-3.511	1.630	9.293	1505.495	1504.029	1509.158	-1.710	0.305	0.061	-5.206	-0.153	8.191
47685.455	NaN	-3.511	1.620	9.293	1504.762	1503.297	1509.890	-1.542	0.244	-0.031	-6.354	-0.383	8.191
47686.432	NaN	-3.500	1.630	9.304	1506.227	1504.029	1510.623	-1.267	0.168	0.000	-6.201	-0.153	8.268
