Timestamp	PC Timestamp	Low Noise Accelerometer X	Low Noise Accelerometer Y	Low Noise Accelerometer Z	Int A12	Int A13	Int A14	Gyroscope X	Gyroscope Y	Gyroscope Z	Wide Range Accelerometer X	Wide Range Accelerometer Y	Wide Range Accelerometer Z
153117.096	NaN	2.924	6.663	-5.359	1509.890	1499.634	1501.099	-1.450	0.534	-1.374	1.072	5.129	-7.732
153118.073	NaN	2.924	6.674	-5.380	1511.355	1499.634	1501.099	-1.344	0.458	-1.466	0.766	5.282	-7.809
153119.049	NaN	2.946	6.685	-5.380	1510.623	1500.366	1500.366	-1.084	0.290	-1.496	0.766	5.129	-7.732
153120.026	NaN	2.935	6.696	-5.370	1511.355	1500.366	1500.366	-0.702	0.244	-1.542	0.689	5.282	-7.809
153121.002	NaN	2.935	6.685	-5.370	1509.158	1498.901	1500.366	-1.099	0.397	-1.542	0.919	5.282	-7.885
153121.979	NaN	2.924	6.685	-5.380	1510.623	1498.901	1498.901	-1.405	0.351	-1.481	0.842	5.206	-7.732
153122.955	NaN	2.924	6.685	-5.370	1512.088	1499.634	1501.099	-1.267	0.351	-1.313	0.919	5.282	-7.732
153123.932	NaN	2.935	6.685	-5.359	1510.623	1499.634	1500.366	-1.084	0.351	-1.313	0.919	5.359	-7.809
153124.908	NaN	2.935	6.685	-5.359	1511.355	1498.168	1500.366	-1.053	0.382	-1.573	0.766	5.282	-7.885
153125.885	NaN	2.935	6.685	-5.370	1510.623	1499.634	1500.366	-0.977	0.351	-1.389	0.842	5.206	-7.809
153126.862	NaN	2.924	6.685	-5.370	1510.623	1498.901	1501.099	-1.008	0.473	-1.344	0.919	5.359	-7.732
153127.838	NaN	2.924	6.696	-5.359	1510.623	1500.366	1499.634	-1.099	0.550	-1.466	0.842	5.359	-7.732
153128.815	NaN	2.913	6.685	-5.359	1511.355	1499.634	1501.099	-1.115	0.519	-1.435	0.842	5.282	-7.809
153129.791	NaN	2.902	6.696	-5.359	1510.623	1499.634	1501.832	-0.931	0.382	-1.420	0.689	5.282	-7.809
153130.768	NaN	2.891	6.685	-5.359	1510.623	1499.634	1500.366	-1.053	0.397	-1.527	0.766	5.282	-7.809
153131.744	NaN	2.902	6.696	-5.359	1511.355	1500.366	1500.366	-1.115	0.366	-1.420	0.842	5.206	-7.809
153132.721	NaN	2.913	6.696	-5.359	1510.623	1499.634	1501.832	-1.053	0.382	-1.511	0.766	5.129	-7.732
153133.698	NaN	2.913	6.685	-5.370	1511.355	1498.901	1501.099	-1.130	0.198	-1.359	0.842	5.129	-7.809
153134.674	NaN	2.924	6.674	-5.370	1509.890	1498.901	1501.832	-1.344	0.198	-1.145	0.842	5.282	-7.885
153135.651	NaN	2.924	6.685	-5.370	1510.623	1498.901	1499.634	-1.221	0.275	-1.298	0.842	5.206	-7.656
153136.627	NaN	2.924	6.685	-5.359	1510.623	1500.366	1500.366	-1.145	0.305	-1.527	0.842	5.359	-7.732
153137.604	NaN	2.913	6.685	-5.370	1510.623	1499.634	1500.366	-0.947	0.382	-1.603	0.919	5.282	-7.732
153138.580	NaN	2.913	6.685	-5.370	1510.623	1499.634	1501.832	-1.084	0.458	-1.420	0.919	5.282	-7.809
153139.557	NaN	2.913	6.674	-5.370	1510.623	1499.634	1501.832	-1.313	0.427	-1.344	0.766	5.206	-7.885
153140.533	NaN	2.924	6.685	-5.370	1510.623	1500.366	1500.366	-1.298	0.244	-1.450	0.919	5.282	-7.732
153141.510	NaN	2.924	6.685	-5.380	1511.355	1498.901	1500.366	-1.328	0.321	-1.511	0.766	5.359	-7.809
153142.487	NaN	2.924	6.696	-5.370	1511.355	1498.901	1501.099	-1.328	0.351	-1.573	0.766	5.282	-7.732
153143.463	NaN	2.924	6.696	-5.380	1510.623	1499.634	1501.099	-1.023	0.305	-1.420	0.842	5.282	-7.656
153144.440	NaN	2.924	6.685	-5.370	1510.623	1500.366	1498.901	-0.901	0.443	-1.435	0.766	5.282	-7.656
153145.416	NaN	2.924	6.674	-5.359	1509.890	1499.634	1498.168	-0.916	0.427	-1.374	0.689	5.206	-7.656
153146.393	NaN	2.924	6.674	-5.359	1509.890	1499.634	1500.366	-1.069	0.351	-1.420	0.842	5.282	-7.809
153147.369	NaN	2.924	6.674	-5.370	1510.623	1499.634	1501.832	-1.282	0.290	-1.511	0.842	5.129	-7.809
153148.346	NaN	2.924	6.674	-5.370	1509.158	1498.168	1500.366	-1.359	0.229	-1.405	0.995	5.359	-7.885
153149.323	NaN	2.924	6.674	-5.370	1511.355	1499.634	1501.099	-1.237	0.290	-1.298	0.766	5.282	-7.885
153150.299	NaN	2.924	6.663	-5.370	1510.623	1498.901	1501.099	-1.176	0.351	-1.466	0.842	5.359	-7.809
153151.276	NaN	2.924	6.685	-5.348	1509.890	1498.901	1499.634	-1.176	0.260	-1.511	0.842	5.206	-7.732
153152.252	NaN	2.924	6.674	-5.359	1510.623	1499.634	1500.366	-1.038	0.244	-1.359	0.766	5.282	-7.809
153153.229	NaN	2.935	6.685	-5.380	1509.158	1498.168	1499.634	-1.038	0.183	-1.221	0.766	5.282	-7.732
153154.205	NaN	2.935	6.685	-5.380	1510.623	1499.634	1501.832	-0.962	0.260	-1.160	0.919	5.206	-7.809
153155.182	NaN	2.924	6.685	-5.391	1509.890	1498.901	1500.366	-1.130	0.443	-1.389	0.842	5.282	-7.962
153156.158	NaN	2.924	6.685	-5.380	1509.890	1498.901	1501.832	-1.298	0.244	-1.573	0.842	5.129	-7.885
153157.135	NaN	2.924	6.685	-5.380	1510.623	1499.634	1501.099	-1.344	0.076	-1.573	0.842	5.282	-7.656
153158.112	NaN	2.924	6.674	-5.391	1509.890	1498.168	1500.366	-1.145	0.168	-1.420	0.842	5.359	-7.885
153159.088	NaN	2.924	6.685	-5.380	1510.623	1499.634	1501.832	-1.176	0.198	-1.282	0.842	5.206	-7.732
153160.065	NaN	2.924	6.685	-5.391	1510.623	1499.634	1501.099	-1.115	0.229	-1.389	0.842	5.282	-7.809
153161.041	NaN	2.924	6.685	-5.380	1509.890	1498.168	1499.634	-1.069	0.275	-1.191	0.842	5.206	-7.732
153162.018	NaN	2.935	6.674	-5.391	1510.623	1500.366	1498.901	-1.084	0.260	-1.206	0.689	5.359	-7.656
153162.994	NaN	2.935	6.663	-5.391	1509.890	1498.901	1499.634	-0.977	0.305	-1.206	0.919	5.206	-7.885
153163.971	NaN	2.935	6.663	-5.380	1510.623	1499.634	1500.366	-0.992	0.366	-1.206	0.842	5.282	-7.885
153164.948	NaN	2.935	6.685	-5.380	1506.960	1499.634	1500.366	-1.008	0.412	-1.450	0.842	5.206	-7.732
153165.924	NaN	2.935	6.685	-5.359	1509.158	1498.168	1500.366	-1.191	0.412	-1.511	0.919	5.206	-7.732
153166.901	NaN	2.913	6.685	-5.380	1509.890	1499.634	1501.099	-1.252	0.214	-1.496	0.766	5.282	-7.732
153167.877	NaN	2.913	6.674	-5.359	1509.158	1500.366	1499.634	-1.115	0.260	-1.313	0.842	5.282	-7.809
153168.854	NaN	2.913	6.674	-5.359	1509.890	1500.366	1500.366	-1.023	0.198	-1.344	0.842	5.129	-7.809
153169.830	NaN	2.913	6.674	-5.359	1509.158	1499.634	1499.634	-1.053	0.198	-1.450	0.689	5.359	-7.732
153170.807	NaN	2.902	6.674	-5.370	1509.158	1499.634	1499.634	-0.992	0.244	-1.481	0.766	5.282	-7.732
153171.783	NaN	2.913	6.663	-5.380	1510.623	1499.634	1501.832	-0.992	0.305	-1.527	0.689	5.206	-7.885
153172.760	NaN	2.913	6.674	-5.391	1510.623	1498.168	1500.366	-0.901	0.305	-1.511	0.919	5.359	-7.809
153173.737	NaN	2.913	6.685	-5.370	1510.623	1499.634	1501.099	-1.145	0.244	-1.481	0.842	5.359	-7.885
153174.713	NaN	2.902	6.685	-5.370	1509.890	1499.634	1499.634	-1.344	0.076	-1.527	0.766	5.206	-7.809
153175.690	NaN	2.902	6.674	-5.370	1509.158	1498.901	1500.366	-1.389	0.137	-1.466	0.919	5.282	-7.732
153176.666	NaN	2.924	6.685	-5.370	1510.623	1499.634	1500.366	-1.313	0.214	-1.374	0.995	5.282	-7.732
153177.643	NaN	2.924	6.685	-5.370	1509.890	1498.168	1501.099	-1.069	0.336	-1.511	0.842	5.359	-7.579
153178.619	NaN	2.924	6.696	-5.359	1510.623	1499.634	1500.366	-0.947	0.321	-1.466	0.842	5.129	-7.732
153179.596	NaN	2.913	6.674	-5.370	1510.623	1499.634	1501.099	-0.947	0.260	-1.557	0.689	5.282	-7.885
153180.573	NaN	2.924	6.685	-5.380	1509.158	1498.901	1500.366	-0.992	0.137	-1.634	0.766	5.359	-7.656
153181.549	NaN	2.924	6.696	-5.370	1509.890	1499.634	1502.564	-1.069	0.046	-1.466	0.842	5.282	-7.809
153182.526	NaN	2.924	6.685	-5.380	1510.623	1499.634	1499.634	-1.221	0.168	-1.389	0.842	5.435	-7.809
153183.502	NaN	2.924	6.674	-5.391	1509.158	1498.901	1500.366	-1.084	0.336	-1.496	0.689	5.206	-7.656
153184.479	NaN	2.924	6.685	-5.402	1510.623	1499.634	1500.366	-0.977	0.336	-1.481	0.842	5.129	-7.885
153185.455	NaN	2.924	6.685	-5.380	1510.623	1499.634	1501.832	-1.038	0.214	-1.573	0.842	5.282	-7.732
153186.432	NaN	2.924	6.696	-5.380	1509.890	1499.634	1500.366	-1.099	0.183	-1.725	0.919	5.282	-7.732
153187.408	NaN	2.935	6.696	-5.380	1510.623	1499.634	1499.634	-1.267	0.214	-1.695	0.842	5.206	-7.732
153188.385	NaN	2.946	6.685	-5.380	1510.623	1499.634	1498.901	-1.176	0.305	-1.557	0.766	5.282	-7.885
153189.362	NaN	2.924	6.685	-5.402	1511.355	1498.901	1501.099	-1.191	0.305	-1.557	0.995	5.206	-7.809
153190.338	NaN	2.924	6.685	-5.402	1508.425	1498.901	1499.634	-1.038	0.046	-1.435	0.766	5.206	-7.732
153191.315	NaN	2.924	6.685	-5.380	1509.890	1499.634	1499.634	-0.824	0.214	-1.328	0.766	5.206	-7.809
153192.291	NaN	2.913	6.685	-5.370	1510.623	1499.634	1499.634	-0.840	0.473	-1.221	0.919	5.282	-7.732
153193.268	NaN	2.902	6.674	-5.359	1510.623	1498.901	1501.099	-0.962	0.504	-1.221	0.766	5.206	-7.809
153194.244	NaN	2.913	6.696	-5.348	1512.821	1500.366	1500.366	-1.130	0.397	-1.267	0.842	5.206	-7.732
153195.221	NaN	2.902	6.696	-5.348	1510.623	1499.634	1501.832	-1.069	0.321	-1.420	0.766	5.359	-7.732
153196.198	NaN	2.902	6.696	-5.370	1510.623	1499.634	1500.366	-1.176	0.260	-1.542	0.842	5.435	-7.962
153197.174	NaN	2.913	6.696	-5.370	1510.623	1498.901	1500.366	-0.947	0.275	-1.389	0.842	5.206	-7.732
153198.151	NaN	2.913	6.696	-5.380	1511.355	1499.634	1501.099	-0.824	0.427	-1.313	0.842	5.359	-7.885
153199.127	NaN	2.913	6.696	-5.370	1510.623	1499.634	1500.366	-1.053	0.336	-1.374	0.919	5.359	-7.656
153200.104	NaN	2.913	6.685	-5.370	1509.890	1499.634	1501.099	-1.328	0.198	-1.679	0.842	5.206	-7.885
153201.080	NaN	2.913	6.685	-5.370	1510.623	1498.901	1500.366	-1.405	0.183	-1.420	0.919	5.282	-7.732
153202.057	NaN	2.913	6.685	-5.380	1509.890	1499.634	1500.366	-1.176	0.275	-1.344	0.766	5.206	-7.656
153203.033	NaN	2.913	6.685	-5.391	1509.890	1501.099	1499.634	-0.885	0.321	-1.481	0.919	5.129	-7.656
153204.010	NaN	2.913	6.674	-5.380	1510.623	1500.366	1500.366	-0.931	0.305	-1.771	0.842	5.206	-7.885
153204.987	NaN	2.913	6.674	-5.391	1510.623	1498.901	1500.366	-1.115	0.244	-1.771	0.766	5.512	-7.885
153205.963	NaN	2.924	6.674	-5.380	1510.623	1498.901	1499.634	-1.115	0.321	-1.710	0.766	5.282	-7.656
153206.940	NaN	2.924	6.674	-5.380	1510.623	1499.634	1501.099	-1.191	0.244	-1.618	0.919	5.206	-7.732
153207.916	NaN	2.913	6.674	-5.380	1509.890	1498.168	1501.099	-1.115	0.183	-1.573	0.919	5.359	-7.579
153208.893	NaN	2.913	6.685	-5.370	1510.623	1498.901	1501.099	-1.023	0.137	-1.389	0.766	5.129	-7.809
153209.869	NaN	2.913	6.685	-5.359	1509.890	1499.634	1501.099	-1.145	0.244	-1.450	0.842	5.129	-7.732
153210.846	NaN	2.913	6.674	-5.359	1510.623	1499.634	1501.099	-0.916	0.137	-1.527	0.842	5.206	-7.809
153211.823	NaN	2.902	6.674	-5.348	1509.890	1498.901	1500.366	-0.809	0.153	-1.588	0.689	5.129	-7.885
153212.799	NaN	2.924	6.685	-5.337	1509.158	1498.901	1500.366	-0.962	0.244	-1.420	0.842	5.435	-7.885
153213.776	NaN	2.913	6.685	-5.359	1511.355	1499.634	1501.832	-1.191	0.214	-1.359	0.689	5.359	-7.885
153214.752	NaN	2.913	6.674	-5.359	1510.623	1498.901	1500.366	-1.206	0.351	-1.313	0.766	5.282	-7.885
153215.729	NaN	2.913	6.674	-5.380	1510.623	1498.901	1502.564	-1.160	0.412	-1.481	0.766	5.206	-7.809
153216.705	NaN	2.924	6.685	-5.380	1511.355	1499.634	1500.366	-1.237	0.443	-1.557	0.766	5.359	-7.732
153217.682	NaN	2.935	6.685	-5.380	1510.623	1500.366	1501.099	-0.931	0.443	-1.420	0.842	5.282	-7.732
153218.658	NaN	2.935	6.674	-5.391	1509.158	1499.634	1500.366	-0.794	0.305	-1.466	0.842	5.206	-7.732
153219.635	NaN	2.935	6.674	-5.380	1509.890	1499.634	1499.634	-0.763	0.168	-1.374	0.766	5.206	-7.809
153220.612	NaN	2.935	6.663	-5.380	1510.623	1500.366	1500.366	-1.008	0.397	-1.466	0.842	5.206	-7.809
153221.588	NaN	2.935	6.663	-5.380	1509.158	1498.901	1499.634	-1.298	0.321	-1.649	0.766	5.282	-7.962
153222.565	NaN	2.946	6.663	-5.359	1510.623	1499.634	1500.366	-1.267	0.122	-1.863	0.766	5.282	-7.809
153223.541	NaN	2.946	6.674	-5.370	1509.890	1499.634	1500.366	-0.992	0.168	-1.695	0.842	5.129	-7.809
153224.518	NaN	2.946	6.663	-5.370	1509.158	1498.901	1498.901	-0.977	0.305	-1.588	0.842	5.282	-7.809
153225.494	NaN	2.935	6.674	-5.370	1511.355	1499.634	1500.366	-1.069	0.122	-1.557	0.919	5.359	-7.885
153226.471	NaN	2.924	6.674	-5.359	1510.623	1499.634	1500.366	-0.962	0.382	-1.328	0.842	5.282	-7.656
153227.448	NaN	2.924	6.674	-5.370	1509.890	1499.634	1501.099	-0.687	0.458	-1.374	0.842	5.282	-7.732
153228.424	NaN	2.924	6.674	-5.380	1509.158	1499.634	1501.099	-1.008	0.351	-1.313	0.919	5.282	-7.809
153229.401	NaN	2.913	6.674	-5.402	1512.088	1499.634	1500.366	-1.099	0.336	-1.466	0.995	5.282	-7.732
153230.377	NaN	2.924	6.674	-5.391	1510.623	1500.366	1500.366	-1.282	0.214	-1.695	0.766	5.282	-7.732
153231.354	NaN	2.924	6.674	-5.380	1510.623	1499.634	1500.366	-1.130	0.229	-1.649	0.766	5.206	-7.809
153232.330	NaN	2.924	6.674	-5.380	1509.890	1498.901	1501.099	-0.901	0.214	-1.603	0.842	5.206	-7.732
153233.307	NaN	2.913	6.674	-5.391	1509.158	1498.901	1500.366	-1.069	0.137	-1.649	0.766	5.359	-7.809
153234.283	NaN	2.913	6.674	-5.391	1510.623	1500.366	1500.366	-1.115	0.198	-1.588	0.766	5.282	-7.809
153235.260	NaN	2.913	6.685	-5.370	1511.355	1499.634	1500.366	-1.084	0.229	-1.466	0.919	5.206	-7.809
153236.237	NaN	2.924	6.685	-5.359	1509.890	1500.366	1498.168	-1.221	0.290	-1.481	0.766	5.206	-7.885
153237.213	NaN	2.924	6.685	-5.370	1510.623	1499.634	1501.099	-1.420	0.229	-1.466	0.766	5.129	-7.962
153238.190	NaN	2.924	6.674	-5.380	1510.623	1499.634	1501.099	-1.267	0.260	-1.267	0.766	5.282	-7.732
153239.166	NaN	2.924	6.674	-5.380	1509.890	1497.436	1498.901	-0.992	0.229	-1.160	0.842	5.206	-7.656
153240.143	NaN	2.935	6.663	-5.359	1509.890	1498.901	1500.366	-0.702	0.214	-1.405	0.689	5.129	-7.579
153241.119	NaN	2.935	6.663	-5.359	1511.355	1499.634	1500.366	-1.053	0.366	-1.527	0.842	5.282	-7.732
153242.096	NaN	2.935	6.674	-5.370	1507.692	1498.901	1500.366	-1.221	0.321	-1.435	0.842	5.359	-7.732
153243.073	NaN	2.924	6.674	-5.370	1510.623	1499.634	1499.634	-0.855	0.168	-1.466	0.842	5.129	-7.809
153244.049	NaN	2.924	6.685	-5.380	1510.623	1498.168	1500.366	-0.687	0.168	-1.481	0.766	5.359	-7.732
153245.026	NaN	2.924	6.685	-5.370	1511.355	1499.634	1500.366	-0.962	0.336	-1.527	0.919	5.282	-7.732
153246.002	NaN	2.935	6.685	-5.370	1510.623	1499.634	1501.832	-1.237	0.137	-1.496	0.842	5.359	-7.732
153246.979	NaN	2.935	6.685	-5.380	1509.158	1498.901	1498.901	-1.115	0.198	-1.328	0.919	5.282	-7.732
153247.955	NaN	2.935	6.685	-5.370	1511.355	1499.634	1501.832	-0.885	0.366	-1.435	0.842	5.282	-7.809
153248.932	NaN	2.924	6.674	-5.380	1508.425	1498.901	1501.099	-1.084	0.290	-1.405	0.842	5.282	-7.809
153249.908	NaN	2.935	6.685	-5.380	1510.623	1499.634	1501.099	-1.298	0.412	-1.389	0.842	5.282	-7.809
153250.885	NaN	2.924	6.685	-5.391	1510.623	1498.901	1500.366	-1.160	0.366	-1.389	0.842	5.359	-7.732
153251.862	NaN	2.924	6.685	-5.402	1510.623	1499.634	1501.099	-1.191	0.275	-1.496	0.612	5.282	-7.885
153252.838	NaN	2.935	6.685	-5.380	1511.355	1499.634	1499.634	-1.282	0.290	-1.435	0.842	5.282	-7.732
153253.815	NaN	2.935	6.663	-5.391	1510.623	1499.634	1501.099	-1.130	0.305	-1.527	0.919	5.282	-7.809
153254.791	NaN	2.946	6.674	-5.391	1509.890	1498.168	1501.099	-1.160	0.198	-1.618	0.766	5.282	-7.962
153255.768	NaN	2.935	6.674	-5.391	1509.890	1498.901	1498.901	-1.023	0.321	-1.588	0.766	5.206	-7.885
153256.744	NaN	2.935	6.674	-5.402	1510.623	1499.634	1500.366	-0.977	0.382	-1.618	0.689	5.282	-7.885
153257.721	NaN	2.924	6.685	-5.380	1509.890	1499.634	1500.366	-0.870	0.244	-1.603	0.842	5.206	-7.656
153258.698	NaN	2.924	6.674	-5.370	1509.890	1500.366	1499.634	-0.992	0.275	-1.466	0.766	5.206	-7.732
153259.674	NaN	2.924	6.663	-5.370	1509.158	1499.634	1500.366	-0.962	0.275	-1.389	0.919	5.282	-7.732
153260.651	NaN	2.913	6.663	-5.380	1510.623	1498.901	1500.366	-0.962	0.244	-1.450	0.766	5.359	-7.809
153261.627	NaN	2.913	6.663	-5.370	1510.623	1499.634	1501.099	-1.221	0.137	-1.557	0.766	5.206	-7.885
153262.604	NaN	2.913	6.663	-5.359	1510.623	1500.366	1498.901	-1.389	0.214	-1.557	0.689	5.206	-7.732
153263.580	NaN	2.913	6.663	-5.380	1509.890	1500.366	1500.366	-1.420	0.336	-1.679	0.766	5.282	-7.732
153264.557	NaN	2.913	6.674	-5.391	1509.890	1498.901	1500.366	-1.237	0.458	-1.725	0.842	5.282	-7.732
153265.533	NaN	2.913	6.685	-5.391	1510.623	1499.634	1499.634	-1.115	0.443	-1.634	0.842	5.206	-7.656
153266.510	NaN	2.924	6.674	-5.380	1510.623	1499.634	1501.099	-1.252	0.366	-1.588	0.842	5.359	-7.809
153267.487	NaN	2.924	6.674	-5.391	1512.088	1498.901	1498.901	-1.206	0.305	-1.481	0.766	5.282	-7.809
153268.463	NaN	2.924	6.663	-5.370	1510.623	1498.168	1499.634	-1.206	0.275	-1.664	0.919	5.435	-7.809
153269.440	NaN	2.924	6.663	-5.359	1509.158	1499.634	1499.634	-1.252	0.397	-1.710	0.766	5.282	-7.809
153270.416	NaN	2.924	6.663	-5.348	1510.623	1498.168	1500.366	-1.160	0.443	-1.695	0.842	5.129	-7.579
153271.393	NaN	2.924	6.674	-5.348	1509.890	1498.168	1498.901	-0.977	0.336	-1.527	0.842	5.206	-7.732
153272.369	NaN	2.913	6.685	-5.370	1510.623	1499.634	1501.099	-1.084	0.290	-1.603	0.766	5.282	-7.809
153273.346	NaN	2.913	6.685	-5.359	1509.890	1498.168	1500.366	-1.328	0.137	-1.725	0.766	5.359	-7.809
153274.323	NaN	2.913	6.685	-5.380	1511.355	1499.634	1500.366	-1.481	-0.031	-1.771	0.766	5.359	-7.732
153275.299	NaN	2.902	6.685	-5.380	1509.890	1498.901	1500.366	-1.237	0.244	-1.542	0.842	5.206	-7.809
153276.276	NaN	2.913	6.696	-5.359	1510.623	1498.901	1500.366	-0.870	0.397	-1.542	0.766	5.282	-7.809
153277.252	NaN	2.902	6.685	-5.359	1509.890	1498.901	1498.901	-0.947	0.321	-1.603	0.766	5.282	-7.809
153278.229	NaN	2.913	6.685	-5.359	1509.158	1499.634	1501.099	-1.176	0.397	-1.603	0.766	5.282	-7.809
153279.205	NaN	2.913	6.674	-5.359	1510.623	1500.366	1500.366	-1.344	0.489	-1.649	0.766	5.206	-7.656
153280.182	NaN	2.902	6.685	-5.348	1510.623	1499.634	1501.099	-1.023	0.458	-1.664	0.766	5.282	-7.809
153281.158	NaN	2.913	6.674	-5.359	1509.890	1499.634	1500.366	-0.855	0.260	-1.603	0.842	5.129	-7.732
153282.135	NaN	2.913	6.674	-5.359	1511.355	1498.901	1501.099	-0.992	0.183	-1.405	0.842	5.206	-7.885
153283.112	NaN	2.913	6.674	-5.359	1510.623	1499.634	1500.366	-1.328	0.061	-1.328	0.919	5.282	-7.656
153284.088	NaN	2.924	6.674	-5.359	1510.623	1500.366	1501.099	-1.420	0.076	-1.359	0.766	5.282	-7.809
153285.065	NaN	2.924	6.663	-5.370	1509.890	1499.634	1500.366	-1.481	0.061	-1.573	0.919	5.206	-7.809
153286.041	NaN	2.924	6.674	-5.370	1509.890	1499.634	1500.366	-1.038	0.260	-1.725	0.766	5.282	-7.732
153287.018	NaN	2.924	6.674	-5.380	1509.158	1499.634	1500.366	-0.748	0.290	-1.618	0.766	5.282	-7.732
153287.994	NaN	2.935	6.674	-5.380	1511.355	1500.366	1498.901	-0.885	0.382	-1.527	0.919	5.206	-7.809
153288.971	NaN	2.924	6.674	-5.380	1510.623	1499.634	1500.366	-1.008	0.382	-1.573	0.842	5.206	-7.732
153289.948	NaN	2.924	6.674	-5.380	1510.623	1498.901	1502.564	-1.252	0.275	-1.557	0.919	5.282	-7.809
153290.924	NaN	2.913	6.674	-5.370	1510.623	1498.901	1500.366	-1.145	0.275	-1.557	0.766	5.359	-7.809
153291.901	NaN	2.913	6.685	-5.391	1510.623	1498.901	1501.099	-1.053	0.244	-1.573	0.766	5.359	-7.809
153292.877	NaN	2.913	6.685	-5.380	1509.890	1499.634	1501.832	-1.099	0.198	-1.924	0.919	5.359	-7.732
153293.854	NaN	2.902	6.674	-5.380	1509.890	1498.901	1500.366	-1.221	0.321	-1.649	0.919	5.206	-7.732
153294.830	NaN	2.913	6.674	-5.370	1510.623	1498.901	1500.366	-1.344	0.336	-1.511	0.689	5.282	-7.885
153295.807	NaN	2.902	6.685	-5.380	1509.158	1499.634	1501.099	-1.328	0.351	-1.405	0.919	5.282	-7.732
153296.783	NaN	2.902	6.674	-5.380	1510.623	1497.436	1500.366	-1.038	0.153	-1.435	0.842	5.282	-7.656
153297.760	NaN	2.913	6.685	-5.370	1509.158	1498.168	1499.634	-0.947	0.107	-1.435	0.689	5.282	-7.809
153298.737	NaN	2.913	6.674	-5.370	1511.355	1499.634	1500.366	-0.916	0.214	-1.634	0.842	5.206	-7.732
153299.713	NaN	2.902	6.685	-5.380	1511.355	1498.901	1501.099	-0.870	0.412	-1.725	0.766	5.359	-7.732
153300.690	NaN	2.902	6.674	-5.370	1510.623	1499.634	1499.634	-1.115	0.443	-1.710	0.919	5.206	-7.809
153301.666	NaN	2.902	6.674	-5.359	1510.623	1500.366	1500.366	-1.053	0.305	-1.344	0.842	5.206	-7.732
153302.643	NaN	2.913	6.674	-5.359	1509.890	1500.366	1500.366	-0.794	0.183	-1.282	0.919	5.435	-7.809
153303.619	NaN	2.902	6.685	-5.370	1509.890	1499.634	1500.366	-0.885	0.229	-1.466	0.842	5.282	-7.885
153304.596	NaN	2.902	6.685	-5.370	1507.692	1498.901	1501.099	-1.313	0.229	-1.634	0.842	5.206	-7.809
153305.573	NaN	2.902	6.696	-5.370	1511.355	1498.901	1500.366	-1.267	0.260	-1.649	0.689	5.282	-7.656
153306.549	NaN	2.902	6.685	-5.380	1509.158	1499.634	1498.901	-0.901	0.076	-1.511	0.689	5.282	-7.809
153307.526	NaN	2.902	6.696	-5.359	1509.890	1498.168	1501.099	-0.779	0.061	-1.527	0.842	5.282	-7.809
153308.502	NaN	2.913	6.685	-5.370	1510.623	1499.634	1500.366	-0.779	0.137	-1.725	0.766	5.359	-7.809
153309.479	NaN	2.913	6.696	-5.380	1509.890	1498.901	1499.634	-0.916	0.366	-1.511	0.766	5.206	-7.809
153310.455	NaN	2.913	6.685	-5.370	1511.355	1500.366	1500.366	-1.115	0.305	-1.466	0.689	5.359	-7.809
153311.432	NaN	2.902	6.685	-5.391	1510.623	1498.901	1499.634	-1.221	0.336	-1.466	0.919	5.282	-7.732
153312.408	NaN	2.902	6.663	-5.380	1509.158	1498.168	1500.366	-1.160	0.351	-1.603	0.919	5.206	-7.809
153313.385	NaN	2.902	6.663	-5.370	1509.890	1498.901	1499.634	-1.160	0.275	-1.588	0.842	5.359	-7.732
153314.362	NaN	2.902	6.674	-5.370	1510.623	1499.634	1500.366	-1.160	0.153	-1.481	0.919	5.359	-7.809
153315.338	NaN	2.913	6.685	-5.348	1510.623	1499.634	1501.832	-1.069	0.275	-1.450	0.919	5.282	-7.962
153316.315	NaN	2.913	6.674	-5.359	1511.355	1499.634	1501.832	-1.023	0.198	-1.496	0.842	5.206	-7.809
153317.291	NaN	2.913	6.685	-5.359	1511.355	1499.634	1501.832	-0.992	0.229	-1.664	0.842	5.206	-7.809
153318.268	NaN	2.913	6.685	-5.380	1509.890	1499.634	1501.099	-1.221	0.427	-1.634	0.766	5.282	-7.732
153319.244	NaN	2.913	6.685	-5.370	1509.890	1498.168	1500.366	-1.237	0.504	-1.588	0.766	5.282	-7.809
153320.221	NaN	2.913	6.685	-5.370	1509.890	1498.168	1499.634	-1.008	0.550	-1.679	0.842	5.206	-7.656
153321.198	NaN	2.902	6.674	-5.370	1509.890	1499.634	1499.634	-0.824	0.321	-1.679	0.995	5.206	-7.656
153322.174	NaN	2.902	6.674	-5.359	1509.158	1498.901	1499.634	-1.023	0.290	-1.634	0.766	5.282	-7.732
153323.151	NaN	2.913	6.685	-5.348	1510.623	1499.634	1499.634	-1.344	0.260	-1.603	0.842	5.206	-7.732
153324.127	NaN	2.902	6.674	-5.348	1509.158	1498.168	1498.901	-1.237	0.382	-1.557	0.766	5.359	-7.885
153325.104	NaN	2.924	6.674	-5.337	1509.890	1498.901	1499.634	-1.221	0.427	-1.542	0.689	5.206	-7.732
153326.080	NaN	2.913	6.663	-5.326	1510.623	1498.901	1501.099	-1.267	0.321	-1.466	0.766	5.206	-7.732
153327.057	NaN	2.913	6.674	-5.337	1509.890	1498.168	1501.099	-1.282	0.244	-1.298	0.842	5.206	-7.885
153328.033	NaN	2.924	6.674	-5.337	1509.890	1499.634	1501.099	-1.115	0.321	-1.420	0.766	5.359	-7.885
153329.010	NaN	2.924	6.685	-5.337	1510.623	1499.634	1500.366	-1.145	0.382	-1.725	0.766	5.282	-7.809
153329.987	NaN	2.913	6.685	-5.337	1510.623	1499.634	1501.099	-1.221	0.305	-1.893	0.842	5.282	-7.732
153330.963	NaN	2.913	6.685	-5.337	1509.890	1499.634	1498.901	-1.344	0.412	-1.649	0.766	5.206	-7.885
153331.940	NaN	2.913	6.674	-5.348	1510.623	1499.634	1500.366	-1.115	0.382	-1.557	0.919	5.282	-7.885
153332.916	NaN	2.913	6.674	-5.370	1509.890	1498.901	1497.436	-0.947	0.260	-1.695	0.689	5.206	-7.809
153333.893	NaN	2.924	6.674	-5.359	1509.158	1498.901	1500.366	-1.084	0.275	-1.435	0.842	5.282	-7.809
153334.869	NaN	2.924	6.674	-5.359	1511.355	1499.634	1501.099	-1.099	0.351	-1.328	0.766	5.129	-7.885
153335.846	NaN	2.913	6.663	-5.359	1509.890	1498.901	1500.366	-0.962	0.458	-1.252	0.919	5.435	-7.885
153336.823	NaN	2.913	6.674	-5.359	1510.623	1499.634	1501.832	-0.916	0.427	-1.618	0.919	5.206	-7.809
153337.799	NaN	2.913	6.663	-5.359	1510.623	1500.366	1500.366	-0.763	0.412	-1.588	0.766	5.282	-7.809
153338.776	NaN	2.913	6.674	-5.359	1510.623	1499.634	1501.099	-0.840	0.489	-1.481	0.766	5.359	-7.962
153339.752	NaN	2.913	6.674	-5.359	1509.890	1498.901	1501.099	-0.931	0.427	-1.542	0.919	5.282	-7.885
153340.729	NaN	2.913	6.674	-5.370	1510.623	1498.901	1499.634	-1.069	0.244	-1.634	0.766	5.282	-7.656
153341.705	NaN	2.924	6.674	-5.370	1510.623	1499.634	1500.366	-1.221	0.076	-1.588	0.919	5.359	-7.809
153342.682	NaN	2.913	6.674	-5.370	1509.890	1499.634	1500.366	-1.252	0.107	-1.374	0.919	5.129	-7.732
153343.658	NaN	2.913	6.685	-5.380	1510.623	1499.634	1500.366	-1.069	0.168	-1.557	0.842	5.282	-7.809
153344.635	NaN	2.902	6.674	-5.402	1509.158	1498.168	1499.634	-1.008	0.198	-1.740	0.842	5.206	-7.656
153345.612	NaN	2.902	6.685	-5.391	1509.158	1498.901	1499.634	-0.947	0.290	-1.771	0.766	5.282	-7.732
153346.588	NaN	2.891	6.685	-5.380	1509.890	1498.168	1498.901	-0.885	0.305	-1.710	0.919	5.206	-7.809
153347.565	NaN	2.891	6.685	-5.380	1509.890	1498.901	1501.099	-1.099	0.336	-1.557	0.919	5.282	-7.809
153348.541	NaN	2.913	6.685	-5.370	1509.158	1498.901	1500.366	-0.901	0.275	-1.679	0.842	5.359	-7.809
153349.518	NaN	2.913	6.674	-5.380	1509.890	1498.901	1501.099	-0.748	0.260	-1.618	0.766	5.282	-7.885
153350.494	NaN	2.924	6.685	-5.380	1509.890	1499.634	1501.832	-1.008	0.305	-1.573	0.919	5.359	-7.732
153351.471	NaN	2.935	6.685	-5.370	1510.623	1498.901	1501.832	-1.115	0.214	-1.420	0.842	5.282	-7.885
153352.448	NaN	2.935	6.685	-5.370	1512.088	1499.634	1501.832	-0.931	0.137	-1.573	0.919	5.282	-7.732
153353.424	NaN	2.935	6.674	-5.370	1510.623	1498.901	1499.634	-0.885	0.122	-1.725	0.766	5.282	-7.809
153354.401	NaN	2.935	6.674	-5.380	1509.890	1499.634	1500.366	-0.947	0.366	-1.786	0.689	5.206	-7.809
153355.377	NaN	2.946	6.674	-5.359	1511.355	1499.634	1500.366	-1.084	0.504	-1.710	0.766	5.206	-7.732
153356.354	NaN	2.946	6.674	-5.359	1510.623	1499.634	1501.099	-1.008	0.183	-1.725	0.766	5.282	-7.809
153357.330	NaN	2.935	6.674	-5.359	1509.890	1498.901	1499.634	-1.008	0.336	-1.649	0.842	5.359	-7.885
153358.307	NaN	2.924	6.674	-5.359	1509.890	1499.634	1500.366	-0.779	0.412	-1.542	0.766	5.359	-7.732
153359.283	NaN	2.935	6.685	-5.370	1511.355	1500.366	1501.832	-0.885	0.260	-1.527	0.995	5.359	-7.809
153360.260	NaN	2.924	6.685	-5.359	1510.623	1498.901	1500.366	-1.008	0.168	-1.588	0.766	5.206	-7.885
153361.237	NaN	2.913	6.685	-5.370	1510.623	1498.901	1500.366	-1.130	0.229	-1.740	0.842	5.206	-7.885
153362.213	NaN	2.924	6.685	-5.370	1509.890	1498.901	1500.366	-0.916	0.275	-1.679	0.766	5.206	-7.732
153363.190	NaN	2.902	6.674	-5.391	1509.890	1499.634	1500.366	-0.809	0.229	-1.466	0.919	5.206	-7.732
153364.166	NaN	2.924	6.685	-5.380	1509.890	1500.366	1500.366	-1.038	0.260	-1.496	0.689	5.359	-7.732
153365.143	NaN	2.924	6.685	-5.380	1510.623	1499.634	1500.366	-1.069	0.183	-1.832	0.842	5.282	-7.809
153366.119	NaN	2.924	6.696	-5.380	1510.623	1499.634	1500.366	-1.115	0.107	-1.786	0.842	5.206	-7.885
153367.096	NaN	2.913	6.685	-5.370	1509.890	1498.901	1500.366	-1.008	0.076	-1.542	0.766	5.359	-7.809
153368.073	NaN	2.913	6.696	-5.380	1510.623	1499.634	1501.099	-0.947	0.137	-1.557	0.842	5.282	-7.732
153369.049	NaN	2.924	6.685	-5.380	1510.623	1498.901	1499.634	-0.870	0.198	-1.679	0.842	5.282	-7.809
153370.026	NaN	2.913	6.685	-5.370	1510.623	1498.901	1500.366	-0.885	0.336	-1.740	0.842	5.359	-7.962
153371.002	NaN	2.913	6.674	-5.370	1510.623	1500.366	1498.901	-1.023	0.443	-1.695	0.995	5.206	-7.809
153371.979	NaN	2.913	6.663	-5.370	1509.158	1498.901	1498.901	-1.053	0.427	-1.649	0.842	5.206	-7.809
153372.955	NaN	2.913	6.685	-5.348	1510.623	1498.901	1501.832	-1.160	0.321	-1.603	0.766	5.282	-7.885
153373.932	NaN	2.924	6.685	-5.359	1510.623	1498.901	1500.366	-1.237	0.427	-1.527	0.919	5.359	-7.732
153374.908	NaN	2.913	6.663	-5.359	1510.623	1498.901	1500.366	-0.840	0.397	-1.359	0.842	5.206	-7.732
153375.885	NaN	2.924	6.674	-5.370	1510.623	1499.634	1501.099	-0.656	0.397	-1.435	0.842	5.282	-7.732
153376.862	NaN	2.924	6.663	-5.370	1509.890	1499.634	1501.832	-0.870	0.183	-1.511	0.842	5.359	-7.809
153377.838	NaN	2.935	6.685	-5.370	1510.623	1499.634	1500.366	-1.130	0.275	-1.679	0.919	5.282	-7.809
153378.815	NaN	2.924	6.696	-5.380	1511.355	1498.901	1498.168	-1.130	0.382	-1.756	0.842	5.359	-7.962
153379.791	NaN	2.902	6.685	-5.370	1509.158	1499.634	1499.634	-1.252	0.351	-1.542	0.689	5.129	-7.962
153380.768	NaN	2.913	6.685	-5.359	1509.158	1499.634	1500.366	-1.298	0.305	-1.649	0.766	5.206	-7.809
153381.744	NaN	2.902	6.685	-5.359	1511.355	1499.634	1499.634	-1.221	0.153	-1.603	0.919	5.282	-7.885
153382.721	NaN	2.902	6.685	-5.359	1509.890	1499.634	1501.099	-0.962	0.290	-1.557	0.689	5.129	-7.656
153383.698	NaN	2.902	6.696	-5.359	1510.623	1499.634	1500.366	-0.962	0.275	-1.679	0.766	5.282	-7.732
153384.674	NaN	2.902	6.685	-5.370	1511.355	1498.901	1500.366	-0.901	0.183	-1.771	0.766	5.282	-7.732
153385.651	NaN	2.913	6.685	-5.370	1510.623	1498.901	1500.366	-0.977	0.443	-1.664	0.766	5.206	-7.732
153386.627	NaN	2.924	6.685	-5.359	1510.623	1499.634	1501.099	-1.176	0.519	-1.664	0.766	5.206	-7.962
153387.604	NaN	2.924	6.685	-5.370	1510.623	1498.901	1500.366	-1.115	0.382	-1.832	0.766	5.053	-7.732
153388.580	NaN	2.913	6.685	-5.370	1509.890	1498.901	1499.634	-0.931	0.229	-1.771	0.919	5.282	-7.732
153389.557	NaN	2.902	6.663	-5.370	1510.623	1498.901	1501.099	-0.947	0.229	-1.527	0.842	5.282	-7.809
153397.369	NaN	2.913	6.674	-5.370	1510.623	1499.634	1500.366	-1.023	0.458	-1.389	0.919	5.359	-7.732
153398.346	NaN	2.891	6.674	-5.370	1509.158	1500.366	1500.366	-1.008	0.489	-1.298	0.842	5.282	-7.962
153399.323	NaN	2.891	6.674	-5.370	1509.158	1498.901	1500.366	-1.130	0.366	-1.466	0.766	5.206	-7.809
153400.299	NaN	2.913	6.685	-5.359	1509.158	1498.901	1501.832	-1.099	0.412	-1.603	0.842	5.359	-7.809
153401.276	NaN	2.902	6.674	-5.370	1509.890	1499.634	1500.366	-0.962	0.458	-1.573	0.689	5.282	-7.962
153402.252	NaN	2.902	6.663	-5.370	1509.890	1498.168	1499.634	-1.023	0.412	-1.466	0.766	5.282	-7.732
153403.229	NaN	2.913	6.674	-5.359	1510.623	1498.901	1501.832	-1.237	0.519	-1.527	0.842	5.282	-7.732
153404.205	3736841431.359	2.913	6.674	-5.359	1508.425	1498.901	1500.366	-1.374	0.443	-1.618	0.689	5.129	-7.809
153405.182	NaN	2.924	6.696	-5.337	1510.623	1498.901	1498.901	-1.053	0.397	-1.725	0.919	5.206	-7.732
153406.158	NaN	2.924	6.685	-5.348	1510.623	1499.634	1500.366	-0.794	0.336	-1.786	0.766	5.282	-7.732
153407.135	NaN	2.913	6.674	-5.370	1509.158	1498.901	1498.901	-0.824	0.351	-1.679	0.842	5.359	-7.809
153408.112	NaN	2.913	6.674	-5.370	1509.890	1499.634	1500.366	-0.901	0.382	-1.664	0.842	5.282	-7.885
153409.088	NaN	2.913	6.674	-5.370	1509.890	1499.634	1499.634	-1.008	0.290	-1.557	0.842	5.282	-7.809
153410.065	NaN	2.902	6.674	-5.370	1508.425	1498.901	1500.366	-0.947	0.122	-1.527	0.842	5.435	-7.885
153411.041	NaN	2.913	6.685	-5.370	1511.355	1498.901	1501.099	-0.870	0.366	-1.557	0.842	5.282	-7.732
153412.018	NaN	2.902	6.674	-5.380	1509.890	1498.901	1498.901	-0.855	0.595	-1.542	0.689	5.282	-7.885
153412.994	NaN	2.913	6.685	-5.359	1510.623	1499.634	1500.366	-0.916	0.611	-1.527	0.919	5.282	-7.732
153413.971	NaN	2.913	6.674	-5.370	1509.890	1498.901	1500.366	-1.038	0.595	-1.542	0.842	5.282	-7.809
153414.948	NaN	2.913	6.674	-5.370	1509.158	1497.436	1499.634	-1.038	0.580	-1.496	0.842	5.206	-7.809
153415.924	NaN	2.924	6.674	-5.370	1510.623	1498.901	1501.099	-0.824	0.489	-1.435	0.842	5.206	-7.732
153416.901	NaN	2.913	6.674	-5.370	1509.890	1499.634	1499.634	-0.809	0.397	-1.359	0.766	5.359	-7.809
153417.877	NaN	2.902	6.663	-5.380	1509.158	1498.901	1499.634	-0.931	0.427	-1.511	0.919	5.359	-7.809
153418.854	NaN	2.902	6.685	-5.380	1509.890	1499.634	1498.901	-0.885	0.702	-1.588	0.689	5.206	-7.809
153419.830	NaN	2.902	6.674	-5.370	1509.158	1498.901	1500.366	-0.748	0.626	-1.557	0.842	5.206	-7.732
153420.807	NaN	2.902	6.685	-5.380	1509.890	1498.901	1499.634	-0.885	0.443	-1.359	0.842	5.359	-7.732
153421.783	NaN	2.902	6.674	-5.391	1509.890	1498.901	1500.366	-0.855	0.305	-1.496	0.842	5.282	-7.885
153422.760	NaN	2.902	6.696	-5.380	1510.623	1498.168	1499.634	-0.763	0.260	-1.634	0.689	5.206	-7.732
153423.737	NaN	2.902	6.685	-5.380	1510.623	1499.634	1501.099	-0.977	0.275	-1.695	0.842	5.206	-7.656
153424.713	NaN	2.913	6.685	-5.380	1509.890	1499.634	1500.366	-1.206	0.260	-1.695	0.842	5.282	-7.809
153425.690	NaN	2.913	6.696	-5.380	1509.158	1500.366	1499.634	-1.099	0.168	-1.649	0.842	5.206	-7.885
153426.666	NaN	2.902	6.685	-5.370	1509.158	1498.901	1499.634	-1.145	0.351	-1.542	0.766	5.282	-7.732
153427.643	NaN	2.913	6.685	-5.359	1510.623	1500.366	1499.634	-1.191	0.489	-1.588	0.842	5.282	-7.809
153428.619	NaN	2.924	6.685	-5.370	1509.890	1498.901	1501.832	-0.885	0.489	-1.649	0.919	5.359	-7.809
153429.596	NaN	2.924	6.674	-5.370	1511.355	1498.901	1500.366	-0.641	0.382	-1.573	0.919	5.435	-7.732
153430.573	NaN	2.924	6.674	-5.370	1512.088	1499.634	1501.099	-0.947	0.290	-1.542	0.919	5.359	-7.732
153431.549	NaN	2.924	6.685	-5.359	1510.623	1500.366	1500.366	-1.160	0.290	-1.802	0.842	5.206	-7.732
153432.526	NaN	2.924	6.685	-5.359	1510.623	1500.366	1499.634	-1.023	0.504	-1.649	0.842	5.359	-7.732
153433.502	NaN	2.924	6.674	-5.359	1509.890	1498.901	1500.366	-1.191	0.534	-1.511	0.919	5.282	-7.809
153434.479	NaN	2.924	6.685	-5.380	1512.088	1498.168	1499.634	-1.130	0.458	-1.466	0.766	5.282	-7.809
153435.455	NaN	2.924	6.674	-5.370	1511.355	1499.634	1501.099	-0.931	0.305	-1.511	0.766	5.282	-7.809
153436.432	NaN	2.924	6.685	-5.370	1509.158	1499.634	1499.634	-0.901	0.244	-1.511	0.919	5.282	-7.809
153437.408	NaN	2.924	6.685	-5.348	1508.425	1499.634	1500.366	-0.931	0.443	-1.527	0.689	5.282	-7.962
153438.385	NaN	2.913	6.674	-5.348	1509.890	1499.634	1499.634	-1.176	0.641	-1.435	0.842	5.129	-7.732
153439.362	NaN	2.913	6.674	-5.359	1510.623	1499.634	1500.366	-1.176	0.473	-1.634	0.766	5.282	-7.885
153440.338	NaN	2.924	6.685	-5.359	1511.355	1499.634	1500.366	-1.145	0.244	-1.603	0.919	5.282	-7.809
153441.315	NaN	2.924	6.685	-5.370	1510.623	1498.901	1499.634	-1.282	0.244	-1.649	0.919	5.282	-7.809
153442.291	NaN	2.913	6.674	-5.370	1509.158	1498.168	1500.366	-1.053	0.382	-1.557	0.842	5.282	-7.809
153443.268	NaN	2.902	6.674	-5.391	1509.890	1499.634	1500.366	-0.870	0.550	-1.542	0.612	5.206	-7.809
153444.244	NaN	2.902	6.685	-5.391	1509.890	1498.901	1499.634	-0.931	0.580	-1.634	0.919	5.206	-7.656
153445.221	NaN	2.924	6.685	-5.380	1509.890	1499.634	1500.366	-1.069	0.565	-1.710	0.766	5.282	-7.809
153446.198	NaN	2.913	6.674	-5.380	1510.623	1500.366	1498.901	-1.008	0.305	-1.679	0.766	5.435	-7.885
153447.174	NaN	2.913	6.663	-5.391	1509.890	1498.168	1498.168	-1.038	0.305	-1.725	0.842	5.206	-7.962
153448.151	NaN	2.924	6.674	-5.391	1511.355	1498.901	1500.366	-1.099	0.489	-1.786	0.842	5.282	-7.732
153449.127	NaN	2.935	6.685	-5.380	1509.890	1500.366	1500.366	-1.160	0.504	-1.634	0.842	5.282	-7.809
153450.104	NaN	2.924	6.685	-5.380	1511.355	1500.366	1500.366	-1.252	0.336	-1.695	0.919	5.206	-7.656
153451.080	NaN	2.902	6.674	-5.391	1510.623	1499.634	1500.366	-1.359	0.382	-1.832	0.766	5.282	-7.885
153452.057	NaN	2.902	6.674	-5.391	1509.158	1498.901	1500.366	-1.115	0.504	-1.664	0.919	5.359	-7.656
153453.033	NaN	2.913	6.707	-5.380	1511.355	1499.634	1501.099	-1.252	0.397	-1.527	0.766	5.282	-7.732
153454.010	NaN	2.902	6.685	-5.391	1509.158	1498.901	1500.366	-1.344	0.382	-1.298	0.689	5.129	-7.885
153454.987	NaN	2.924	6.696	-5.380	1510.623	1498.901	1500.366	-1.435	0.443	-1.328	0.842	5.282	-7.656
153455.963	NaN	2.924	6.696	-5.380	1510.623	1498.901	1500.366	-1.557	0.611	-1.542	0.766	5.282	-7.579
153456.940	NaN	2.913	6.685	-5.380	1509.158	1498.901	1500.366	-1.359	0.427	-1.618	0.919	5.282	-7.809
153457.916	NaN	2.924	6.685	-5.380	1509.890	1499.634	1500.366	-1.084	0.244	-1.511	0.919	5.359	-7.732
153458.893	NaN	2.913	6.674	-5.370	1509.890	1500.366	1499.634	-0.855	0.412	-1.573	0.842	5.282	-7.885
153459.869	NaN	2.913	6.674	-5.370	1510.623	1499.634	1500.366	-1.023	0.473	-1.496	0.689	5.282	-7.809
153460.846	NaN	2.891	6.663	-5.370	1510.623	1498.901	1501.099	-1.099	0.504	-1.588	0.766	5.282	-7.732
153461.823	NaN	2.902	6.663	-5.370	1510.623	1499.634	1501.099	-0.962	0.626	-1.466	0.766	5.206	-7.809
153462.799	NaN	2.902	6.663	-5.370	1511.355	1499.634	1500.366	-1.053	0.519	-1.313	0.842	5.282	-7.732
153463.776	NaN	2.913	6.674	-5.370	1510.623	1499.634	1500.366	-1.176	0.534	-1.374	0.689	5.206	-7.885
153464.752	NaN	2.924	6.674	-5.380	1509.890	1499.634	1501.832	-1.115	0.473	-1.618	0.766	5.206	-7.656
153465.729	NaN	2.913	6.663	-5.402	1509.890	1499.634	1498.168	-1.160	0.458	-1.695	0.842	5.282	-7.885
153466.705	NaN	2.913	6.674	-5.380	1511.355	1499.634	1500.366	-1.267	0.702	-1.618	0.766	5.359	-7.809
153467.682	NaN	2.924	6.674	-5.380	1509.890	1499.634	1501.099	-1.130	0.626	-1.679	0.842	5.282	-7.656
153468.658	NaN	2.924	6.663	-5.380	1510.623	1499.634	1500.366	-0.962	0.550	-1.588	0.842	5.282	-7.656
153469.635	NaN	2.913	6.663	-5.380	1509.158	1500.366	1499.634	-0.916	0.580	-1.435	0.919	5.206	-7.809
153470.612	NaN	2.902	6.652	-5.380	1511.355	1499.634	1500.366	-0.947	0.580	-1.389	0.842	5.206	-7.809
153471.588	NaN	2.924	6.674	-5.359	1510.623	1500.366	1501.099	-0.962	0.550	-1.695	0.766	5.282	-7.809
153472.565	NaN	2.924	6.674	-5.348	1510.623	1499.634	1501.099	-1.099	0.458	-1.771	0.842	5.282	-7.809
153473.541	NaN	2.924	6.685	-5.359	1510.623	1498.901	1500.366	-1.206	0.412	-1.725	0.766	5.282	-7.809
153474.518	NaN	2.913	6.674	-5.380	1510.623	1498.901	1500.366	-1.038	0.534	-1.588	0.766	5.282	-7.656
153475.494	NaN	2.924	6.674	-5.370	1511.355	1500.366	1500.366	-1.099	0.580	-1.649	0.842	5.282	-7.809
153476.471	NaN	2.924	6.674	-5.380	1510.623	1499.634	1500.366	-1.053	0.611	-1.634	0.919	5.282	-7.885
153477.448	NaN	2.924	6.674	-5.391	1509.890	1499.634	1501.099	-1.221	0.611	-1.664	0.842	5.282	-7.885
153478.424	NaN	2.924	6.674	-5.391	1510.623	1499.634	1499.634	-1.313	0.534	-1.802	0.842	5.206	-7.732
153479.401	NaN	2.913	6.674	-5.402	1510.623	1500.366	1499.634	-1.420	0.565	-1.771	0.919	5.206	-7.656
153480.377	NaN	2.924	6.663	-5.391	1510.623	1499.634	1501.099	-1.420	0.412	-1.649	0.919	5.359	-7.732
153481.354	NaN	2.924	6.674	-5.391	1510.623	1499.634	1501.832	-1.160	0.427	-1.527	0.842	5.359	-7.732
153482.330	NaN	2.924	6.663	-5.391	1511.355	1499.634	1500.366	-1.160	0.580	-1.511	0.842	5.282	-7.656
153483.307	NaN	2.924	6.663	-5.391	1510.623	1499.634	1500.366	-1.206	0.489	-1.649	0.766	5.282	-7.656
153484.283	NaN	2.913	6.663	-5.391	1510.623	1499.634	1500.366	-1.130	0.458	-1.786	0.766	5.282	-7.732
153485.260	NaN	2.902	6.674	-5.391	1511.355	1499.634	1500.366	-1.099	0.458	-1.817	0.919	5.282	-7.732
153486.237	NaN	2.902	6.674	-5.380	1509.890	1499.634	1500.366	-1.252	0.534	-1.511	0.766	5.282	-7.809
153487.213	NaN	2.902	6.674	-5.380	1510.623	1499.634	1498.901	-1.389	0.427	-1.359	0.995	5.282	-7.885
153488.190	NaN	2.891	6.663	-5.391	1510.623	1498.901	1500.366	-1.206	0.229	-1.634	0.842	5.129	-7.809
153489.166	NaN	2.913	6.674	-5.380	1511.355	1499.634	1501.832	-1.221	0.153	-1.832	0.842	5.359	-7.656
153490.143	NaN	2.924	6.663	-5.380	1510.623	1498.901	1500.366	-0.992	0.260	-1.664	0.842	5.206	-7.809
153491.119	NaN	2.935	6.674	-5.380	1509.890	1499.634	1500.366	-1.145	0.534	-1.420	0.919	5.282	-7.809
153492.096	NaN	2.913	6.663	-5.380	1509.890	1498.901	1498.168	-1.344	0.580	-1.389	0.842	5.282	-7.885
153493.073	NaN	2.913	6.685	-5.391	1510.623	1500.366	1499.634	-1.145	0.595	-1.389	0.842	5.206	-7.732
153494.049	NaN	2.924	6.685	-5.380	1511.355	1498.901	1500.366	-0.916	0.565	-1.252	0.842	5.282	-7.732
153495.026	NaN	2.924	6.685	-5.359	1510.623	1499.634	1500.366	-1.176	0.519	-1.313	0.766	5.282	-7.656
153496.002	NaN	2.913	6.685	-5.348	1509.158	1499.634	1500.366	-1.176	0.489	-1.740	0.766	5.359	-7.809
153496.979	NaN	2.902	6.674	-5.359	1509.890	1499.634	1500.366	-1.252	0.611	-1.786	0.842	5.206	-7.656
153497.955	NaN	2.913	6.685	-5.348	1510.623	1499.634	1500.366	-1.191	0.427	-1.679	0.919	5.282	-7.656
153498.932	NaN	2.913	6.685	-5.359	1512.088	1499.634	1499.634	-0.947	0.427	-1.588	0.842	5.282	-7.809
153499.908	NaN	2.935	6.663	-5.359	1510.623	1499.634	1501.099	-1.008	0.473	-1.679	0.842	5.206	-7.732
153500.885	NaN	2.924	6.674	-5.370	1509.890	1499.634	1501.099	-1.038	0.519	-1.771	0.842	5.206	-7.809
153501.862	NaN	2.924	6.663	-5.370	1509.890	1498.901	1498.901	-1.115	0.519	-1.740	0.919	5.359	-7.885
153502.838	NaN	2.924	6.674	-5.359	1510.623	1500.366	1501.099	-1.206	0.412	-1.664	0.842	5.359	-7.732
153503.815	NaN	2.913	6.674	-5.370	1509.890	1500.366	1500.366	-1.069	0.550	-1.557	0.689	5.282	-7.732
153504.791	NaN	2.902	6.685	-5.380	1509.890	1499.634	1500.366	-0.992	0.611	-1.664	0.842	5.206	-7.885
153505.768	NaN	2.913	6.674	-5.370	1509.158	1498.901	1500.366	-1.038	0.595	-1.786	0.766	5.129	-7.809
153506.744	NaN	2.913	6.674	-5.370	1510.623	1498.168	1499.634	-1.023	0.504	-1.695	0.919	5.282	-7.809
153507.721	NaN	2.924	6.674	-5.359	1511.355	1499.634	1500.366	-0.763	0.656	-1.557	0.842	5.359	-7.656
153508.698	NaN	2.924	6.674	-5.370	1510.623	1499.634	1499.634	-0.779	0.672	-1.740	0.842	5.282	-7.809
153509.674	NaN	2.924	6.663	-5.380	1509.158	1498.901	1499.634	-1.176	0.779	-1.603	0.689	5.359	-7.809
153510.651	NaN	2.924	6.674	-5.380	1509.890	1499.634	1499.634	-1.328	0.733	-1.557	0.842	5.206	-7.732
153511.627	NaN	2.913	6.674	-5.391	1509.158	1499.634	1500.366	-1.389	0.641	-1.481	0.766	5.282	-7.809
153512.604	NaN	2.924	6.696	-5.380	1509.158	1500.366	1500.366	-1.053	0.626	-1.481	0.842	5.282	-7.809
153513.580	NaN	2.924	6.685	-5.380	1509.890	1499.634	1500.366	-0.962	0.595	-1.542	0.842	5.282	-7.885
153514.557	NaN	2.913	6.674	-5.391	1509.890	1498.901	1500.366	-0.962	0.626	-1.588	0.842	5.359	-8.038
153515.533	NaN	2.902	6.663	-5.380	1509.890	1500.366	1501.099	-1.206	0.580	-1.679	0.842	5.206	-7.809
153516.510	NaN	2.902	6.663	-5.391	1509.890	1498.901	1498.901	-1.176	0.687	-1.756	0.766	5.206	-7.656
153517.487	NaN	2.913	6.663	-5.370	1509.890	1498.901	1500.366	-1.206	0.702	-1.588	0.689	5.206	-7.656
153518.463	NaN	2.924	6.674	-5.380	1509.890	1498.901	1501.099	-1.145	0.687	-1.542	0.842	5.282	-7.732
153519.440	NaN	2.924	6.674	-5.391	1508.425	1498.901	1500.366	-1.099	0.687	-1.588	0.766	5.359	-7.732
153520.416	NaN	2.946	6.685	-5.391	1512.088	1499.634	1500.366	-0.992	0.580	-1.405	0.842	5.206	-7.732
153521.393	NaN	2.935	6.663	-5.402	1510.623	1500.366	1498.168	-1.038	0.611	-1.374	0.842	5.206	-7.656
153522.369	NaN	2.935	6.674	-5.380	1509.158	1498.901	1499.634	-1.130	0.595	-1.557	0.842	5.129	-7.732
153523.346	NaN	2.924	6.652	-5.391	1509.158	1499.634	1500.366	-1.237	0.580	-1.511	0.842	5.282	-7.732
153524.323	NaN	2.935	6.652	-5.380	1509.158	1498.168	1499.634	-1.282	0.580	-1.511	0.689	5.282	-7.962
153525.299	NaN	2.946	6.652	-5.370	1510.623	1498.901	1500.366	-1.206	0.687	-1.710	0.689	5.359	-7.732
153526.276	NaN	2.935	6.663	-5.370	1510.623	1498.901	1499.634	-0.931	0.672	-1.557	0.842	5.282	-7.656
153527.252	NaN	2.935	6.663	-5.370	1510.623	1498.168	1500.366	-0.977	0.641	-1.466	0.766	5.435	-7.809
153528.229	NaN	2.924	6.674	-5.359	1510.623	1498.168	1499.634	-1.191	0.595	-1.527	0.842	5.129	-7.809
153529.205	NaN	2.924	6.685	-5.370	1509.890	1498.901	1498.901	-1.359	0.580	-1.756	0.919	5.282	-7.885
153530.182	NaN	2.935	6.685	-5.359	1509.890	1498.901	1499.634	-1.328	0.748	-1.908	0.842	5.206	-7.732
153531.158	NaN	2.924	6.674	-5.370	1510.623	1498.901	1499.634	-1.023	0.809	-1.817	0.766	5.206	-7.732
153532.135	NaN	2.924	6.674	-5.380	1509.890	1498.901	1500.366	-1.115	0.626	-1.634	0.689	5.206	-7.809
153533.112	NaN	2.924	6.674	-5.391	1509.890	1500.366	1500.366	-1.359	0.672	-1.481	0.689	5.206	-7.809
153534.088	NaN	2.913	6.674	-5.380	1509.890	1499.634	1500.366	-1.191	0.702	-1.420	0.766	5.206	-7.809
153535.065	NaN	2.924	6.685	-5.370	1509.890	1498.901	1500.366	-1.008	0.702	-1.618	0.842	5.359	-7.732
153536.041	NaN	2.924	6.685	-5.380	1510.623	1498.168	1499.634	-1.160	0.672	-1.908	0.766	5.282	-7.809
153537.018	NaN	2.913	6.663	-5.380	1509.890	1498.901	1499.634	-1.298	0.489	-1.740	0.842	5.282	-7.809
153537.994	NaN	2.924	6.674	-5.380	1509.890	1499.634	1501.832	-1.252	0.473	-1.740	0.919	5.282	-7.809
153538.971	NaN	2.902	6.674	-5.391	1509.890	1498.901	1500.366	-1.176	0.366	-1.679	0.842	5.359	-7.809
153539.948	NaN	2.913	6.685	-5.380	1509.890	1498.901	1499.634	-1.252	0.489	-1.649	0.842	5.206	-7.809
153540.924	NaN	2.913	6.685	-5.370	1510.623	1499.634	1500.366	-1.313	0.611	-1.527	0.766	5.282	-7.885
153541.901	3736841431.515	2.902	6.685	-5.380	1509.890	1498.901	1500.366	-1.267	0.473	-1.588	0.766	5.359	-7.809
153542.877	NaN	2.913	6.696	-5.370	1511.355	1500.366	1498.901	-1.374	0.534	-1.511	0.766	5.282	-7.885
153543.854	NaN	2.913	6.685	-5.380	1509.890	1499.634	1499.634	-1.374	0.595	-1.511	0.919	5.282	-7.885
153544.830	NaN	2.913	6.685	-5.370	1509.890	1498.901	1499.634	-0.916	0.580	-1.588	0.842	5.359	-7.656
153545.807	NaN	2.913	6.685	-5.370	1509.158	1499.634	1501.099	-0.824	0.641	-1.511	0.766	5.282	-7.885
153546.783	NaN	2.913	6.685	-5.380	1509.890	1498.168	1501.099	-0.947	0.595	-1.496	0.842	5.282	-7.732
153547.760	NaN	2.924	6.685	-5.370	1507.692	1500.366	1500.366	-1.130	0.366	-1.603	0.842	5.129	-7.809
153548.737	NaN	2.913	6.674	-5.391	1510.623	1498.901	1500.366	-0.992	0.427	-1.420	0.919	5.282	-7.732
153549.713	NaN	2.924	6.685	-5.380	1509.890	1499.634	1501.099	-1.069	0.656	-1.435	0.919	5.206	-7.732
153550.690	NaN	2.913	6.663	-5.380	1510.623	1498.901	1499.634	-1.206	0.763	-1.573	0.842	5.206	-7.732
153551.666	NaN	2.924	6.674	-5.370	1510.623	1499.634	1501.099	-1.176	0.733	-1.847	0.766	5.282	-7.809
153552.643	NaN	2.902	6.674	-5.370	1509.890	1498.901	1500.366	-1.176	0.641	-1.878	0.919	5.282	-7.809
153553.619	NaN	2.902	6.663	-5.370	1509.890	1499.634	1500.366	-1.023	0.550	-1.618	0.919	5.282	-7.732
153554.596	NaN	2.902	6.663	-5.370	1509.890	1500.366	1500.366	-0.794	0.504	-1.511	0.919	5.282	-7.885
153555.573	NaN	2.902	6.674	-5.380	1511.355	1500.366	1500.366	-1.023	0.519	-1.435	0.842	5.282	-7.962
153556.549	NaN	2.891	6.674	-5.370	1511.355	1499.634	1500.366	-1.038	0.534	-1.527	0.766	5.359	-7.962
153557.526	NaN	2.891	6.674	-5.348	1509.890	1499.634	1499.634	-1.099	0.718	-1.603	0.842	5.206	-7.809
153558.502	NaN	2.902	6.674	-5.337	1509.890	1499.634	1500.366	-1.038	0.595	-1.740	0.842	5.282	-7.732
153559.479	NaN	2.913	6.685	-5.348	1509.890	1498.901	1499.634	-1.160	0.427	-1.664	0.842	5.129	-7.962
153560.455	NaN	2.913	6.674	-5.348	1510.623	1500.366	1500.366	-1.206	0.489	-1.649	0.842	5.206	-7.885
153561.432	NaN	2.913	6.685	-5.359	1509.890	1500.366	1499.634	-1.252	0.427	-1.695	0.766	5.129	-7.732
153562.408	NaN	2.924	6.674	-5.370	1510.623	1498.901	1500.366	-1.038	0.473	-1.664	0.919	5.359	-7.732
153563.385	NaN	2.913	6.674	-5.380	1509.158	1498.168	1500.366	-1.176	0.626	-1.588	0.842	5.282	-7.732
153564.362	NaN	2.913	6.674	-5.380	1510.623	1499.634	1500.366	-1.252	0.656	-1.634	0.842	5.359	-7.809
153565.338	NaN	2.913	6.685	-5.370	1511.355	1500.366	1500.366	-0.992	0.382	-1.802	0.766	5.282	-7.732
153566.315	NaN	2.902	6.674	-5.380	1509.890	1499.634	1500.366	-0.885	0.290	-1.847	0.766	5.282	-7.809
153567.291	NaN	2.902	6.674	-5.380	1509.890	1499.634	1501.099	-1.053	0.305	-1.664	0.842	5.206	-7.809
153568.268	NaN	2.891	6.663	-5.391	1510.623	1498.168	1500.366	-1.160	0.565	-1.542	0.766	5.359	-7.809
153569.244	NaN	2.902	6.685	-5.380	1511.355	1500.366	1499.634	-1.206	0.885	-1.557	0.766	5.435	-7.809
153570.221	NaN	2.902	6.685	-5.370	1511.355	1498.901	1500.366	-0.977	0.840	-1.618	0.919	5.282	-7.656
153571.198	NaN	2.902	6.696	-5.370	1510.623	1498.901	1501.099	-1.099	0.519	-1.557	0.842	5.282	-7.809
153572.174	NaN	2.913	6.696	-5.370	1509.890	1498.901	1500.366	-1.191	0.565	-1.542	0.842	5.206	-7.732
153573.151	NaN	2.902	6.696	-5.380	1509.158	1499.634	1499.634	-1.191	0.595	-1.466	0.919	5.282	-7.809
153574.127	NaN	2.913	6.685	-5.370	1510.623	1500.366	1501.099	-1.191	0.641	-1.573	0.919	5.282	-7.809
153575.104	NaN	2.913	6.696	-5.380	1509.890	1498.901	1501.099	-1.130	0.473	-1.679	0.766	5.359	-7.885
153576.080	NaN	2.913	6.685	-5.391	1510.623	1498.901	1501.099	-1.267	0.412	-1.695	0.842	5.359	-7.962
153577.057	NaN	2.924	6.685	-5.391	1510.623	1498.901	1499.634	-1.130	0.473	-1.618	0.842	5.359	-7.732
153578.033	NaN	2.924	6.674	-5.402	1511.355	1499.634	1501.832	-1.160	0.656	-1.466	0.842	5.359	-7.885
153579.010	NaN	2.924	6.685	-5.370	1510.623	1500.366	1499.634	-1.267	0.794	-1.740	0.842	5.282	-7.885
153579.987	NaN	2.924	6.674	-5.370	1509.890	1498.901	1500.366	-1.130	0.656	-1.679	0.766	5.129	-7.656
153580.963	NaN	2.913	6.674	-5.380	1509.890	1498.901	1499.634	-1.008	0.427	-1.588	0.919	5.282	-7.656
153581.940	NaN	2.913	6.674	-5.380	1511.355	1499.634	1500.366	-1.115	0.489	-1.740	0.842	5.359	-7.809
153582.916	NaN	2.902	6.674	-5.370	1510.623	1500.366	1499.634	-1.313	0.550	-1.908	0.919	5.206	-7.579
153583.893	NaN	2.891	6.685	-5.380	1509.890	1498.901	1500.366	-1.206	0.550	-1.832	0.995	5.282	-7.732
153584.869	NaN	2.880	6.674	-5.391	1509.158	1498.901	1500.366	-1.084	0.519	-1.695	0.842	5.282	-7.732
153585.846	NaN	2.891	6.685	-5.380	1510.623	1498.901	1501.099	-1.053	0.550	-1.847	0.995	5.206	-7.732
153586.823	NaN	2.891	6.685	-5.370	1511.355	1499.634	1501.832	-1.099	0.656	-1.664	0.842	5.282	-7.885
153587.799	NaN	2.902	6.685	-5.370	1509.890	1499.634	1500.366	-1.176	0.763	-1.466	0.766	5.206	-7.809
153588.776	NaN	2.902	6.685	-5.348	1510.623	1500.366	1500.366	-1.053	0.687	-1.557	0.919	5.206	-7.809
153589.752	NaN	2.902	6.685	-5.359	1510.623	1499.634	1501.832	-1.023	0.611	-1.618	0.995	5.129	-7.809
153590.729	NaN	2.902	6.674	-5.370	1509.890	1499.634	1500.366	-1.160	0.565	-1.634	0.842	5.282	-7.732
153591.705	NaN	2.913	6.674	-5.380	1508.425	1499.634	1500.366	-1.206	0.580	-1.511	0.766	5.282	-7.732
153592.682	NaN	2.913	6.674	-5.370	1510.623	1498.901	1500.366	-1.237	0.763	-1.542	0.842	5.282	-7.732
153593.658	NaN	2.913	6.674	-5.380	1510.623	1498.901	1500.366	-1.237	0.672	-1.710	0.842	5.359	-7.656
153594.635	NaN	2.902	6.674	-5.370	1509.890	1498.168	1500.366	-1.038	0.672	-1.725	0.766	5.282	-7.732
153595.612	NaN	2.913	6.674	-5.370	1510.623	1499.634	1500.366	-1.282	0.870	-1.740	0.919	5.282	-7.809
153596.588	NaN	2.902	6.674	-5.370	1510.623	1499.634	1501.099	-1.344	0.824	-1.603	0.842	5.282	-7.809
153597.565	NaN	2.902	6.674	-5.348	1510.623	1498.168	1499.634	-1.282	0.840	-1.542	0.766	5.282	-7.809
153598.541	NaN	2.902	6.674	-5.370	1510.623	1498.901	1500.366	-1.405	0.763	-1.878	0.766	5.359	-7.656
153599.518	NaN	2.902	6.674	-5.391	1509.158	1498.901	1498.901	-1.298	0.641	-1.740	0.842	5.206	-7.809
153600.494	NaN	2.913	6.674	-5.391	1511.355	1499.634	1501.832	-1.221	0.626	-1.618	0.842	5.282	-7.809
153601.471	NaN	2.913	6.685	-5.391	1510.623	1498.901	1500.366	-1.344	0.687	-1.542	0.842	5.282	-7.809
153602.448	NaN	2.913	6.685	-5.380	1510.623	1498.901	1500.366	-1.053	0.763	-1.542	0.766	5.129	-7.962
153603.424	NaN	2.902	6.674	-5.370	1510.623	1499.634	1501.099	-0.870	0.595	-1.649	0.842	5.282	-7.732
153604.401	NaN	2.902	6.685	-5.370	1511.355	1498.901	1501.099	-0.794	0.641	-1.618	0.842	5.206	-7.732
153605.377	NaN	2.913	6.674	-5.359	1512.088	1499.634	1501.099	-0.626	0.779	-1.542	0.842	5.206	-7.885
153606.354	NaN	2.913	6.674	-5.348	1511.355	1499.634	1500.366	-0.718	0.794	-1.634	0.842	5.359	-7.962
153607.330	NaN	2.902	6.685	-5.359	1509.158	1498.901	1500.366	-1.008	0.748	-1.588	0.919	5.206	-7.656
153608.307	NaN	2.902	6.685	-5.370	1509.158	1499.634	1500.366	-0.870	0.702	-1.588	0.766	5.206	-7.656
153609.283	NaN	2.913	6.685	-5.380	1511.355	1499.634	1500.366	-0.962	0.809	-1.481	0.766	5.359	-7.809
153610.260	NaN	2.913	6.685	-5.370	1510.623	1499.634	1500.366	-0.992	0.748	-1.634	0.842	5.206	-7.809
153611.237	NaN	2.913	6.674	-5.370	1509.890	1499.634	1499.634	-0.962	0.580	-1.817	0.842	5.206	-7.809
153612.213	NaN	2.902	6.663	-5.380	1509.890	1499.634	1500.366	-1.053	0.534	-1.573	0.689	5.206	-7.885
153613.190	NaN	2.902	6.674	-5.370	1511.355	1498.901	1501.099	-0.947	0.672	-1.542	0.842	5.282	-7.732
153614.166	NaN	2.913	6.674	-5.370	1509.890	1499.634	1500.366	-0.977	0.779	-1.634	0.842	5.282	-7.732
153615.143	NaN	2.924	6.674	-5.359	1509.890	1498.901	1499.634	-1.206	0.687	-1.847	0.919	5.282	-7.885
153616.119	NaN	2.935	6.674	-5.348	1510.623	1499.634	1500.366	-1.237	0.504	-1.817	0.919	5.282	-7.732
153617.096	NaN	2.935	6.685	-5.348	1509.890	1499.634	1500.366	-1.130	0.504	-1.634	0.766	5.206	-7.732
153618.073	NaN	2.935	6.674	-5.348	1510.623	1499.634	1500.366	-1.252	0.580	-1.603	0.842	5.206	-7.656
153619.049	NaN	2.935	6.685	-5.337	1509.890	1500.366	1498.901	-1.298	0.519	-1.557	0.919	5.282	-7.809
153620.026	NaN	2.924	6.663	-5.359	1509.890	1498.901	1501.099	-1.221	0.504	-1.756	0.689	5.359	-7.885
153621.002	NaN	2.913	6.674	-5.359	1510.623	1499.634	1500.366	-1.221	0.519	-1.771	0.766	5.206	-7.809
153621.979	NaN	2.913	6.674	-5.370	1510.623	1498.901	1500.366	-1.282	0.489	-1.740	0.842	5.206	-7.809
153622.955	NaN	2.924	6.685	-5.359	1511.355	1500.366	1499.634	-1.282	0.580	-1.817	0.766	5.206	-7.809
153623.932	NaN	2.913	6.674	-5.359	1509.890	1500.366	1498.901	-1.130	0.718	-1.634	0.842	5.129	-7.656
153624.908	NaN	2.924	6.674	-5.359	1510.623	1498.901	1501.099	-0.763	0.824	-1.588	0.919	5.206	-7.732
153625.885	NaN	2.924	6.674	-5.370	1511.355	1498.901	1501.099	-0.870	0.794	-1.634	0.766	5.282	-7.732
153626.862	NaN	2.913	6.674	-5.370	1511.355	1498.901	1500.366	-0.931	0.748	-1.710	0.919	5.435	-7.732
153627.838	NaN	2.913	6.674	-5.348	1510.623	1499.634	1501.099	-1.282	0.595	-1.847	0.842	5.206	-7.656
153628.815	NaN	2.913	6.685	-5.348	1510.623	1498.901	1501.099	-1.481	0.687	-1.603	0.842	5.206	-7.809
153629.791	NaN	2.902	6.674	-5.370	1509.890	1498.901	1501.832	-1.221	0.824	-1.603	0.766	5.282	-7.656
153630.768	NaN	2.902	6.674	-5.380	1510.623	1497.436	1500.366	-1.069	0.702	-1.664	0.842	5.206	-7.732
153631.744	NaN	2.913	6.685	-5.370	1510.623	1500.366	1498.901	-1.023	0.641	-1.420	0.766	5.206	-7.732
153632.721	NaN	2.924	6.685	-5.380	1510.623	1499.634	1500.366	-1.160	0.626	-1.359	0.842	5.282	-7.809
153633.698	NaN	2.913	6.674	-5.380	1509.890	1499.634	1500.366	-1.099	0.641	-1.542	0.766	5.206	-7.732
153634.674	NaN	2.924	6.674	-5.370	1509.890	1499.634	1500.366	-1.115	0.779	-1.863	1.072	5.206	-7.809
153635.651	NaN	2.924	6.685	-5.380	1510.623	1499.634	1501.832	-1.176	0.672	-1.878	0.842	5.206	-7.656
153636.627	NaN	2.924	6.685	-5.380	1510.623	1499.634	1501.099	-1.099	0.656	-1.847	0.919	5.206	-7.732
153637.604	NaN	2.913	6.663	-5.402	1510.623	1499.634	1501.099	-0.962	0.733	-1.786	0.766	5.359	-7.809
153638.580	NaN	2.902	6.674	-5.402	1509.890	1498.168	1501.099	-0.962	0.885	-1.618	0.842	5.129	-7.732
153639.557	NaN	2.913	6.674	-5.402	1509.890	1498.901	1500.366	-1.298	0.947	-1.573	0.689	5.206	-7.885
153640.533	NaN	2.902	6.663	-5.402	1509.158	1498.901	1499.634	-1.252	0.641	-1.573	0.842	5.282	-7.732
153641.510	NaN	2.913	6.674	-5.380	1510.623	1500.366	1501.099	-1.069	0.626	-1.695	0.842	5.359	-7.809
153642.487	NaN	2.913	6.674	-5.391	1511.355	1500.366	1498.901	-1.023	0.595	-1.756	0.766	5.282	-7.732
153643.463	NaN	2.902	6.663	-5.391	1510.623	1499.634	1500.366	-0.901	0.489	-1.740	0.919	5.359	-7.809
153644.440	NaN	2.902	6.663	-5.402	1509.890	1499.634	1500.366	-0.733	0.550	-1.679	0.766	5.359	-7.885
153645.416	NaN	2.913	6.663	-5.391	1510.623	1499.634	1499.634	-0.916	0.687	-1.695	0.842	5.359	-7.732
153646.393	NaN	2.902	6.674	-5.402	1510.623	1498.901	1501.099	-1.023	0.748	-1.496	0.766	5.129	-8.038
153647.369	NaN	2.913	6.674	-5.391	1509.158	1498.168	1499.634	-1.084	0.748	-1.511	0.919	5.282	-7.809
153648.346	NaN	2.913	6.674	-5.380	1510.623	1498.901	1501.832	-1.023	0.656	-1.664	0.842	5.206	-7.732
153649.323	NaN	2.924	6.685	-5.370	1510.623	1499.634	1501.832	-1.053	0.641	-1.771	0.766	5.282	-7.732
153650.299	3736841431.629	2.924	6.685	-5.359	1510.623	1498.901	1501.099	-1.115	0.626	-1.695	0.842	5.282	-7.732
153651.276	NaN	2.924	6.685	-5.370	1509.890	1499.634	1501.832	-1.084	0.855	-1.679	0.919	5.359	-7.732
153652.252	NaN	2.913	6.685	-5.359	1510.623	1499.634	1500.366	-1.053	0.733	-1.511	0.842	5.282	-7.656
153653.229	NaN	2.913	6.674	-5.370	1510.623	1499.634	1499.634	-0.931	0.656	-1.542	0.842	5.282	-7.732
153654.205	NaN	2.924	6.674	-5.370	1511.355	1499.634	1501.832	-0.809	0.702	-1.588	0.919	5.282	-7.732
153655.182	NaN	2.924	6.674	-5.370	1509.890	1500.366	1500.366	-0.962	0.611	-1.756	0.919	5.206	-7.809
153656.158	NaN	2.924	6.685	-5.370	1510.623	1499.634	1499.634	-1.206	0.641	-1.832	0.842	5.282	-7.809
153657.135	NaN	2.924	6.674	-5.380	1510.623	1498.901	1500.366	-1.466	0.824	-1.863	0.766	5.206	-7.732
153658.112	NaN	2.913	6.685	-5.380	1511.355	1499.634	1501.099	-1.344	0.748	-1.863	0.842	5.206	-7.885
153659.088	NaN	2.924	6.685	-5.370	1510.623	1498.901	1501.099	-1.237	0.565	-1.924	0.689	5.359	-7.732
153660.065	NaN	2.935	6.685	-5.380	1510.623	1499.634	1501.099	-1.298	0.550	-1.985	0.842	5.282	-7.732
153661.041	NaN	2.935	6.685	-5.380	1509.890	1499.634	1501.099	-1.237	0.733	-1.817	0.842	5.206	-7.885
153662.018	NaN	2.924	6.674	-5.380	1511.355	1499.634	1500.366	-1.252	0.962	-1.664	0.842	5.206	-7.656
153662.994	NaN	2.935	6.685	-5.370	1510.623	1499.634	1501.099	-1.313	0.855	-1.679	0.842	5.359	-7.732
153663.971	NaN	2.935	6.685	-5.380	1510.623	1498.168	1499.634	-1.267	0.840	-1.786	0.919	5.206	-7.809
153664.948	NaN	2.946	6.685	-5.380	1509.158	1498.901	1500.366	-1.359	0.855	-2.076	0.842	5.282	-7.809
153665.924	NaN	2.935	6.685	-5.370	1510.623	1498.901	1500.366	-1.252	0.840	-2.122	0.919	5.282	-7.885
153666.901	NaN	2.924	6.696	-5.370	1510.623	1499.634	1500.366	-1.145	0.611	-1.893	0.842	5.359	-7.809
153667.877	NaN	2.924	6.696	-5.370	1510.623	1499.634	1501.832	-1.053	0.351	-1.740	0.842	5.282	-7.809
153668.854	NaN	2.924	6.685	-5.380	1510.623	1499.634	1500.366	-1.267	0.321	-1.618	0.766	5.129	-7.732
153669.830	NaN	2.924	6.685	-5.380	1512.088	1498.901	1500.366	-1.206	0.641	-1.664	0.766	5.359	-7.809
153670.807	NaN	2.924	6.674	-5.380	1509.890	1498.901	1499.634	-1.099	0.733	-1.664	0.766	5.206	-7.809
153671.783	NaN	2.935	6.663	-5.391	1510.623	1499.634	1501.099	-1.115	0.855	-1.863	0.919	5.359	-7.656
153672.760	NaN	2.924	6.663	-5.391	1509.890	1498.901	1499.634	-1.206	0.702	-1.908	0.766	5.206	-7.885
153673.737	NaN	2.935	6.674	-5.359	1510.623	1498.901	1500.366	-0.916	0.718	-1.542	0.919	5.359	-7.732
153674.713	NaN	2.924	6.674	-5.359	1509.890	1499.634	1500.366	-0.977	0.611	-1.527	0.766	5.359	-7.885
153675.690	NaN	2.913	6.674	-5.370	1509.890	1498.901	1499.634	-1.145	0.382	-1.740	0.766	5.282	-7.732
153676.666	NaN	2.913	6.674	-5.370	1508.425	1498.901	1500.366	-1.115	0.336	-1.786	0.842	5.282	-8.038
153677.643	NaN	2.913	6.674	-5.370	1509.890	1499.634	1500.366	-0.931	0.611	-1.832	0.766	5.206	-7.732
153678.619	NaN	2.913	6.685	-5.359	1509.890	1499.634	1501.099	-0.870	0.763	-1.786	0.842	5.359	-7.809
153679.596	NaN	2.902	6.674	-5.380	1510.623	1498.901	1499.634	-0.962	0.779	-1.557	0.842	5.282	-7.656
153680.573	NaN	2.902	6.685	-5.391	1511.355	1500.366	1500.366	-1.115	0.672	-1.481	0.919	5.206	-7.809
153681.549	NaN	2.902	6.685	-5.380	1511.355	1499.634	1499.634	-1.176	0.779	-1.527	0.766	5.359	-7.732
153682.526	NaN	2.902	6.685	-5.380	1510.623	1498.901	1499.634	-1.252	0.840	-1.786	0.842	5.282	-7.656
153683.502	NaN	2.902	6.674	-5.380	1509.890	1499.634	1499.634	-1.084	0.840	-1.924	0.766	5.206	-7.809
153684.479	NaN	2.902	6.663	-5.370	1510.623	1498.901	1499.634	-0.809	0.809	-1.527	0.766	5.282	-7.809
153685.455	NaN	2.913	6.685	-5.359	1509.158	1498.901	1499.634	-0.779	0.641	-1.573	0.842	5.206	-7.732
153686.432	NaN	2.913	6.674	-5.370	1509.890	1500.366	1499.634	-0.809	0.458	-1.725	0.766	5.282	-7.809
153687.408	NaN	2.913	6.674	-5.370	1510.623	1499.634	1500.366	-0.901	0.397	-1.847	0.766	5.129	-7.885
153688.385	NaN	2.902	6.663	-5.380	1511.355	1498.901	1499.634	-1.160	0.427	-1.817	0.766	5.206	-7.809
153689.362	NaN	2.913	6.652	-5.391	1510.623	1500.366	1500.366	-1.298	0.489	-1.618	0.766	5.206	-7.732
153690.338	NaN	2.913	6.663	-5.370	1511.355	1500.366	1499.634	-1.191	0.565	-1.557	0.766	5.129	-7.809
153691.315	NaN	2.913	6.663	-5.370	1509.890	1499.634	1500.366	-1.191	0.473	-1.557	0.766	5.206	-7.809
153692.291	NaN	2.902	6.663	-5.370	1509.158	1499.634	1499.634	-1.221	0.534	-1.588	0.919	5.359	-7.809
153693.268	NaN	2.891	6.652	-5.370	1509.890	1498.901	1501.099	-1.038	0.672	-1.802	0.919	5.282	-7.809
153694.244	NaN	2.902	6.663	-5.370	1509.158	1498.168	1500.366	-0.931	0.748	-1.740	0.842	5.206	-7.885
153695.221	NaN	2.924	6.674	-5.348	1508.425	1498.168	1501.099	-1.023	0.580	-1.542	0.919	5.282	-7.809
153696.198	NaN	2.924	6.674	-5.359	1510.623	1499.634	1499.634	-1.023	0.595	-1.634	0.995	5.359	-7.809
153697.174	NaN	2.913	6.663	-5.370	1508.425	1499.634	1500.366	-0.916	0.672	-1.771	0.842	5.206	-7.732
153698.151	NaN	2.902	6.674	-5.370	1511.355	1500.366	1499.634	-0.916	0.779	-1.740	0.766	5.206	-7.732
153699.127	NaN	2.924	6.674	-5.359	1509.890	1500.366	1500.366	-0.840	0.702	-1.634	0.842	5.282	-7.579
153700.104	NaN	2.924	6.685	-5.359	1509.890	1499.634	1498.901	-0.916	0.595	-1.710	0.766	5.206	-7.656
153701.080	NaN	2.924	6.674	-5.359	1510.623	1498.901	1501.099	-1.130	0.626	-1.832	0.842	5.282	-7.732
153702.057	NaN	2.913	6.674	-5.348	1509.890	1498.901	1499.634	-1.038	0.611	-1.756	0.766	5.282	-7.809
153703.033	NaN	2.924	6.674	-5.359	1510.623	1499.634	1503.297	-1.069	0.626	-1.481	0.766	5.359	-7.962
153704.010	NaN	2.913	6.674	-5.359	1510.623	1498.168	1501.832	-1.023	0.718	-1.603	0.842	5.282	-7.656
153704.987	NaN	2.924	6.674	-5.370	1509.158	1498.168	1500.366	-1.176	0.855	-1.908	0.842	5.359	-7.656
153705.963	NaN	2.913	6.685	-5.370	1509.890	1499.634	1501.099	-1.298	0.809	-1.771	0.766	5.359	-7.809
153706.940	NaN	2.913	6.674	-5.359	1509.890	1498.901	1500.366	-1.038	0.809	-1.756	0.919	5.359	-7.579
153707.916	NaN	2.913	6.674	-5.370	1510.623	1498.168	1498.901	-0.962	0.733	-1.664	0.766	5.282	-7.809
153708.893	NaN	2.924	6.685	-5.359	1509.890	1499.634	1500.366	-0.931	0.473	-1.573	0.919	5.129	-7.732
153709.869	NaN	2.924	6.685	-5.348	1510.623	1499.634	1501.832	-1.084	0.351	-1.740	0.919	5.206	-7.809
153710.846	NaN	2.924	6.674	-5.359	1510.623	1499.634	1501.099	-1.160	0.519	-1.893	0.689	5.206	-7.885
153711.823	NaN	2.935	6.674	-5.370	1510.623	1498.901	1499.634	-1.389	0.443	-1.786	0.766	5.359	-7.656
153712.799	NaN	2.935	6.674	-5.359	1510.623	1499.634	1501.832	-1.206	0.519	-1.802	0.842	5.435	-7.732
153713.776	NaN	2.924	6.674	-5.359	1510.623	1498.168	1500.366	-0.977	0.763	-1.939	0.842	5.206	-7.656
153714.752	NaN	2.924	6.674	-5.370	1509.890	1499.634	1500.366	-0.855	0.809	-1.985	0.766	5.282	-7.809
153715.729	NaN	2.924	6.674	-5.391	1510.623	1498.901	1501.099	-0.977	0.794	-2.000	0.842	5.206	-7.885
153716.705	NaN	2.924	6.685	-5.370	1510.623	1499.634	1500.366	-1.099	0.916	-2.000	0.766	5.129	-7.809
153717.682	NaN	2.913	6.674	-5.380	1509.158	1499.634	1499.634	-1.160	0.885	-1.817	0.919	5.206	-7.732
153718.658	NaN	2.913	6.685	-5.370	1509.158	1498.901	1501.099	-1.252	0.794	-1.679	0.766	5.206	-7.809
153719.635	NaN	2.902	6.685	-5.370	1509.890	1498.901	1500.366	-1.237	0.672	-1.664	0.766	5.359	-7.732
153720.612	NaN	2.913	6.685	-5.380	1510.623	1500.366	1499.634	-0.885	0.550	-1.618	0.842	5.282	-7.809
153721.588	NaN	2.913	6.685	-5.380	1509.890	1499.634	1500.366	-0.626	0.641	-1.725	0.919	5.282	-7.885
153722.565	NaN	2.902	6.685	-5.370	1509.890	1498.901	1500.366	-0.931	0.702	-1.725	0.919	5.282	-7.732
153723.541	NaN	2.902	6.685	-5.348	1510.623	1498.901	1500.366	-1.313	0.626	-1.725	0.919	5.129	-7.732
153724.518	NaN	2.902	6.685	-5.359	1509.158	1499.634	1499.634	-1.420	0.565	-1.679	0.842	5.282	-7.809
153725.494	NaN	2.902	6.685	-5.348	1511.355	1500.366	1499.634	-1.176	0.611	-1.954	0.842	5.282	-7.809
153726.471	NaN	2.913	6.674	-5.359	1511.355	1500.366	1500.366	-1.069	0.458	-1.863	0.842	5.435	-7.732
153727.448	NaN	2.924	6.685	-5.380	1510.623	1499.634	1501.832	-1.053	0.473	-1.817	0.842	5.435	-8.038
153728.424	NaN	2.924	6.674	-5.380	1509.890	1498.168	1499.634	-0.870	0.611	-1.649	0.919	5.206	-7.579
153729.401	NaN	2.935	6.674	-5.370	1508.425	1498.901	1500.366	-0.779	0.580	-1.725	0.842	5.282	-7.809
153730.377	NaN	2.935	6.663	-5.370	1510.623	1499.634	1500.366	-0.962	0.443	-1.985	0.842	5.129	-7.885
153731.354	NaN	2.924	6.674	-5.380	1510.623	1499.634	1501.099	-1.252	0.473	-1.740	0.842	5.282	-7.579
153732.330	NaN	2.924	6.674	-5.380	1509.158	1499.634	1501.099	-1.237	0.672	-1.496	0.842	5.282	-7.885
153733.307	NaN	2.913	6.674	-5.380	1509.158	1498.901	1499.634	-1.099	0.855	-1.649	0.842	5.282	-7.809
153734.283	NaN	2.924	6.674	-5.370	1510.623	1500.366	1500.366	-1.115	0.748	-1.893	0.842	5.282	-7.732
153735.260	NaN	2.913	6.674	-5.380	1509.158	1498.901	1498.901	-1.023	0.718	-1.985	0.842	5.282	-7.809
153736.237	NaN	2.924	6.663	-5.380	1509.890	1498.901	1498.901	-0.763	0.595	-2.061	0.842	5.282	-7.809
153737.213	NaN	2.924	6.674	-5.380	1509.890	1499.634	1500.366	-0.702	0.550	-2.000	0.842	5.129	-7.809
153738.190	NaN	2.924	6.674	-5.391	1509.890	1499.634	1500.366	-0.977	0.611	-1.924	0.766	5.206	-7.656
153739.166	NaN	2.924	6.674	-5.391	1509.890	1498.168	1499.634	-1.084	0.687	-1.908	0.995	5.206	-7.885
153740.143	NaN	2.935	6.674	-5.380	1509.158	1498.168	1498.901	-1.069	0.580	-1.924	0.689	5.282	-7.809
153741.119	NaN	2.935	6.685	-5.380	1509.890	1499.634	1501.099	-1.176	0.611	-1.542	0.842	5.282	-7.809
153742.096	NaN	2.935	6.685	-5.380	1510.623	1498.901	1500.366	-1.038	0.580	-1.634	0.766	5.282	-7.885
153743.073	NaN	2.935	6.696	-5.380	1510.623	1499.634	1500.366	-0.763	0.641	-1.802	0.766	5.282	-7.656
153744.049	NaN	2.935	6.685	-5.380	1511.355	1499.634	1501.099	-0.931	0.656	-1.649	0.689	5.129	-7.732
153745.026	NaN	2.946	6.674	-5.380	1509.158	1498.901	1500.366	-1.389	0.702	-1.771	0.842	5.282	-7.732
153746.002	NaN	2.935	6.674	-5.380	1509.890	1498.901	1501.099	-1.435	0.763	-1.527	0.766	5.282	-7.809
153746.979	NaN	2.924	6.674	-5.391	1511.355	1498.901	1501.099	-1.115	0.611	-1.649	0.766	5.282	-7.885
153747.955	NaN	2.924	6.674	-5.380	1510.623	1500.366	1501.099	-1.053	0.351	-1.939	0.842	5.206	-7.809
153748.932	NaN	2.935	6.685	-5.370	1511.355	1500.366	1499.634	-0.916	0.214	-1.985	0.919	5.282	-7.885
153749.908	NaN	2.924	6.674	-5.380	1510.623	1498.901	1500.366	-0.748	0.519	-1.878	0.842	5.359	-7.732
153750.885	NaN	2.935	6.674	-5.402	1509.890	1498.168	1498.901	-0.824	0.672	-1.817	0.689	5.282	-7.809
153751.862	NaN	2.935	6.674	-5.402	1509.890	1499.634	1500.366	-1.038	0.595	-1.771	0.919	5.282	-7.732
153752.838	NaN	2.924	6.674	-5.391	1509.890	1500.366	1499.634	-1.191	0.641	-1.618	0.919	5.282	-7.885
153753.815	NaN	2.913	6.663	-5.380	1511.355	1498.901	1501.832	-1.160	0.672	-1.664	0.842	5.053	-7.809
153754.791	NaN	2.924	6.674	-5.391	1510.623	1499.634	1501.832	-1.008	0.748	-1.679	0.766	5.435	-7.809
153755.768	NaN	2.924	6.674	-5.402	1509.158	1499.634	1501.099	-1.038	0.794	-1.817	0.842	5.206	-7.732
153756.744	NaN	2.924	6.685	-5.391	1511.355	1499.634	1500.366	-0.977	0.641	-1.924	0.842	5.206	-7.809
153757.721	NaN	2.924	6.685	-5.380	1509.890	1499.634	1502.564	-0.977	0.595	-1.756	0.766	5.206	-7.962
153758.698	NaN	2.924	6.696	-5.380	1510.623	1499.634	1500.366	-0.840	0.840	-1.649	0.842	5.282	-7.732
153759.674	NaN	2.924	6.685	-5.380	1509.890	1499.634	1500.366	-1.084	0.687	-1.542	0.766	5.282	-7.809
153760.651	NaN	2.924	6.685	-5.380	1509.890	1499.634	1500.366	-1.038	0.626	-1.649	0.919	5.206	-7.809
153761.627	NaN	2.924	6.674	-5.380	1509.158	1498.901	1499.634	-0.992	0.611	-1.817	0.842	5.359	-7.732
153762.604	NaN	2.924	6.674	-5.380	1511.355	1498.901	1499.634	-0.885	0.489	-1.832	0.766	5.359	-7.885
153763.580	NaN	2.924	6.674	-5.380	1509.158	1499.634	1501.832	-0.962	0.565	-1.710	0.766	5.206	-7.732
153764.557	NaN	2.935	6.685	-5.359	1509.890	1498.901	1500.366	-1.038	0.733	-1.756	0.766	5.282	-7.809
153765.533	NaN	2.924	6.674	-5.359	1509.890	1500.366	1500.366	-1.160	0.534	-1.695	0.689	5.282	-7.732
153766.510	NaN	2.913	6.674	-5.380	1509.158	1499.634	1498.901	-1.160	0.519	-1.756	0.842	5.206	-7.656
153767.487	NaN	2.924	6.674	-5.370	1508.425	1498.901	1500.366	-1.130	0.473	-1.954	0.919	5.282	-7.809
153768.463	NaN	2.924	6.685	-5.380	1510.623	1499.634	1498.901	-1.069	0.534	-2.092	0.766	5.206	-7.732
153769.440	NaN	2.924	6.674	-5.380	1509.158	1498.901	1500.366	-0.763	0.412	-1.908	0.842	5.359	-7.656
153770.416	NaN	2.924	6.685	-5.380	1510.623	1501.099	1500.366	-0.870	0.336	-1.756	0.919	5.206	-7.885
153771.393	NaN	2.924	6.674	-5.370	1510.623	1499.634	1501.832	-0.916	0.565	-1.664	0.919	5.206	-7.809
153772.369	NaN	2.924	6.674	-5.370	1509.890	1499.634	1500.366	-0.748	0.748	-1.786	0.766	5.282	-7.885
153773.346	NaN	2.924	6.674	-5.380	1510.623	1499.634	1499.634	-0.855	0.763	-1.710	0.689	5.359	-7.962
153774.323	NaN	2.924	6.685	-5.380	1510.623	1498.901	1501.832	-0.855	0.641	-1.695	0.842	5.206	-7.732
153775.299	NaN	2.935	6.685	-5.370	1510.623	1498.901	1501.099	-1.115	0.580	-1.649	0.842	5.282	-7.809
153776.276	NaN	2.935	6.685	-5.359	1509.890	1498.901	1501.099	-1.267	0.489	-1.695	0.995	5.359	-7.656
153777.252	NaN	2.935	6.674	-5.370	1509.890	1499.634	1501.099	-1.405	0.656	-1.786	0.842	5.282	-7.656
153778.229	NaN	2.913	6.663	-5.370	1509.158	1499.634	1500.366	-1.282	0.641	-1.863	0.842	5.206	-7.809
153779.205	NaN	2.924	6.663	-5.370	1509.890	1498.168	1499.634	-1.023	0.656	-1.832	0.919	5.129	-7.885
153780.182	NaN	2.924	6.663	-5.370	1509.158	1498.901	1498.168	-0.718	0.550	-1.786	0.766	5.206	-7.732
153781.158	NaN	2.924	6.663	-5.359	1509.890	1499.634	1500.366	-0.611	0.595	-1.771	0.842	5.206	-7.809
153782.135	NaN	2.924	6.663	-5.380	1509.890	1498.901	1500.366	-0.855	0.580	-1.618	0.919	5.282	-7.732
153783.112	NaN	2.913	6.674	-5.391	1509.890	1500.366	1501.099	-0.931	0.427	-1.786	0.842	5.206	-7.732
153784.088	NaN	2.913	6.685	-5.380	1509.890	1499.634	1501.832	-0.672	0.580	-1.893	0.842	5.282	-7.732
153785.065	NaN	2.913	6.674	-5.380	1510.623	1499.634	1500.366	-0.748	0.702	-1.740	0.766	5.359	-7.732
153786.041	NaN	2.913	6.674	-5.380	1509.158	1500.366	1499.634	-1.099	0.733	-1.817	0.842	5.359	-7.885
153787.018	NaN	2.913	6.663	-5.380	1509.158	1499.634	1499.634	-1.160	0.443	-1.710	0.842	5.282	-7.732
153787.994	NaN	2.913	6.674	-5.380	1512.821	1498.168	1498.901	-0.931	0.519	-1.786	0.766	5.359	-7.885
153788.971	NaN	2.924	6.685	-5.370	1509.890	1500.366	1500.366	-0.901	0.611	-1.954	0.766	5.206	-7.656
153789.948	NaN	2.913	6.685	-5.359	1512.088	1499.634	1499.634	-0.779	0.641	-2.046	0.842	5.206	-7.809
153790.924	NaN	2.913	6.674	-5.359	1510.623	1498.901	1500.366	-0.718	0.656	-1.924	0.766	5.206	-7.732
153791.901	NaN	2.902	6.674	-5.380	1509.890	1498.168	1499.634	-0.580	0.611	-1.771	0.766	5.129	-7.885
153792.877	NaN	2.913	6.685	-5.380	1509.890	1499.634	1501.099	-0.824	0.580	-1.863	0.995	5.282	-7.732
153793.854	NaN	2.913	6.685	-5.402	1509.158	1499.634	1500.366	-0.916	0.504	-1.832	0.842	5.206	-7.809
153794.830	3736841431.759	2.924	6.685	-5.380	1509.158	1499.634	1501.099	-0.901	0.672	-1.924	0.842	5.359	-7.732
153795.807	NaN	2.902	6.685	-5.391	1509.158	1500.366	1500.366	-0.779	0.611	-1.939	0.842	5.206	-7.656
153796.783	NaN	2.913	6.696	-5.391	1510.623	1500.366	1501.099	-0.962	0.611	-1.878	0.842	5.282	-7.732
153797.760	NaN	2.902	6.685	-5.391	1510.623	1498.901	1501.099	-1.069	0.534	-1.908	0.766	5.282	-7.656
153798.737	NaN	2.913	6.696	-5.391	1509.158	1498.901	1499.634	-0.962	0.504	-1.802	0.919	5.129	-7.656
153799.713	NaN	2.913	6.696	-5.380	1510.623	1498.901	1498.901	-0.702	0.489	-1.695	0.842	5.206	-7.732
153800.690	NaN	2.913	6.685	-5.380	1510.623	1498.901	1500.366	-0.672	0.595	-1.802	0.919	5.282	-7.809
153801.666	NaN	2.924	6.674	-5.380	1511.355	1499.634	1501.099	-1.008	0.550	-1.817	0.842	5.206	-7.809
153802.643	NaN	2.924	6.674	-5.380	1509.890	1499.634	1500.366	-1.069	0.443	-1.832	0.919	5.282	-7.885
153803.619	NaN	2.924	6.674	-5.380	1509.890	1499.634	1501.099	-0.947	0.611	-1.863	0.919	5.282	-7.809
153804.596	NaN	2.924	6.663	-5.391	1510.623	1499.634	1500.366	-0.916	0.595	-1.817	0.766	5.359	-7.809
153805.573	NaN	2.924	6.674	-5.391	1512.088	1499.634	1501.099	-1.130	0.733	-1.847	0.919	5.206	-7.579
153806.549	NaN	2.924	6.663	-5.391	1509.890	1498.901	1501.832	-1.191	0.687	-1.863	0.689	5.206	-7.809
153807.526	NaN	2.913	6.674	-5.380	1509.890	1500.366	1499.634	-1.008	0.641	-1.893	0.766	5.129	-7.962
153808.502	NaN	2.902	6.663	-5.380	1511.355	1499.634	1500.366	-0.870	0.611	-1.908	0.766	5.282	-7.809
153809.479	NaN	2.891	6.674	-5.380	1510.623	1499.634	1499.634	-0.885	0.565	-1.802	0.842	5.282	-7.885
153810.455	NaN	2.913	6.663	-5.370	1511.355	1499.634	1500.366	-0.962	0.626	-2.031	0.842	5.359	-7.809
153811.432	NaN	2.913	6.685	-5.370	1510.623	1499.634	1499.634	-0.855	0.855	-2.061	0.842	5.206	-7.732
153812.408	NaN	2.913	6.674	-5.380	1509.158	1499.634	1500.366	-0.977	0.794	-1.817	0.919	5.282	-7.809
153813.385	NaN	2.913	6.685	-5.370	1509.158	1498.901	1498.168	-1.069	0.580	-1.740	0.842	5.282	-7.885
153814.362	NaN	2.913	6.685	-5.370	1509.890	1499.634	1500.366	-0.977	0.534	-1.756	0.689	5.206	-7.732
153815.338	NaN	2.913	6.685	-5.380	1510.623	1498.901	1501.099	-0.977	0.641	-1.893	0.766	5.206	-7.732
153816.315	NaN	2.913	6.685	-5.370	1508.425	1499.634	1501.099	-1.023	0.565	-1.832	0.842	5.129	-7.809
153817.291	NaN	2.913	6.685	-5.370	1510.623	1499.634	1500.366	-1.038	0.519	-1.771	0.842	5.206	-7.656
153818.268	NaN	2.902	6.663	-5.370	1509.890	1498.901	1500.366	-1.038	0.397	-1.985	0.766	5.206	-7.732
153819.244	NaN	2.913	6.674	-5.348	1510.623	1499.634	1501.099	-1.008	0.382	-1.771	0.766	5.129	-7.962
153820.221	NaN	2.902	6.663	-5.370	1509.158	1499.634	1501.099	-0.947	0.595	-1.802	0.766	5.282	-7.809
153821.198	NaN	2.913	6.674	-5.370	1510.623	1498.901	1500.366	-0.840	0.687	-1.802	0.842	5.282	-7.732
153822.174	NaN	2.913	6.674	-5.370	1509.158	1498.901	1499.634	-0.947	0.534	-1.786	0.842	5.206	-7.732
153823.151	NaN	2.913	6.685	-5.370	1510.623	1499.634	1500.366	-0.901	0.550	-1.817	0.842	5.206	-7.809
153824.127	NaN	2.924	6.674	-5.370	1510.623	1499.634	1500.366	-0.916	0.580	-2.061	0.766	5.206	-7.732
153825.104	NaN	2.924	6.685	-5.359	1510.623	1499.634	1500.366	-0.809	0.595	-2.000	0.995	5.206	-7.732
153826.080	NaN	2.913	6.674	-5.370	1509.890	1499.634	1500.366	-0.702	0.687	-1.939	0.766	5.282	-7.809
153827.057	NaN	2.913	6.674	-5.380	1509.890	1498.901	1501.099	-0.855	0.626	-1.664	0.842	5.282	-7.732
153828.033	NaN	2.913	6.674	-5.370	1510.623	1499.634	1501.099	-0.885	0.519	-1.573	0.766	5.129	-7.732
153829.010	NaN	2.913	6.685	-5.359	1509.890	1499.634	1501.099	-0.870	0.519	-1.863	0.919	5.206	-7.809
153829.987	NaN	2.913	6.685	-5.359	1511.355	1498.901	1500.366	-0.672	0.595	-2.137	0.842	5.359	-7.809
153830.963	NaN	2.913	6.685	-5.348	1510.623	1499.634	1499.634	-0.702	0.687	-2.000	0.842	5.359	-7.885
153831.940	NaN	2.913	6.685	-5.370	1510.623	1500.366	1500.366	-0.901	0.626	-1.924	0.919	5.206	-7.656
153832.916	NaN	2.924	6.685	-5.370	1509.890	1500.366	1500.366	-0.931	0.550	-1.817	0.842	5.282	-7.732
153833.893	NaN	2.924	6.685	-5.370	1509.890	1500.366	1500.366	-1.160	0.458	-1.817	0.766	5.282	-7.809
153834.869	NaN	2.935	6.685	-5.370	1509.890	1498.901	1500.366	-1.206	0.565	-1.817	0.842	5.282	-7.732
153835.846	NaN	2.924	6.685	-5.359	1509.890	1499.634	1500.366	-0.962	0.550	-1.863	0.842	5.282	-7.809
153836.823	NaN	2.913	6.685	-5.380	1510.623	1500.366	1500.366	-0.840	0.534	-1.924	0.766	5.282	-7.809
153837.799	NaN	2.913	6.685	-5.380	1510.623	1498.901	1501.099	-0.931	0.626	-2.076	0.766	5.282	-7.809
153838.776	NaN	2.913	6.685	-5.380	1509.890	1499.634	1501.099	-0.840	0.794	-2.031	0.766	5.359	-7.732
153839.752	NaN	2.913	6.685	-5.370	1510.623	1499.634	1500.366	-0.748	0.840	-1.908	0.842	5.282	-7.656
153840.729	NaN	2.913	6.685	-5.380	1509.890	1499.634	1501.099	-0.748	0.809	-1.817	1.072	5.206	-7.809
153841.705	NaN	2.924	6.685	-5.359	1511.355	1500.366	1501.099	-0.824	0.794	-1.802	0.689	5.206	-7.656
153842.682	NaN	2.935	6.685	-5.359	1510.623	1500.366	1499.634	-0.840	0.504	-1.695	0.766	5.359	-7.809
153843.658	NaN	2.935	6.674	-5.359	1509.890	1499.634	1501.099	-0.824	0.443	-1.847	0.689	5.359	-7.809
153844.635	NaN	2.935	6.674	-5.337	1510.623	1499.634	1501.099	-0.824	0.626	-2.015	0.842	5.282	-7.656
153845.612	NaN	2.924	6.663	-5.348	1511.355	1500.366	1500.366	-0.779	0.687	-2.015	0.689	5.206	-7.809
153846.588	NaN	2.935	6.674	-5.326	1511.355	1499.634	1500.366	-0.733	0.733	-1.954	0.766	5.282	-7.732
153847.565	NaN	2.935	6.685	-5.348	1511.355	1498.901	1500.366	-0.702	0.718	-1.908	0.766	5.206	-7.809
153848.541	NaN	2.924	6.685	-5.370	1509.158	1498.901	1500.366	-0.672	0.580	-1.969	0.842	5.206	-7.885
153849.518	NaN	2.913	6.674	-5.370	1509.890	1499.634	1501.099	-0.702	0.519	-2.092	0.842	5.206	-7.885
153850.494	NaN	2.924	6.674	-5.370	1511.355	1500.366	1499.634	-0.870	0.641	-1.939	0.842	5.282	-7.809
153851.471	NaN	2.924	6.663	-5.370	1511.355	1500.366	1498.168	-0.870	0.748	-1.725	0.766	5.206	-7.885
153852.448	NaN	2.924	6.663	-5.370	1510.623	1499.634	1500.366	-0.840	0.641	-1.695	0.766	5.359	-7.809
153853.424	NaN	2.924	6.674	-5.359	1509.890	1498.901	1500.366	-0.870	0.595	-1.740	0.919	5.282	-7.809
153854.401	NaN	2.913	6.674	-5.370	1510.623	1499.634	1501.099	-0.947	0.534	-1.771	0.766	5.282	-7.732
153855.377	NaN	2.935	6.674	-5.370	1510.623	1500.366	1501.099	-0.794	0.580	-1.740	0.842	5.206	-7.885
153856.354	NaN	2.924	6.685	-5.370	1510.623	1499.634	1500.366	-0.656	0.733	-1.939	0.919	5.359	-7.732
153857.330	NaN	2.924	6.674	-5.359	1510.623	1500.366	1499.634	-0.687	0.641	-1.969	0.842	5.435	-7.885
153858.307	NaN	2.924	6.674	-5.359	1509.890	1498.901	1498.901	-0.779	0.550	-1.954	0.766	5.206	-7.809
153859.283	NaN	2.935	6.685	-5.370	1511.355	1500.366	1501.099	-0.763	0.443	-1.847	0.842	5.206	-7.732
153860.260	NaN	2.924	6.674	-5.380	1510.623	1498.901	1500.366	-0.641	0.412	-1.817	0.842	5.206	-7.885
153861.237	NaN	2.946	6.685	-5.370	1509.158	1498.168	1500.366	-0.733	0.611	-1.634	0.842	5.359	-7.809
153862.213	NaN	2.946	6.674	-5.380	1509.890	1498.901	1500.366	-0.947	0.687	-1.786	0.689	5.359	-7.732
153863.190	NaN	2.924	6.674	-5.391	1511.355	1499.634	1500.366	-0.977	0.489	-1.924	0.842	5.282	-7.809
153864.166	NaN	2.935	6.685	-5.380	1509.890	1500.366	1500.366	-0.870	0.382	-1.939	0.766	5.282	-7.885
153865.143	NaN	2.935	6.685	-5.380	1510.623	1499.634	1500.366	-0.977	0.504	-2.076	0.842	5.359	-7.732
153866.119	NaN	2.924	6.674	-5.380	1510.623	1499.634	1500.366	-0.763	0.656	-2.076	0.995	5.282	-7.962
153867.096	NaN	2.935	6.674	-5.402	1509.890	1498.901	1501.832	-0.748	0.565	-1.756	0.689	5.282	-7.809
153868.073	NaN	2.924	6.674	-5.413	1510.623	1500.366	1500.366	-0.885	0.580	-1.786	0.766	5.206	-7.885
153869.049	NaN	2.924	6.674	-5.391	1509.158	1499.634	1501.099	-1.023	0.626	-1.817	0.689	5.282	-7.656
153870.026	NaN	2.924	6.685	-5.391	1509.890	1500.366	1501.099	-0.916	0.626	-1.756	0.842	5.282	-7.732
153871.002	NaN	2.924	6.685	-5.391	1510.623	1498.901	1500.366	-1.008	0.611	-1.710	0.842	5.282	-7.885
153871.979	NaN	2.913	6.685	-5.402	1509.890	1499.634	1500.366	-0.977	0.580	-2.107	0.919	5.282	-7.885
153872.955	NaN	2.924	6.696	-5.391	1512.088	1500.366	1500.366	-0.947	0.550	-2.153	0.919	5.359	-7.962
153873.932	NaN	2.924	6.696	-5.402	1510.623	1499.634	1500.366	-0.748	0.565	-1.969	0.919	5.359	-7.885
153874.908	NaN	2.913	6.685	-5.391	1510.623	1499.634	1501.832	-0.641	0.443	-1.695	0.766	5.359	-7.809
153875.885	NaN	2.924	6.685	-5.391	1509.158	1500.366	1498.901	-0.779	0.718	-1.740	0.842	5.206	-7.809
153876.862	NaN	2.924	6.685	-5.391	1511.355	1499.634	1500.366	-0.916	0.794	-1.817	0.842	5.206	-7.962
153877.838	NaN	2.924	6.696	-5.370	1510.623	1500.366	1500.366	-0.687	0.687	-2.092	0.766	5.206	-7.732
153878.815	NaN	2.924	6.696	-5.370	1510.623	1499.634	1501.099	-0.565	0.443	-2.137	0.842	5.206	-7.885
153879.791	NaN	2.924	6.696	-5.380	1510.623	1499.634	1499.634	-0.763	0.473	-1.969	0.842	5.282	-7.732
153880.768	NaN	2.913	6.674	-5.380	1510.623	1500.366	1499.634	-0.870	0.580	-2.092	0.919	5.206	-7.656
153881.744	NaN	2.913	6.674	-5.370	1510.623	1500.366	1499.634	-0.947	0.656	-1.817	0.766	5.282	-7.809
153882.721	NaN	2.913	6.674	-5.370	1509.890	1499.634	1500.366	-0.809	0.763	-1.573	0.842	5.359	-7.962
153883.698	NaN	2.913	6.674	-5.370	1510.623	1499.634	1500.366	-0.733	0.443	-1.725	0.766	5.359	-7.809
153884.674	NaN	2.913	6.674	-5.370	1510.623	1498.901	1501.099	-0.656	0.366	-1.954	0.842	5.206	-7.656
153885.651	NaN	2.902	6.674	-5.380	1510.623	1499.634	1499.634	-0.550	0.473	-1.878	0.842	5.282	-7.732
153886.627	NaN	2.913	6.663	-5.380	1509.890	1498.168	1500.366	-0.366	0.718	-1.832	0.766	5.129	-7.809
153887.604	NaN	2.935	6.685	-5.380	1509.890	1500.366	1500.366	-0.718	0.794	-1.832	0.842	5.359	-7.962
153888.580	NaN	2.935	6.685	-5.380	1510.623	1499.634	1500.366	-0.947	0.641	-1.878	0.842	5.129	-7.732
153889.557	NaN	2.935	6.685	-5.380	1509.158	1498.168	1500.366	-0.931	0.473	-1.969	0.766	5.206	-7.656
153890.533	NaN	2.924	6.685	-5.391	1510.623	1499.634	1500.366	-0.794	0.504	-1.908	0.919	5.206	-7.656
153891.510	NaN	2.913	6.685	-5.391	1510.623	1498.901	1498.901	-1.069	0.550	-1.863	0.766	5.206	-7.732
153892.487	NaN	2.913	6.674	-5.380	1509.890	1498.901	1499.634	-1.206	0.534	-1.969	0.842	5.206	-7.732
153893.463	NaN	2.913	6.674	-5.380	1510.623	1498.901	1499.634	-0.947	0.656	-1.969	0.842	5.053	-7.732
153894.440	NaN	2.913	6.663	-5.380	1509.890	1498.901	1499.634	-0.931	0.824	-1.908	0.842	5.282	-7.732
153895.416	NaN	2.924	6.674	-5.359	1510.623	1499.634	1501.832	-1.023	0.763	-1.924	0.612	5.359	-7.962
153896.393	NaN	2.924	6.663	-5.380	1510.623	1499.634	1501.099	-0.748	0.748	-1.908	0.766	5.282	-7.732
153897.369	NaN	2.935	6.685	-5.370	1510.623	1499.634	1501.832	-0.672	0.580	-1.817	0.766	5.282	-7.732
153898.346	NaN	2.935	6.663	-5.370	1511.355	1498.901	1501.099	-0.794	0.397	-1.863	0.842	5.206	-7.656
153899.323	NaN	2.924	6.674	-5.370	1509.890	1498.901	1498.901	-0.840	0.458	-1.908	0.919	5.206	-7.732
153900.299	NaN	2.935	6.685	-5.359	1509.158	1499.634	1500.366	-0.824	0.656	-2.031	0.842	5.206	-7.732
153901.276	NaN	2.924	6.685	-5.370	1510.623	1498.901	1500.366	-0.779	0.519	-1.893	0.842	5.359	-7.809
153902.252	NaN	2.924	6.674	-5.380	1509.890	1498.168	1500.366	-0.840	0.366	-1.878	0.919	5.435	-7.809
153903.229	NaN	2.924	6.674	-5.380	1509.890	1499.634	1501.099	-0.870	0.504	-1.908	0.919	5.282	-7.885
153904.205	NaN	2.924	6.674	-5.380	1509.890	1498.901	1499.634	-0.885	0.702	-1.908	0.842	5.359	-7.732
153905.182	NaN	2.924	6.674	-5.370	1510.623	1498.901	1498.901	-0.824	0.794	-1.908	0.842	5.206	-7.732
153906.158	NaN	2.924	6.663	-5.380	1511.355	1499.634	1500.366	-0.794	0.656	-1.802	0.919	5.206	-7.809
153907.135	NaN	2.924	6.674	-5.359	1509.890	1498.168	1498.901	-0.901	0.580	-1.786	0.919	5.206	-7.885
153908.112	NaN	2.913	6.674	-5.370	1511.355	1499.634	1501.099	-0.931	0.779	-2.000	0.842	5.206	-7.732
153909.088	NaN	2.902	6.674	-5.370	1509.158	1499.634	1501.099	-0.656	0.870	-1.893	0.842	5.129	-7.732
153910.065	NaN	2.924	6.674	-5.359	1510.623	1499.634	1500.366	-0.824	0.702	-1.618	0.766	5.359	-7.732
153911.041	NaN	2.924	6.663	-5.370	1510.623	1499.634	1501.832	-1.038	0.565	-1.527	0.766	5.206	-7.885
153912.018	NaN	2.924	6.652	-5.380	1509.158	1498.168	1498.901	-0.840	0.580	-1.725	0.919	5.206	-7.656
153912.994	NaN	2.924	6.663	-5.370	1512.088	1500.366	1499.634	-0.641	0.427	-1.954	0.842	5.359	-7.809
153913.971	NaN	2.924	6.652	-5.380	1509.890	1498.901	1501.099	-0.794	0.366	-2.015	0.766	5.282	-7.656
153914.948	NaN	2.935	6.663	-5.380	1510.623	1498.901	1500.366	-0.840	0.427	-1.847	0.766	5.282	-7.809
153915.924	NaN	2.935	6.663	-5.391	1509.890	1500.366	1501.099	-0.992	0.519	-1.878	0.842	5.206	-7.656
153916.901	NaN	2.924	6.674	-5.391	1509.158	1498.901	1500.366	-0.916	0.733	-1.802	0.766	5.282	-7.732
153917.877	NaN	2.924	6.663	-5.370	1509.890	1499.634	1500.366	-1.099	0.870	-2.000	0.919	5.206	-7.732
153918.854	NaN	2.913	6.652	-5.380	1511.355	1498.901	1500.366	-0.901	0.855	-1.908	0.842	5.359	-7.732
153919.830	NaN	2.924	6.663	-5.380	1510.623	1499.634	1499.634	-0.504	0.626	-1.756	0.919	5.282	-7.656
153920.807	NaN	2.913	6.663	-5.402	1509.890	1499.634	1500.366	-0.748	0.366	-2.015	0.842	5.359	-7.809
153921.783	NaN	2.924	6.674	-5.380	1510.623	1499.634	1500.366	-0.733	0.412	-1.939	0.766	5.359	-7.809
153922.760	NaN	2.924	6.663	-5.370	1510.623	1499.634	1500.366	-0.824	0.534	-1.603	0.919	5.282	-7.809
153923.737	NaN	2.924	6.663	-5.348	1509.890	1498.901	1500.366	-0.824	0.550	-1.618	0.919	5.282	-7.732
153924.713	NaN	2.924	6.663	-5.359	1509.890	1499.634	1500.366	-1.053	0.504	-1.878	0.842	5.282	-7.732
153925.690	NaN	2.924	6.663	-5.370	1510.623	1499.634	1500.366	-1.099	0.595	-1.924	0.919	5.359	-7.809
153926.666	NaN	2.924	6.674	-5.359	1510.623	1498.901	1498.901	-0.885	0.779	-2.031	0.842	5.206	-7.656
153927.643	NaN	2.924	6.663	-5.359	1509.890	1498.901	1500.366	-0.641	0.855	-1.771	0.689	5.282	-7.809
153928.619	NaN	2.924	6.674	-5.380	1508.425	1499.634	1501.099	-0.794	0.916	-1.725	0.766	5.206	-7.809
153929.596	NaN	2.924	6.674	-5.370	1510.623	1498.901	1499.634	-0.794	0.763	-1.695	0.842	5.282	-7.732
153930.573	NaN	2.924	6.674	-5.391	1510.623	1499.634	1500.366	-0.916	0.672	-1.786	0.689	5.359	-7.809
153931.549	NaN	2.924	6.685	-5.380	1510.623	1499.634	1500.366	-0.687	0.595	-2.107	0.766	5.282	-7.809
153932.526	NaN	2.913	6.674	-5.380	1510.623	1499.634	1499.634	-0.443	0.626	-1.893	0.766	5.282	-7.885
153933.502	NaN	2.913	6.663	-5.380	1510.623	1498.901	1501.099	-0.473	0.580	-1.527	0.919	5.206	-7.732
153934.479	NaN	2.902	6.663	-5.402	1509.890	1499.634	1499.634	-0.702	0.702	-1.756	0.919	5.282	-7.809
153935.455	NaN	2.902	6.674	-5.402	1512.088	1499.634	1500.366	-0.809	0.947	-1.924	0.919	5.282	-7.809
153936.432	NaN	2.902	6.674	-5.391	1509.890	1499.634	1500.366	-0.947	0.763	-2.031	0.842	5.206	-7.656
153937.408	NaN	2.913	6.674	-5.380	1510.623	1499.634	1500.366	-1.053	0.611	-2.046	0.842	5.206	-7.809
153938.385	NaN	2.902	6.685	-5.380	1511.355	1498.168	1500.366	-1.053	0.672	-1.924	0.842	5.282	-7.732
153939.362	NaN	2.913	6.696	-5.391	1510.623	1500.366	1498.901	-0.916	0.718	-1.756	0.919	5.282	-7.809
153940.338	NaN	2.913	6.696	-5.380	1512.088	1499.634	1501.099	-0.977	0.718	-1.618	0.766	5.282	-7.809
153941.315	NaN	2.913	6.685	-5.380	1510.623	1499.634	1501.099	-0.977	0.672	-1.786	0.842	5.282	-7.732
153942.291	NaN	2.913	6.685	-5.380	1509.890	1498.901	1500.366	-0.931	0.580	-1.771	0.766	5.282	-7.732
153943.268	NaN	2.913	6.674	-5.370	1509.890	1498.901	1500.366	-0.702	0.824	-1.908	0.995	5.206	-7.809
153944.244	NaN	2.913	6.685	-5.370	1509.890	1497.436	1499.634	-0.595	0.779	-1.924	0.919	5.282	-7.809
153945.221	NaN	2.913	6.685	-5.370	1510.623	1498.901	1501.099	-0.794	0.611	-1.802	0.766	5.282	-7.809
153946.198	NaN	2.913	6.685	-5.380	1510.623	1499.634	1501.099	-0.870	0.748	-1.710	0.766	5.282	-7.732
153947.174	NaN	2.913	6.674	-5.391	1509.890	1498.168	1500.366	-0.763	0.656	-1.725	0.842	5.129	-7.809
153948.151	NaN	2.902	6.674	-5.402	1510.623	1499.634	1501.099	-0.748	0.534	-1.802	0.766	5.206	-7.732
153949.127	NaN	2.913	6.685	-5.402	1510.623	1499.634	1501.832	-0.977	0.595	-1.771	0.919	5.129	-7.809
153950.104	NaN	2.913	6.674	-5.391	1510.623	1499.634	1501.099	-0.779	0.885	-1.786	0.842	5.282	-7.656
153951.080	NaN	2.902	6.685	-5.391	1509.890	1500.366	1499.634	-0.672	0.901	-1.863	0.766	5.129	-7.732
153952.057	NaN	2.913	6.674	-5.391	1509.890	1498.901	1499.634	-0.718	0.824	-1.817	0.689	5.359	-7.732
153953.033	NaN	2.935	6.674	-5.391	1509.890	1499.634	1500.366	-0.947	0.702	-1.908	0.919	5.206	-7.732
153954.010	NaN	2.913	6.663	-5.402	1510.623	1498.168	1501.099	-1.176	0.641	-1.832	0.842	5.206	-7.885
153954.987	3736841431.926	2.924	6.663	-5.380	1510.623	1498.168	1500.366	-1.145	0.565	-1.771	0.919	5.359	-7.732
153955.963	NaN	2.924	6.674	-5.370	1509.890	1498.901	1501.832	-0.931	0.519	-1.802	0.919	5.282	-7.885
153956.940	NaN	2.924	6.674	-5.380	1509.158	1498.901	1499.634	-0.580	0.550	-1.725	0.842	5.129	-7.656
153957.916	NaN	2.935	6.685	-5.359	1509.890	1498.901	1500.366	-0.580	0.748	-1.725	0.689	5.282	-7.656
153958.893	NaN	2.913	6.674	-5.370	1508.425	1498.901	1499.634	-0.840	0.809	-1.664	0.766	5.359	-7.809
153959.869	NaN	2.935	6.674	-5.370	1510.623	1499.634	1501.832	-0.962	0.519	-1.603	0.842	5.206	-7.656
153960.846	NaN	2.913	6.663	-5.380	1510.623	1499.634	1499.634	-1.099	0.595	-1.756	0.842	5.282	-7.809
153961.823	NaN	2.913	6.674	-5.380	1512.821	1499.634	1501.099	-0.931	0.779	-1.817	0.919	5.282	-7.885
153962.799	NaN	2.924	6.674	-5.370	1509.890	1499.634	1501.099	-0.931	0.626	-1.924	0.842	5.359	-7.809
153963.776	NaN	2.924	6.685	-5.380	1511.355	1499.634	1500.366	-0.885	0.611	-1.954	0.842	5.206	-7.809
153964.752	NaN	2.913	6.685	-5.391	1510.623	1499.634	1501.832	-0.626	0.519	-1.725	0.919	5.129	-7.809
153965.729	NaN	2.902	6.685	-5.380	1509.890	1500.366	1498.168	-0.565	0.733	-1.710	0.766	5.129	-7.809
153966.705	NaN	2.902	6.674	-5.380	1509.158	1499.634	1500.366	-0.504	0.931	-1.924	0.842	5.206	-7.732
153967.682	NaN	2.902	6.696	-5.370	1510.623	1498.901	1500.366	-0.748	0.748	-1.893	0.919	5.129	-7.809
153968.658	NaN	2.902	6.685	-5.370	1509.890	1499.634	1500.366	-0.916	0.458	-1.817	0.766	5.053	-7.656
153969.635	NaN	2.891	6.685	-5.380	1510.623	1498.168	1498.168	-0.901	0.656	-1.878	0.995	5.129	-7.579
153970.612	NaN	2.902	6.685	-5.370	1511.355	1499.634	1500.366	-0.885	0.779	-2.000	0.842	5.206	-7.809
153971.588	NaN	2.902	6.685	-5.370	1510.623	1498.901	1501.099	-0.840	0.656	-1.908	0.842	5.282	-7.885
153972.565	NaN	2.891	6.674	-5.370	1510.623	1499.634	1500.366	-0.916	0.794	-1.664	0.766	5.359	-7.732
153973.541	NaN	2.913	6.674	-5.359	1510.623	1499.634	1501.099	-0.733	0.901	-1.802	0.842	5.206	-7.809
153974.518	NaN	2.902	6.674	-5.370	1510.623	1498.168	1500.366	-0.763	0.992	-1.878	0.919	5.359	-7.732
153975.494	NaN	2.913	6.685	-5.370	1510.623	1500.366	1499.634	-0.809	0.626	-1.817	0.842	5.282	-7.502
153976.471	NaN	2.924	6.674	-5.370	1510.623	1499.634	1502.564	-0.885	0.534	-1.786	0.919	5.206	-7.809
153977.448	NaN	2.913	6.685	-5.370	1509.890	1500.366	1500.366	-0.992	0.733	-1.679	0.842	5.282	-7.732
153978.424	NaN	2.913	6.674	-5.380	1510.623	1499.634	1501.099	-0.824	0.733	-1.710	0.766	5.435	-7.809
153979.401	NaN	2.913	6.685	-5.391	1509.890	1498.901	1498.168	-0.641	0.672	-1.679	0.766	5.282	-7.656
153980.377	NaN	2.913	6.674	-5.380	1509.158	1498.901	1499.634	-0.504	0.763	-1.740	0.842	5.129	-7.809
153981.354	NaN	2.913	6.674	-5.370	1509.890	1499.634	1501.099	-0.733	0.824	-1.878	0.842	5.282	-7.885
153982.330	NaN	2.902	6.663	-5.380	1510.623	1500.366	1500.366	-0.901	0.916	-1.969	0.842	5.359	-7.809
153983.307	NaN	2.902	6.652	-5.391	1510.623	1498.168	1501.099	-0.977	0.733	-1.878	0.766	5.282	-7.656
153984.283	NaN	2.913	6.663	-5.391	1509.158	1498.901	1498.901	-0.733	0.916	-1.786	0.766	5.282	-7.962
153985.260	NaN	2.913	6.663	-5.380	1510.623	1499.634	1501.099	-0.870	0.901	-1.832	0.919	5.206	-7.885
153986.237	NaN	2.913	6.663	-5.391	1511.355	1498.901	1500.366	-0.977	0.580	-1.939	0.766	5.206	-7.732
153987.213	NaN	2.924	6.674	-5.380	1509.890	1499.634	1501.099	-0.763	0.733	-2.061	0.766	5.206	-7.579
153988.190	NaN	2.913	6.663	-5.391	1511.355	1500.366	1499.634	-0.626	0.855	-1.878	0.919	5.129	-7.809
153989.166	NaN	2.913	6.663	-5.402	1509.890	1498.901	1499.634	-0.656	0.885	-2.046	0.919	5.282	-7.885
153990.143	NaN	2.924	6.674	-5.380	1510.623	1500.366	1498.901	-0.855	0.748	-1.863	0.842	5.282	-7.732
153991.119	NaN	2.924	6.674	-5.380	1510.623	1499.634	1500.366	-1.069	0.763	-1.908	0.919	5.359	-7.809
153992.096	NaN	2.913	6.674	-5.391	1509.890	1499.634	1500.366	-0.870	0.840	-1.908	0.842	5.282	-7.732
153993.073	NaN	2.913	6.685	-5.380	1511.355	1499.634	1501.832	-0.702	0.809	-1.847	0.766	5.359	-7.809
153994.049	NaN	2.902	6.674	-5.370	1509.890	1498.901	1499.634	-0.656	0.763	-1.725	0.689	5.359	-7.809
153995.026	NaN	2.913	6.674	-5.359	1509.158	1499.634	1500.366	-0.763	0.733	-1.710	0.842	5.129	-7.656
153996.002	NaN	2.902	6.663	-5.359	1510.623	1499.634	1500.366	-0.687	0.718	-1.878	0.842	5.206	-7.656
153996.979	NaN	2.902	6.652	-5.380	1509.890	1498.901	1500.366	-0.595	0.580	-2.000	0.842	5.206	-7.579
153997.955	NaN	2.902	6.663	-5.370	1509.890	1500.366	1500.366	-0.702	0.672	-1.924	0.766	5.206	-7.732
153998.932	NaN	2.913	6.663	-5.391	1510.623	1500.366	1499.634	-0.641	0.733	-1.969	0.919	5.359	-7.885
153999.908	NaN	2.902	6.663	-5.402	1509.890	1499.634	1500.366	-0.672	0.992	-1.924	0.842	5.206	-7.732
154000.885	NaN	2.913	6.674	-5.391	1510.623	1498.901	1501.099	-0.870	0.962	-1.847	0.842	5.282	-7.809
154001.862	NaN	2.913	6.674	-5.402	1511.355	1498.901	1500.366	-0.992	0.824	-1.969	0.842	5.206	-7.656
154002.838	NaN	2.913	6.674	-5.391	1510.623	1499.634	1501.099	-0.962	0.916	-1.603	0.766	5.206	-7.809
154003.815	NaN	2.902	6.663	-5.380	1509.890	1498.901	1500.366	-0.718	0.870	-1.588	0.842	5.206	-7.885
154004.791	NaN	2.891	6.674	-5.359	1509.158	1498.168	1499.634	-0.672	0.977	-1.664	0.766	5.206	-7.732
154005.768	NaN	2.902	6.663	-5.380	1510.623	1498.901	1500.366	-0.763	0.901	-1.802	0.766	5.206	-7.809
154006.744	NaN	2.902	6.674	-5.359	1510.623	1500.366	1500.366	-0.748	0.611	-2.046	0.919	5.359	-7.732
154007.721	NaN	2.913	6.685	-5.359	1510.623	1499.634	1501.099	-0.748	0.656	-1.969	0.766	5.359	-7.656
154008.698	NaN	2.913	6.685	-5.348	1511.355	1499.634	1501.832	-0.870	0.901	-2.000	0.766	5.282	-7.809
154009.674	NaN	2.913	6.674	-5.359	1509.890	1499.634	1500.366	-0.626	0.870	-2.015	0.842	5.206	-7.732
154010.651	NaN	2.913	6.674	-5.370	1510.623	1500.366	1498.901	-0.916	0.779	-1.969	0.766	5.282	-7.809
154011.627	NaN	2.913	6.663	-5.370	1510.623	1499.634	1500.366	-0.901	0.748	-1.695	0.766	5.282	-7.732
154012.604	NaN	2.924	6.663	-5.359	1510.623	1499.634	1500.366	-0.794	0.840	-1.771	0.842	5.359	-7.732
154013.580	NaN	2.924	6.663	-5.359	1510.623	1499.634	1499.634	-0.779	0.885	-1.847	0.919	5.206	-7.885
154014.557	NaN	2.913	6.652	-5.370	1510.623	1500.366	1499.634	-0.840	1.084	-1.908	0.919	5.282	-7.656
154015.533	NaN	2.913	6.663	-5.380	1510.623	1499.634	1501.832	-1.008	1.053	-2.015	0.612	5.282	-7.809
154016.510	NaN	2.924	6.674	-5.359	1510.623	1499.634	1499.634	-1.023	0.809	-2.046	0.766	5.206	-7.962
154017.487	NaN	2.924	6.663	-5.370	1511.355	1499.634	1501.099	-0.992	0.748	-1.863	0.689	5.206	-7.885
154018.463	NaN	2.913	6.663	-5.370	1510.623	1498.901	1501.099	-1.069	0.962	-1.908	0.919	5.359	-7.656
154019.440	NaN	2.913	6.663	-5.380	1510.623	1499.634	1501.099	-1.023	0.947	-1.954	0.842	5.129	-7.809
154020.416	NaN	2.913	6.674	-5.380	1511.355	1499.634	1500.366	-0.855	0.870	-1.832	0.919	5.129	-7.809
154021.393	NaN	2.913	6.674	-5.370	1510.623	1498.901	1500.366	-0.870	0.840	-1.695	0.842	5.206	-7.885
154022.369	NaN	2.902	6.674	-5.370	1510.623	1499.634	1499.634	-0.947	0.779	-1.618	0.842	5.129	-7.809
154023.346	NaN	2.902	6.663	-5.370	1510.623	1499.634	1500.366	-0.931	0.809	-1.878	0.919	5.206	-7.809
154024.323	NaN	2.902	6.663	-5.370	1511.355	1500.366	1500.366	-1.053	0.870	-2.015	0.766	5.359	-7.809
154025.299	NaN	2.924	6.663	-5.348	1509.890	1500.366	1499.634	-0.962	0.672	-2.168	0.842	5.359	-7.809
154026.276	NaN	2.902	6.674	-5.359	1509.890	1500.366	1499.634	-0.779	0.718	-2.015	0.919	5.206	-7.809
154027.252	NaN	2.902	6.674	-5.348	1511.355	1499.634	1501.099	-0.885	0.916	-2.000	0.842	5.206	-7.809
154028.229	NaN	2.891	6.663	-5.370	1511.355	1499.634	1500.366	-1.252	1.038	-1.817	0.919	5.282	-7.732
154029.205	NaN	2.902	6.663	-5.370	1510.623	1500.366	1500.366	-1.115	1.145	-1.695	0.842	5.282	-7.656
154030.182	NaN	2.902	6.663	-5.370	1509.890	1499.634	1501.099	-1.008	1.038	-1.817	0.766	5.282	-7.809
154031.158	NaN	2.902	6.652	-5.370	1510.623	1499.634	1501.099	-1.023	0.824	-1.939	0.766	5.282	-7.885
154032.135	NaN	2.913	6.652	-5.370	1509.890	1500.366	1500.366	-1.115	0.779	-1.832	0.919	5.282	-7.656
154033.112	NaN	2.902	6.663	-5.380	1510.623	1498.901	1501.832	-0.931	0.824	-1.710	0.842	5.282	-7.732
154034.088	NaN	2.913	6.674	-5.359	1512.088	1499.634	1501.099	-0.763	0.962	-1.725	0.842	5.359	-7.732
154035.065	NaN	2.913	6.663	-5.370	1510.623	1498.901	1501.099	-0.855	1.023	-1.878	0.766	5.129	-7.885
154036.041	NaN	2.913	6.674	-5.370	1510.623	1499.634	1500.366	-1.099	1.099	-1.924	0.842	5.053	-7.809
154037.018	NaN	2.924	6.663	-5.380	1509.890	1499.634	1501.099	-1.115	0.931	-1.740	0.689	5.282	-7.809
154037.994	NaN	2.913	6.663	-5.380	1509.158	1499.634	1500.366	-1.038	0.840	-1.756	0.995	5.282	-7.732
154038.971	NaN	2.913	6.663	-5.370	1510.623	1497.436	1500.366	-1.069	0.840	-1.679	0.842	5.206	-7.885
154039.948	NaN	2.924	6.674	-5.359	1510.623	1498.901	1500.366	-1.099	0.901	-1.695	0.842	5.282	-7.809
154040.924	NaN	2.924	6.663	-5.359	1509.890	1498.901	1498.901	-0.947	1.038	-1.954	0.919	5.282	-7.885
154041.901	NaN	2.935	6.674	-5.370	1510.623	1498.168	1499.634	-0.840	1.069	-1.985	0.842	5.206	-7.962
154042.877	NaN	2.924	6.663	-5.380	1510.623	1498.901	1498.901	-0.870	0.840	-2.031	0.842	5.206	-7.732
154043.854	NaN	2.924	6.663	-5.370	1510.623	1499.634	1500.366	-0.962	0.824	-2.046	0.842	5.206	-7.809
154044.830	NaN	2.924	6.663	-5.370	1510.623	1499.634	1501.099	-0.962	0.962	-1.908	0.842	5.206	-7.885
154045.807	NaN	2.913	6.674	-5.380	1509.890	1499.634	1498.901	-0.992	0.947	-1.786	0.689	5.206	-7.885
154046.783	NaN	2.924	6.674	-5.391	1511.355	1500.366	1498.901	-0.977	0.901	-1.817	0.766	5.206	-7.656
154047.760	NaN	2.913	6.663	-5.402	1510.623	1499.634	1499.634	-0.718	1.008	-1.893	0.842	5.206	-7.732
154048.737	NaN	2.924	6.663	-5.380	1510.623	1499.634	1501.099	-0.687	0.992	-1.969	0.689	5.282	-7.962
154049.713	NaN	2.913	6.663	-5.391	1511.355	1499.634	1501.099	-0.916	0.901	-2.107	0.689	5.206	-7.885
154050.690	NaN	2.902	6.652	-5.391	1509.890	1497.436	1500.366	-0.885	0.855	-2.000	0.995	5.206	-7.809
154051.666	NaN	2.913	6.674	-5.370	1510.623	1499.634	1501.099	-0.977	0.824	-1.985	0.766	5.359	-7.885
154052.643	NaN	2.902	6.663	-5.370	1510.623	1499.634	1500.366	-1.053	0.794	-1.939	0.766	5.206	-7.809
154053.619	NaN	2.913	6.674	-5.359	1510.623	1498.168	1500.366	-1.115	1.023	-1.954	0.842	5.282	-7.732
154054.596	NaN	2.913	6.685	-5.359	1509.158	1498.901	1499.634	-1.008	1.069	-1.725	0.766	5.206	-7.885
154055.573	NaN	2.913	6.685	-5.380	1509.158	1498.901	1500.366	-1.008	0.824	-1.802	0.842	5.282	-7.732
154056.549	NaN	2.924	6.685	-5.370	1509.890	1499.634	1500.366	-1.206	0.809	-1.802	0.766	5.282	-7.885
154057.526	NaN	2.913	6.685	-5.380	1510.623	1498.901	1501.099	-1.145	1.084	-1.695	0.842	5.206	-7.732
154058.502	NaN	2.902	6.685	-5.380	1509.890	1498.901	1500.366	-1.099	1.023	-1.924	0.766	5.282	-7.809
154059.479	NaN	2.913	6.685	-5.391	1511.355	1499.634	1500.366	-0.992	0.855	-2.092	0.995	5.206	-7.732
154060.455	NaN	2.913	6.685	-5.380	1510.623	1499.634	1501.099	-0.885	0.931	-2.076	0.766	5.206	-7.885
154061.432	NaN	2.902	6.685	-5.380	1510.623	1499.634	1500.366	-0.656	1.084	-1.771	0.842	5.282	-7.656
154062.408	NaN	2.913	6.685	-5.391	1509.890	1499.634	1498.168	-0.687	1.053	-1.710	0.766	5.282	-7.809
154063.385	NaN	2.913	6.685	-5.380	1509.890	1498.901	1500.366	-0.931	0.977	-1.710	0.842	5.282	-7.885
154064.362	NaN	2.913	6.685	-5.402	1511.355	1500.366	1499.634	-1.008	0.962	-1.924	0.766	5.282	-7.809
154065.338	NaN	2.913	6.685	-5.402	1510.623	1499.634	1501.099	-0.931	0.931	-2.046	0.766	5.282	-7.732
154066.315	NaN	2.913	6.685	-5.391	1510.623	1498.901	1498.901	-0.855	1.053	-1.863	0.919	5.435	-7.809
154067.291	NaN	2.913	6.685	-5.391	1509.890	1499.634	1500.366	-0.809	0.962	-1.756	0.766	5.206	-7.732
154068.268	NaN	2.902	6.685	-5.402	1509.890	1498.901	1499.634	-0.763	1.038	-1.893	0.842	5.282	-7.809
154069.244	NaN	2.913	6.685	-5.391	1510.623	1500.366	1501.099	-0.794	1.191	-1.786	0.689	5.359	-7.732
154070.221	NaN	2.913	6.696	-5.391	1510.623	1499.634	1501.099	-1.084	0.992	-1.710	0.919	5.206	-7.809
154071.198	NaN	2.902	6.696	-5.391	1511.355	1498.901	1500.366	-1.267	0.824	-1.695	0.842	5.359	-7.809
154072.174	NaN	2.891	6.674	-5.391	1509.158	1498.901	1501.832	-1.191	0.840	-1.786	0.842	5.206	-7.579
154073.151	NaN	2.891	6.674	-5.391	1509.890	1499.634	1499.634	-1.008	0.962	-1.893	0.766	5.206	-7.732
154074.127	NaN	2.902	6.674	-5.402	1510.623	1499.634	1501.099	-0.718	0.931	-1.924	0.919	5.435	-7.962
154075.104	NaN	2.902	6.696	-5.402	1510.623	1498.901	1501.099	-0.672	0.947	-1.817	0.766	5.282	-7.732
154076.080	NaN	2.902	6.685	-5.402	1509.890	1499.634	1500.366	-0.779	0.885	-1.771	0.842	5.282	-7.809
154077.057	NaN	2.891	6.685	-5.391	1510.623	1499.634	1501.099	-0.870	1.206	-2.000	0.842	5.282	-7.809
154078.033	NaN	2.913	6.685	-5.391	1509.890	1499.634	1500.366	-0.840	1.145	-1.924	0.689	5.206	-7.809
154079.010	NaN	2.902	6.674	-5.402	1512.088	1498.901	1500.366	-1.084	1.115	-1.756	0.842	5.206	-7.732
154079.987	NaN	2.913	6.674	-5.380	1509.890	1499.634	1499.634	-1.099	0.947	-1.847	0.766	5.282	-7.885
154080.963	NaN	2.924	6.674	-5.370	1510.623	1499.634	1501.099	-1.023	0.901	-1.847	0.842	5.206	-7.885
154081.940	NaN	2.913	6.663	-5.370	1511.355	1499.634	1501.099	-0.992	0.916	-1.802	0.919	5.282	-7.885
154082.916	NaN	2.924	6.674	-5.359	1510.623	1498.901	1501.099	-0.962	1.053	-1.908	0.766	5.206	-7.732
154083.893	NaN	2.913	6.674	-5.359	1509.890	1500.366	1500.366	-0.962	1.145	-1.878	0.766	5.206	-7.885
154084.869	NaN	2.913	6.674	-5.359	1510.623	1499.634	1500.366	-1.008	1.099	-1.863	0.689	5.435	-7.885
154085.846	NaN	2.913	6.685	-5.370	1509.158	1498.168	1499.634	-1.069	1.099	-1.710	0.995	5.206	-7.809
154086.823	NaN	2.913	6.685	-5.370	1511.355	1499.634	1501.099	-1.099	0.992	-1.618	0.919	5.129	-7.885
154087.799	NaN	2.924	6.696	-5.370	1512.088	1499.634	1500.366	-1.160	1.084	-1.679	0.766	5.206	-7.809
154088.776	NaN	2.913	6.685	-5.359	1510.623	1499.634	1500.366	-1.160	0.962	-1.802	0.689	5.282	-7.579
154089.752	NaN	2.913	6.685	-5.348	1511.355	1498.901	1501.099	-1.115	0.809	-1.771	0.842	5.206	-7.732
154090.729	NaN	2.924	6.674	-5.370	1509.890	1498.168	1500.366	-1.099	0.809	-1.695	0.842	5.282	-7.732
154091.705	NaN	2.924	6.696	-5.359	1510.623	1501.099	1498.901	-1.252	0.962	-1.756	0.842	5.282	-7.885
154092.682	NaN	2.924	6.685	-5.370	1511.355	1499.634	1500.366	-1.160	0.916	-1.908	0.842	5.282	-7.732
154093.658	NaN	2.924	6.674	-5.370	1510.623	1498.168	1501.832	-0.840	0.977	-1.817	0.842	5.282	-7.579
154094.635	NaN	2.924	6.674	-5.359	1510.623	1499.634	1501.099	-0.947	0.962	-1.817	0.842	5.282	-7.732
154095.612	NaN	2.924	6.674	-5.370	1509.890	1498.901	1499.634	-1.237	0.901	-1.863	0.919	5.282	-7.885
154096.588	NaN	2.924	6.674	-5.359	1509.158	1499.634	1501.099	-1.267	0.977	-1.893	0.842	5.206	-7.809
154097.565	NaN	2.924	6.674	-5.359	1510.623	1499.634	1499.634	-1.160	0.977	-1.908	0.842	5.359	-7.809
154098.541	NaN	2.913	6.674	-5.359	1510.623	1499.634	1501.832	-1.176	0.916	-1.618	0.842	5.282	-7.885
154099.518	NaN	2.913	6.663	-5.370	1510.623	1498.901	1501.832	-1.099	0.962	-1.588	0.766	5.359	-7.962
154100.494	NaN	2.924	6.663	-5.348	1511.355	1499.634	1501.099	-1.008	1.145	-1.725	0.766	5.282	-7.809
154101.471	NaN	2.924	6.663	-5.348	1509.890	1499.634	1500.366	-1.099	1.191	-1.802	0.766	5.282	-7.885
154102.448	NaN	2.924	6.674	-5.348	1511.355	1498.901	1500.366	-1.130	1.191	-1.817	0.842	5.206	-7.885
154103.424	NaN	2.913	6.674	-5.359	1510.623	1498.901	1501.099	-1.237	1.069	-1.588	0.919	5.359	-7.809
154104.401	NaN	2.913	6.685	-5.348	1509.890	1499.634	1501.832	-1.069	1.084	-1.542	0.842	5.282	-7.732
154105.377	NaN	2.924	6.685	-5.359	1510.623	1499.634	1500.366	-0.931	1.145	-1.878	0.842	5.206	-7.885
154106.354	NaN	2.924	6.685	-5.359	1510.623	1498.901	1500.366	-0.763	1.038	-2.122	0.842	5.282	-7.809
154107.330	3736841432.094	2.924	6.685	-5.370	1510.623	1498.901	1500.366	-0.977	0.992	-2.092	0.842	5.282	-7.656
154108.307	NaN	2.935	6.685	-5.370	1510.623	1499.634	1501.099	-1.130	1.008	-1.786	0.766	5.206	-7.732
154109.283	NaN	2.935	6.685	-5.359	1512.088	1500.366	1498.901	-1.130	1.115	-1.756	0.766	5.282	-7.885
154110.260	NaN	2.924	6.674	-5.370	1510.623	1498.901	1500.366	-0.885	1.099	-1.878	0.766	5.359	-7.732
154111.237	NaN	2.924	6.685	-5.380	1509.890	1498.901	1498.901	-0.947	0.977	-1.908	0.766	5.359	-7.656
154112.213	NaN	2.924	6.674	-5.380	1510.623	1498.901	1500.366	-1.160	0.947	-1.878	0.842	5.282	-7.885
154113.190	NaN	2.913	6.685	-5.380	1510.623	1498.901	1500.366	-0.870	0.840	-1.771	0.919	5.282	-7.732
154114.166	NaN	2.924	6.685	-5.370	1509.890	1499.634	1500.366	-0.855	0.931	-1.756	0.766	5.282	-7.885
154115.143	NaN	2.924	6.685	-5.359	1509.890	1500.366	1498.901	-0.870	1.053	-1.634	0.919	5.359	-7.885
154116.119	NaN	2.913	6.674	-5.359	1510.623	1499.634	1501.099	-0.840	1.191	-1.756	0.842	5.282	-7.885
154117.096	NaN	2.913	6.674	-5.370	1510.623	1499.634	1500.366	-0.840	1.069	-2.046	0.842	5.206	-7.885
154118.073	NaN	2.902	6.674	-5.380	1509.890	1498.901	1499.634	-1.008	0.855	-1.893	0.766	5.359	-7.732
154119.049	NaN	2.924	6.674	-5.380	1509.158	1499.634	1500.366	-1.191	0.962	-1.878	0.612	5.206	-7.656
154120.026	NaN	2.924	6.674	-5.380	1509.890	1500.366	1500.366	-1.053	1.053	-1.817	0.842	5.282	-7.885
154121.002	NaN	2.924	6.685	-5.370	1510.623	1498.901	1501.099	-0.870	0.992	-1.893	0.919	5.129	-7.656
154121.979	NaN	2.913	6.674	-5.380	1509.890	1498.901	1500.366	-0.824	0.962	-1.939	0.766	5.206	-7.656
154122.955	NaN	2.924	6.685	-5.380	1511.355	1500.366	1499.634	-0.977	0.977	-1.954	0.919	5.282	-7.656
154123.932	NaN	2.913	6.663	-5.380	1510.623	1498.901	1498.901	-0.931	1.069	-1.786	0.842	5.206	-7.809
154124.908	NaN	2.924	6.674	-5.370	1509.158	1498.901	1498.901	-0.916	1.221	-1.527	0.919	5.359	-7.809
154125.885	NaN	2.924	6.674	-5.348	1509.890	1498.901	1499.634	-0.992	1.084	-1.634	0.766	5.282	-7.809
154126.862	NaN	2.935	6.685	-5.370	1510.623	1501.099	1500.366	-0.901	0.809	-1.878	0.842	5.282	-7.656
154127.838	NaN	2.924	6.685	-5.359	1510.623	1500.366	1498.901	-0.763	0.855	-1.710	0.842	5.206	-7.656
154128.815	NaN	2.913	6.685	-5.359	1509.158	1499.634	1498.901	-0.626	1.130	-1.740	0.919	5.282	-7.656
154129.791	NaN	2.902	6.685	-5.359	1509.890	1499.634	1500.366	-0.855	1.191	-1.786	0.919	5.282	-7.732
154130.768	NaN	2.880	6.685	-5.370	1510.623	1498.168	1500.366	-1.267	1.160	-2.031	0.919	5.206	-7.809
154131.744	NaN	2.891	6.685	-5.348	1511.355	1499.634	1500.366	-1.313	1.176	-2.137	0.919	5.282	-7.809
154132.721	NaN	2.902	6.674	-5.337	1509.890	1499.634	1499.634	-1.221	1.252	-1.924	0.842	5.359	-7.809
154133.698	NaN	2.902	6.674	-5.348	1510.623	1499.634	1498.901	-1.221	1.099	-1.939	0.995	5.359	-7.962
154134.674	NaN	2.913	6.674	-5.326	1509.890	1499.634	1498.901	-1.038	1.053	-1.786	0.766	5.359	-7.809
154139.557	NaN	2.924	6.663	-5.370	1509.890	1500.366	1499.634	-0.992	1.115	-2.122	0.689	5.282	-7.809
154140.533	NaN	2.935	6.674	-5.380	1510.623	1500.366	1498.901	-1.038	1.252	-2.122	0.919	5.206	-7.732
154141.510	NaN	2.924	6.674	-5.380	1510.623	1500.366	1499.634	-1.008	1.160	-2.046	0.766	5.282	-7.809
154142.487	NaN	2.935	6.685	-5.391	1510.623	1499.634	1498.901	-1.328	0.962	-1.893	0.842	5.359	-7.732
154143.463	NaN	2.924	6.674	-5.402	1509.890	1499.634	1500.366	-1.160	1.176	-1.802	0.919	5.282	-7.579
154144.440	NaN	2.924	6.696	-5.391	1511.355	1498.901	1501.099	-1.053	1.237	-1.771	0.766	5.359	-7.809
154145.416	NaN	2.935	6.696	-5.370	1509.890	1499.634	1501.099	-1.008	1.221	-1.756	0.995	5.206	-7.962
154146.393	NaN	2.924	6.685	-5.380	1509.890	1498.901	1500.366	-1.053	1.084	-1.924	0.689	5.359	-7.732
154147.369	NaN	2.924	6.663	-5.380	1510.623	1499.634	1501.099	-0.977	0.931	-2.092	0.842	5.206	-7.656
154148.346	NaN	2.924	6.663	-5.380	1510.623	1499.634	1500.366	-0.718	1.069	-1.985	0.919	5.129	-7.732
154149.323	NaN	2.913	6.663	-5.391	1510.623	1498.901	1500.366	-0.748	1.221	-1.878	0.919	5.206	-7.732
154150.299	NaN	2.924	6.663	-5.391	1509.158	1499.634	1498.901	-1.023	1.221	-1.939	0.842	5.282	-7.732
154151.276	NaN	2.935	6.674	-5.380	1511.355	1498.901	1499.634	-1.115	1.237	-1.878	0.919	5.359	-7.885
154152.252	NaN	2.924	6.674	-5.380	1511.355	1498.901	1500.366	-1.008	1.282	-1.817	0.842	5.282	-7.809
154153.229	NaN	2.913	6.674	-5.391	1511.355	1499.634	1500.366	-0.885	1.176	-1.847	0.842	5.282	-7.732
154154.205	NaN	2.913	6.685	-5.380	1510.623	1498.901	1500.366	-0.947	0.977	-1.847	0.766	5.206	-7.732
154155.182	NaN	2.924	6.685	-5.370	1509.890	1499.634	1500.366	-0.870	1.023	-1.863	0.842	5.359	-7.732
154156.158	NaN	2.924	6.685	-5.370	1510.623	1498.901	1499.634	-1.099	1.023	-2.122	0.766	5.282	-7.809
154157.135	NaN	2.924	6.685	-5.380	1509.890	1498.901	1500.366	-1.145	1.023	-2.260	0.689	5.282	-7.656
154158.112	NaN	2.935	6.696	-5.380	1510.623	1499.634	1499.634	-1.206	0.916	-2.122	0.919	5.282	-7.809
154159.088	NaN	2.935	6.685	-5.370	1509.158	1499.634	1499.634	-1.191	0.992	-1.786	0.919	5.282	-7.809
154160.065	NaN	2.935	6.685	-5.370	1511.355	1499.634	1501.099	-1.115	1.191	-1.847	0.842	5.282	-7.732
154161.041	NaN	2.924	6.674	-5.380	1512.088	1498.901	1501.099	-0.870	1.145	-1.969	0.766	5.359	-7.809
154162.018	NaN	2.924	6.674	-5.391	1509.890	1499.634	1501.099	-0.794	0.901	-1.969	0.842	5.282	-7.809
154162.994	NaN	2.924	6.674	-5.391	1509.158	1498.168	1499.634	-0.962	1.038	-2.031	0.842	5.206	-7.885
154163.971	NaN	2.913	6.674	-5.391	1510.623	1499.634	1501.099	-1.115	1.023	-1.969	0.919	5.359	-7.732
154164.948	NaN	2.913	6.685	-5.391	1510.623	1499.634	1501.099	-1.038	1.038	-1.878	0.842	5.282	-7.885
154165.924	NaN	2.913	6.685	-5.402	1510.623	1499.634	1500.366	-1.130	1.023	-1.847	0.689	5.282	-7.809
154166.901	NaN	2.902	6.685	-5.402	1510.623	1499.634	1500.366	-1.099	1.038	-1.924	0.842	5.282	-7.732
154167.877	NaN	2.913	6.696	-5.391	1510.623	1500.366	1498.901	-1.206	1.084	-1.985	0.766	5.206	-7.885
154168.854	NaN	2.902	6.685	-5.391	1509.890	1498.901	1500.366	-1.145	1.130	-1.863	0.842	5.282	-7.809
154169.830	NaN	2.902	6.696	-5.391	1509.158	1498.901	1499.634	-0.702	1.282	-1.679	0.842	5.282	-7.809
154170.807	NaN	2.902	6.685	-5.391	1509.890	1499.634	1500.366	-0.672	1.191	-1.710	0.842	5.206	-7.809
154171.783	NaN	2.913	6.696	-5.391	1511.355	1499.634	1501.099	-0.779	1.023	-1.771	0.919	5.282	-7.809
154172.760	NaN	2.913	6.685	-5.391	1510.623	1499.634	1501.099	-0.901	0.992	-1.786	0.842	5.206	-7.656
154173.737	NaN	2.913	6.685	-5.380	1510.623	1500.366	1499.634	-1.237	1.191	-2.000	0.919	5.359	-7.732
154174.713	NaN	2.924	6.685	-5.380	1510.623	1498.901	1499.634	-1.221	1.374	-1.969	0.766	5.359	-7.809
154175.690	NaN	2.924	6.696	-5.380	1509.158	1500.366	1498.901	-1.237	1.221	-1.985	0.842	5.282	-7.732
154176.666	NaN	2.935	6.696	-5.380	1510.623	1501.099	1500.366	-1.191	0.870	-1.924	1.072	5.206	-7.809
154177.643	NaN	2.924	6.685	-5.391	1510.623	1499.634	1500.366	-1.099	0.763	-1.863	0.842	5.282	-7.732
154178.619	NaN	2.924	6.674	-5.391	1510.623	1498.901	1500.366	-0.947	0.870	-1.924	0.689	5.282	-7.885
154179.596	NaN	2.924	6.674	-5.380	1509.890	1499.634	1499.634	-0.672	1.069	-1.878	0.919	5.206	-7.885
154180.573	NaN	2.924	6.685	-5.380	1511.355	1499.634	1501.832	-0.840	1.130	-1.802	0.919	5.359	-7.809
154181.549	NaN	2.913	6.674	-5.391	1509.158	1498.901	1498.901	-1.038	1.038	-1.939	0.842	5.053	-7.732
154182.526	NaN	2.913	6.674	-5.380	1509.890	1498.901	1498.901	-0.992	0.992	-2.351	0.842	5.359	-7.809
154183.502	NaN	2.913	6.674	-5.391	1510.623	1499.634	1499.634	-0.916	1.069	-2.076	0.766	5.206	-7.732
154184.479	NaN	2.913	6.663	-5.413	1510.623	1498.901	1500.366	-1.160	1.145	-1.573	0.842	5.359	-7.962
154185.455	NaN	2.913	6.685	-5.402	1511.355	1499.634	1501.099	-1.023	1.115	-1.618	0.766	5.206	-7.732
154186.432	NaN	2.913	6.674	-5.391	1510.623	1499.634	1500.366	-0.962	1.069	-1.847	0.842	5.282	-7.809
154187.408	NaN	2.913	6.685	-5.391	1510.623	1499.634	1500.366	-1.176	0.992	-1.878	0.842	5.282	-7.885
154188.385	NaN	2.913	6.685	-5.391	1510.623	1498.901	1501.099	-0.992	0.977	-1.863	0.766	5.359	-7.809
154189.362	NaN	2.913	6.685	-5.391	1511.355	1499.634	1502.564	-0.794	0.916	-1.954	0.919	5.282	-7.732
154190.338	NaN	2.913	6.685	-5.391	1511.355	1501.099	1500.366	-0.794	1.053	-1.954	0.766	5.129	-7.732
154191.315	NaN	2.902	6.674	-5.402	1510.623	1499.634	1499.634	-1.023	1.298	-1.863	0.842	5.282	-7.885
154192.291	NaN	2.913	6.663	-5.391	1509.158	1498.901	1499.634	-1.099	1.298	-1.786	0.766	5.359	-7.732
154193.268	NaN	2.913	6.663	-5.391	1508.425	1498.901	1498.901	-1.023	1.099	-1.679	0.842	5.206	-7.885
154194.244	NaN	2.924	6.674	-5.380	1509.890	1499.634	1501.099	-0.962	1.084	-1.740	0.766	5.359	-7.885
154195.221	NaN	2.935	6.674	-5.380	1510.623	1499.634	1501.099	-0.992	0.947	-1.908	0.766	5.282	-7.732
154196.198	NaN	2.924	6.685	-5.380	1511.355	1499.634	1501.832	-0.916	0.901	-2.061	0.842	5.129	-7.732
154197.174	NaN	2.913	6.685	-5.380	1509.890	1498.901	1498.901	-0.840	0.885	-1.863	0.842	5.206	-7.809
154198.151	NaN	2.935	6.685	-5.370	1509.890	1499.634	1498.901	-0.947	0.977	-1.664	0.919	5.206	-7.962
154199.127	NaN	2.946	6.685	-5.359	1509.890	1499.634	1500.366	-1.084	1.053	-1.771	0.766	5.129	-7.809
154200.104	NaN	2.935	6.685	-5.359	1509.890	1499.634	1500.366	-1.221	1.115	-1.893	0.842	5.206	-7.656
154201.080	NaN	2.935	6.674	-5.370	1509.890	1499.634	1501.832	-1.130	1.069	-1.893	0.919	5.129	-7.732
154202.057	NaN	2.924	6.663	-5.370	1510.623	1499.634	1501.099	-0.855	1.130	-1.802	0.919	5.359	-7.885
154203.033	NaN	2.924	6.674	-5.370	1510.623	1499.634	1501.099	-0.473	1.115	-1.847	0.919	5.206	-7.579
154204.010	NaN	2.924	6.663	-5.359	1509.890	1499.634	1500.366	-0.672	1.069	-1.618	0.842	5.206	-7.809
154204.987	NaN	2.913	6.663	-5.359	1510.623	1499.634	1498.168	-1.069	1.069	-1.908	0.842	5.282	-7.732
154205.963	NaN	2.913	6.641	-5.370	1510.623	1498.901	1501.832	-1.084	1.038	-2.122	0.766	5.435	-7.809
154206.940	NaN	2.913	6.652	-5.380	1509.890	1499.634	1499.634	-1.191	1.023	-2.153	0.766	5.282	-7.809
154207.916	NaN	2.913	6.652	-5.380	1511.355	1499.634	1500.366	-1.267	1.267	-2.092	0.919	5.359	-7.962
154211.823	NaN	2.902	6.663	-5.402	1511.355	1499.634	1501.099	-1.053	1.008	-2.061	0.842	5.282	-7.732
154212.799	NaN	2.913	6.663	-5.391	1511.355	1498.901	1501.099	-0.840	1.130	-2.122	0.842	5.282	-7.809
154213.776	NaN	2.913	6.674	-5.391	1510.623	1498.901	1499.634	-0.779	0.885	-2.031	0.919	5.206	-7.809
154214.752	NaN	2.924	6.674	-5.391	1510.623	1499.634	1500.366	-0.824	0.840	-1.802	0.919	5.206	-7.732
154215.729	NaN	2.913	6.674	-5.391	1510.623	1498.901	1501.099	-0.916	0.885	-1.588	0.766	5.282	-7.809
154216.705	NaN	2.913	6.685	-5.380	1511.355	1500.366	1501.099	-0.947	1.023	-1.756	0.842	5.359	-7.732
154217.682	NaN	2.924	6.685	-5.380	1509.890	1500.366	1500.366	-0.656	1.023	-2.015	0.995	5.282	-7.656
154218.658	NaN	2.924	6.685	-5.380	1510.623	1500.366	1500.366	-0.611	0.855	-2.031	0.842	5.206	-7.732
154219.635	NaN	2.913	6.685	-5.380	1509.158	1499.634	1500.366	-0.809	0.870	-2.229	0.842	5.206	-7.885
154220.612	NaN	2.913	6.685	-5.380	1510.623	1499.634	1500.366	-0.885	0.947	-2.260	0.919	5.282	-7.885
154221.588	NaN	2.913	6.685	-5.370	1510.623	1498.901	1500.366	-0.840	1.206	-1.969	0.919	5.129	-7.809
154222.565	NaN	2.935	6.696	-5.348	1509.158	1499.634	1500.366	-0.809	1.298	-1.847	0.919	5.206	-7.809
154223.541	NaN	2.935	6.685	-5.370	1510.623	1498.901	1500.366	-0.794	1.237	-1.939	0.842	5.206	-7.809
154224.518	NaN	2.924	6.696	-5.370	1509.158	1499.634	1501.099	-0.840	1.313	-1.817	0.919	5.359	-7.885
154225.494	NaN	2.924	6.696	-5.370	1511.355	1500.366	1501.099	-0.962	1.191	-1.817	0.919	5.129	-7.732
154226.471	NaN	2.913	6.685	-5.370	1510.623	1499.634	1501.832	-1.115	1.069	-1.924	0.842	5.282	-7.809
154227.448	NaN	2.913	6.685	-5.370	1510.623	1498.901	1501.099	-1.344	1.206	-1.878	0.842	5.359	-7.809
154228.424	NaN	2.913	6.685	-5.370	1510.623	1499.634	1501.099	-1.130	1.145	-1.939	0.766	5.129	-7.809
154229.401	NaN	2.913	6.674	-5.380	1510.623	1500.366	1500.366	-0.947	1.176	-1.939	0.689	5.206	-7.732
154230.377	NaN	2.913	6.685	-5.380	1510.623	1500.366	1501.099	-1.053	1.176	-1.969	0.919	5.206	-7.809
154231.354	NaN	2.913	6.674	-5.359	1509.890	1500.366	1500.366	-1.069	1.115	-1.939	0.842	5.129	-7.732
154232.330	NaN	2.913	6.685	-5.337	1510.623	1498.901	1501.099	-0.977	1.145	-1.802	0.842	5.359	-7.732
154233.307	NaN	2.902	6.674	-5.348	1509.890	1499.634	1500.366	-1.053	1.191	-1.634	0.842	5.206	-7.732
154234.283	NaN	2.902	6.685	-5.370	1511.355	1499.634	1501.832	-0.931	1.069	-1.847	0.842	5.206	-7.656
154235.260	NaN	2.902	6.674	-5.359	1509.890	1499.634	1501.099	-0.748	0.992	-2.137	0.766	5.359	-7.885
154236.237	NaN	2.902	6.685	-5.370	1510.623	1498.901	1499.634	-0.763	1.160	-2.092	0.842	5.206	-7.809
154237.213	NaN	2.913	6.685	-5.359	1510.623	1498.901	1500.366	-0.992	1.206	-1.939	0.689	5.206	-7.885
154238.190	NaN	2.902	6.674	-5.380	1510.623	1499.634	1500.366	-1.191	1.038	-1.863	0.689	5.282	-7.962
154239.166	NaN	2.913	6.674	-5.370	1511.355	1498.901	1501.099	-1.237	1.084	-2.061	0.689	5.206	-7.809
154240.143	NaN	2.924	6.685	-5.380	1511.355	1499.634	1500.366	-1.069	1.145	-2.107	0.919	5.206	-7.885
154241.119	NaN	2.924	6.674	-5.391	1509.890	1499.634	1501.099	-0.779	1.145	-2.092	0.842	5.359	-7.732
154242.096	NaN	2.924	6.663	-5.402	1510.623	1499.634	1499.634	-0.702	1.038	-2.000	0.842	5.282	-7.732
154243.073	NaN	2.924	6.663	-5.413	1509.158	1498.901	1498.901	-0.748	1.191	-1.985	0.842	5.206	-7.809
154244.049	NaN	2.935	6.674	-5.391	1510.623	1499.634	1499.634	-0.977	1.176	-2.137	0.766	5.053	-7.732
154245.026	NaN	2.913	6.663	-5.391	1509.158	1499.634	1501.099	-1.069	1.023	-2.061	0.766	5.282	-7.732
154246.002	NaN	2.913	6.674	-5.391	1507.692	1498.168	1498.168	-1.206	1.221	-1.863	0.766	5.129	-7.885
154246.979	NaN	2.913	6.674	-5.391	1509.890	1498.901	1499.634	-1.023	1.328	-1.908	0.842	5.206	-7.962
154247.955	NaN	2.913	6.674	-5.402	1510.623	1498.901	1500.366	-0.641	1.176	-2.046	0.842	5.282	-7.809
154248.932	NaN	2.913	6.674	-5.391	1510.623	1498.901	1498.901	-0.763	1.176	-2.015	0.919	5.206	-7.962
154249.908	NaN	2.924	6.674	-5.391	1509.890	1499.634	1500.366	-1.130	1.176	-1.863	0.919	5.282	-7.732
154250.885	NaN	2.924	6.674	-5.391	1509.890	1499.634	1498.901	-1.008	1.084	-1.817	0.919	5.435	-7.809
154251.862	NaN	2.935	6.696	-5.370	1509.890	1499.634	1500.366	-0.809	1.084	-1.710	0.842	5.129	-7.732
154252.838	NaN	2.924	6.685	-5.370	1509.890	1498.901	1498.901	-0.824	1.160	-1.924	0.842	5.282	-7.809
154253.815	NaN	2.924	6.685	-5.380	1509.890	1499.634	1498.168	-0.824	1.115	-2.107	0.919	5.282	-7.885
154254.791	NaN	2.924	6.696	-5.380	1509.158	1497.436	1498.168	-0.992	1.191	-2.122	0.919	5.282	-7.732
154255.768	NaN	2.924	6.674	-5.391	1510.623	1499.634	1499.634	-1.084	1.099	-1.908	0.766	5.359	-7.732
154256.744	NaN	2.913	6.674	-5.391	1508.425	1498.901	1500.366	-1.099	0.992	-1.802	0.766	5.435	-7.732
154257.721	NaN	2.924	6.685	-5.391	1510.623	1499.634	1500.366	-1.069	1.008	-1.893	0.842	5.206	-7.809
154258.698	NaN	2.924	6.685	-5.413	1510.623	1500.366	1500.366	-1.130	0.931	-1.786	0.842	5.282	-7.809
154259.674	NaN	2.913	6.674	-5.402	1509.890	1498.901	1498.168	-0.855	1.069	-1.817	0.689	5.359	-7.885
154260.651	NaN	2.913	6.674	-5.402	1509.890	1500.366	1499.634	-0.595	1.160	-1.954	0.689	5.129	-7.732
154261.627	NaN	2.902	6.674	-5.402	1510.623	1498.901	1499.634	-0.580	1.084	-2.244	0.842	5.129	-7.885
154262.604	NaN	2.924	6.674	-5.391	1509.890	1498.901	1500.366	-0.840	1.008	-2.107	0.842	5.435	-7.732
154263.580	NaN	2.913	6.674	-5.380	1510.623	1499.634	1501.099	-0.992	1.145	-2.061	0.842	5.206	-7.809
154264.557	NaN	2.913	6.674	-5.370	1509.890	1498.901	1501.099	-0.901	1.084	-2.046	0.689	5.282	-7.656
154265.533	NaN	2.924	6.674	-5.380	1510.623	1499.634	1500.366	-0.885	1.176	-1.878	0.842	5.359	-7.732
154266.510	NaN	2.924	6.663	-5.380	1510.623	1498.901	1498.901	-0.718	1.115	-2.031	0.919	5.206	-7.732
154267.487	NaN	2.935	6.674	-5.380	1510.623	1498.901	1499.634	-0.779	0.901	-1.924	0.919	5.282	-7.885
154268.463	NaN	2.935	6.674	-5.370	1510.623	1499.634	1500.366	-0.824	0.947	-2.015	0.919	5.359	-7.885
154269.440	NaN	2.935	6.685	-5.380	1509.890	1498.901	1498.901	-0.641	0.901	-2.137	0.689	5.282	-7.809
154270.416	NaN	2.935	6.685	-5.370	1511.355	1499.634	1501.099	-0.901	0.992	-1.969	0.995	5.206	-7.885
154271.393	NaN	2.935	6.696	-5.380	1509.890	1499.634	1501.099	-1.176	1.191	-1.832	0.919	5.129	-7.809
154272.369	NaN	2.946	6.717	-5.370	1509.890	1499.634	1500.366	-1.069	1.145	-1.878	0.689	5.282	-7.656
154273.346	NaN	2.935	6.707	-5.380	1510.623	1498.901	1500.366	-0.641	1.084	-1.908	0.766	5.282	-7.885
154274.323	NaN	2.924	6.696	-5.391	1509.158	1499.634	1499.634	-0.748	1.008	-1.878	0.842	5.206	-7.809
154275.299	NaN	2.924	6.696	-5.370	1510.623	1500.366	1498.901	-0.779	0.885	-2.183	0.919	5.282	-7.809
154276.276	NaN	2.924	6.685	-5.370	1510.623	1498.901	1500.366	-0.824	0.962	-2.061	0.842	5.359	-7.885
154277.252	NaN	2.924	6.685	-5.370	1510.623	1498.901	1501.099	-0.870	1.130	-1.878	0.842	5.206	-7.809
154278.229	NaN	2.924	6.685	-5.370	1509.890	1499.634	1500.366	-0.901	1.221	-1.557	0.842	5.129	-7.656
154279.205	NaN	2.924	6.696	-5.370	1509.158	1499.634	1500.366	-1.023	1.191	-1.695	0.842	5.206	-7.962
154280.182	NaN	2.913	6.685	-5.380	1510.623	1498.901	1499.634	-0.855	1.160	-1.985	0.919	5.206	-7.962
154281.158	NaN	2.924	6.685	-5.380	1509.158	1499.634	1500.366	-0.885	0.977	-2.061	0.766	5.359	-7.885
154282.135	NaN	2.924	6.696	-5.370	1510.623	1498.901	1499.634	-0.840	0.794	-1.924	0.842	5.206	-7.809
154283.112	NaN	2.924	6.696	-5.380	1509.158	1498.168	1498.901	-0.611	0.733	-1.969	0.919	5.359	-7.732
154284.088	NaN	2.913	6.696	-5.380	1510.623	1499.634	1500.366	-0.641	1.008	-1.939	0.842	5.282	-7.885
154285.065	NaN	2.924	6.696	-5.380	1510.623	1499.634	1500.366	-0.885	1.252	-1.954	0.919	5.359	-7.962
154286.041	NaN	2.924	6.696	-5.380	1509.890	1499.634	1499.634	-0.992	1.099	-1.847	0.766	5.206	-7.885
154287.018	NaN	2.913	6.685	-5.380	1510.623	1498.901	1501.099	-0.687	1.023	-2.061	0.766	5.282	-7.732
154287.994	NaN	2.924	6.685	-5.370	1510.623	1501.099	1500.366	-0.565	1.084	-2.031	0.842	5.359	-7.885
154288.971	NaN	2.913	6.685	-5.380	1510.623	1498.901	1499.634	-0.870	0.870	-2.000	0.842	5.282	-7.809
154289.948	NaN	2.935	6.674	-5.370	1509.158	1498.901	1500.366	-0.855	0.794	-2.031	0.766	5.206	-7.579
154290.924	NaN	2.924	6.685	-5.370	1510.623	1499.634	1501.099	-0.855	0.901	-1.893	0.766	5.282	-7.732
154291.901	NaN	2.924	6.674	-5.370	1509.158	1499.634	1500.366	-0.733	1.115	-1.893	0.842	5.282	-7.732
154292.877	NaN	2.946	6.674	-5.370	1510.623	1499.634	1501.832	-0.702	1.160	-2.092	0.689	5.053	-7.962
154293.854	NaN	2.946	6.663	-5.391	1509.890	1498.901	1500.366	-0.794	0.962	-2.015	0.842	5.282	-7.732
154294.830	3736841432.260	2.957	6.663	-5.391	1509.158	1498.901	1500.366	-0.809	0.885	-2.031	0.919	5.206	-7.732
154295.807	NaN	2.946	6.663	-5.391	1509.890	1498.901	1501.099	-0.794	1.038	-2.061	0.995	5.206	-7.732
154296.783	NaN	2.946	6.674	-5.391	1508.425	1500.366	1499.634	-0.855	0.977	-2.092	0.842	5.206	-7.732
154297.760	NaN	2.924	6.674	-5.380	1509.890	1498.168	1499.634	-0.870	0.824	-2.168	0.842	5.282	-7.885
