Timestamp	PC Timestamp	Low Noise Accelerometer X	Low Noise Accelerometer Y	Low Noise Accelerometer Z	Int A12	Int A13	Int A14	Gyroscope X	Gyroscope Y	Gyroscope Z	Wide Range Accelerometer X	Wide Range Accelerometer Y	Wide Range Accelerometer Z
390299.713	NaN	-3.304	1.630	9.380	1505.495	1504.762	1509.158	3.618	0.305	-7.679	-6.048	-0.230	8.268
390300.690	NaN	-3.315	1.641	9.380	1505.495	1504.029	1509.890	3.450	0.489	-7.466	-5.971	-0.230	8.344
390301.666	NaN	-3.315	1.652	9.370	1506.227	1504.029	1510.623	3.450	0.412	-7.481	-5.971	-0.153	8.268
390302.643	NaN	-3.304	1.663	9.391	1506.227	1504.029	1509.158	3.435	0.366	-7.573	-5.895	-0.306	8.268
390303.619	NaN	-3.304	1.652	9.391	1506.227	1504.029	1509.890	3.618	0.290	-7.481	-5.971	-0.153	8.191
390304.596	NaN	-3.304	1.652	9.391	1506.960	1503.297	1510.623	3.573	0.275	-7.588	-5.818	-0.230	8.344
390305.573	NaN	-3.315	1.652	9.391	1505.495	1504.029	1510.623	3.557	0.198	-7.695	-5.971	-0.230	8.268
390306.549	NaN	-3.304	1.652	9.380	1505.495	1504.762	1510.623	3.435	0.214	-7.481	-5.818	-0.153	8.498
390307.526	NaN	-3.304	1.641	9.370	1504.762	1504.762	1510.623	3.282	0.244	-7.282	-5.971	-0.306	8.268
390308.502	NaN	-3.293	1.641	9.370	1505.495	1504.029	1509.890	3.481	0.321	-7.603	-5.971	-0.153	8.421
390309.479	NaN	-3.293	1.630	9.370	1504.762	1504.029	1509.890	3.847	0.183	-7.710	-5.818	-0.153	8.421
390310.455	NaN	-3.293	1.641	9.370	1504.762	1504.029	1510.623	3.771	0.061	-7.740	-6.048	-0.230	8.344
390311.432	NaN	-3.304	1.641	9.370	1505.495	1504.762	1510.623	3.634	0.122	-7.817	-5.742	-0.077	8.421
390312.408	NaN	-3.304	1.641	9.370	1506.227	1504.029	1509.890	3.618	0.229	-7.710	-5.818	-0.230	8.421
390313.385	NaN	-3.304	1.652	9.370	1505.495	1504.029	1509.890	3.832	0.183	-7.527	-5.971	-0.306	8.268
390314.362	NaN	-3.304	1.641	9.370	1505.495	1503.297	1510.623	3.573	0.244	-7.542	-6.124	-0.153	8.191
390315.338	NaN	-3.304	1.652	9.370	1506.227	1504.762	1510.623	3.313	0.412	-7.634	-5.971	-0.153	8.268
390316.315	NaN	-3.293	1.652	9.370	1506.227	1504.029	1510.623	3.313	0.244	-7.481	-5.971	-0.230	8.038
390317.291	NaN	-3.293	1.641	9.380	1506.227	1503.297	1510.623	3.405	0.260	-7.405	-5.818	-0.230	8.268
390318.268	NaN	-3.293	1.641	9.380	1505.495	1503.297	1509.158	3.725	0.519	-7.588	-6.124	-0.230	8.421
390319.244	NaN	-3.293	1.641	9.380	1506.227	1503.297	1509.890	3.557	0.580	-7.740	-6.048	-0.230	8.421
390320.221	NaN	-3.315	1.630	9.370	1504.762	1504.029	1509.890	3.221	0.504	-7.573	-5.895	-0.153	8.344
390321.198	NaN	-3.304	1.641	9.370	1506.227	1504.029	1511.355	3.328	0.443	-7.389	-5.895	-0.230	8.268
390322.174	NaN	-3.315	1.630	9.359	1504.762	1504.029	1509.890	3.435	0.336	-7.450	-5.971	-0.230	8.191
390323.151	NaN	-3.315	1.630	9.337	1506.227	1503.297	1509.158	3.725	0.275	-7.603	-5.971	-0.153	8.344
390324.127	NaN	-3.315	1.652	9.348	1506.227	1504.029	1512.088	3.695	0.214	-7.664	-6.124	-0.153	8.268
390325.104	NaN	-3.304	1.652	9.359	1505.495	1504.762	1511.355	3.557	0.214	-7.649	-5.971	-0.153	8.268
390326.080	NaN	-3.293	1.652	9.359	1506.227	1504.029	1511.355	3.420	0.168	-7.481	-6.048	-0.230	8.344
390327.057	NaN	-3.293	1.652	9.348	1506.227	1504.029	1509.158	3.466	0.076	-7.466	-5.971	-0.230	8.344
390328.033	NaN	-3.304	1.652	9.359	1505.495	1504.029	1509.890	3.496	0.122	-7.588	-5.971	-0.153	8.344
390329.010	NaN	-3.304	1.663	9.370	1505.495	1504.762	1511.355	3.740	0.183	-7.817	-5.895	-0.153	8.268
390329.987	NaN	-3.304	1.652	9.370	1504.762	1504.762	1509.158	3.496	0.290	-7.725	-6.048	-0.153	8.344
390330.963	NaN	-3.304	1.652	9.370	1505.495	1504.029	1510.623	3.496	0.626	-7.618	-5.971	-0.077	8.268
390331.940	NaN	-3.293	1.652	9.370	1505.495	1504.029	1509.890	3.511	0.519	-7.405	-5.971	-0.230	8.191
390332.916	NaN	-3.283	1.652	9.370	1504.762	1504.762	1509.890	3.450	0.290	-7.435	-6.048	-0.306	8.115
390333.893	NaN	-3.283	1.652	9.370	1505.495	1504.762	1509.890	3.405	0.244	-7.649	-5.971	-0.153	8.268
390334.869	NaN	-3.283	1.652	9.359	1505.495	1504.029	1509.890	3.435	0.198	-7.649	-5.971	-0.153	8.115
390335.846	NaN	-3.283	1.663	9.359	1505.495	1504.762	1509.890	3.496	0.275	-7.511	-5.895	-0.077	8.498
390336.823	NaN	-3.293	1.641	9.348	1505.495	1504.029	1510.623	3.389	0.382	-7.588	-5.971	-0.306	8.191
390337.799	NaN	-3.293	1.641	9.359	1506.227	1504.762	1509.890	3.542	0.397	-7.603	-5.971	-0.153	8.268
390338.776	NaN	-3.293	1.652	9.359	1506.227	1504.029	1510.623	3.496	0.412	-7.481	-5.971	-0.153	8.344
390339.752	NaN	-3.283	1.663	9.359	1505.495	1504.762	1509.158	3.344	0.382	-7.450	-5.971	-0.230	8.268
390340.729	NaN	-3.304	1.663	9.359	1505.495	1504.029	1509.158	3.649	0.458	-7.389	-6.048	-0.153	8.191
390341.705	NaN	-3.304	1.663	9.370	1505.495	1504.029	1512.088	3.756	0.351	-7.527	-5.971	-0.153	8.344
390342.682	NaN	-3.315	1.652	9.370	1505.495	1503.297	1510.623	3.466	0.244	-7.450	-5.971	-0.077	8.421
390343.658	NaN	-3.293	1.674	9.380	1504.762	1504.029	1509.890	3.450	0.305	-7.420	-6.048	-0.153	8.344
390344.635	NaN	-3.293	1.663	9.370	1505.495	1503.297	1508.425	3.603	0.366	-7.420	-5.895	-0.230	8.191
390345.612	NaN	-3.293	1.663	9.348	1505.495	1504.029	1509.158	3.588	0.397	-7.420	-5.971	-0.306	8.268
390346.588	NaN	-3.283	1.663	9.348	1505.495	1503.297	1509.158	3.466	0.427	-7.344	-5.895	-0.153	8.268
390347.565	NaN	-3.283	1.663	9.348	1503.297	1505.495	1509.890	3.511	0.427	-7.527	-6.048	-0.306	8.191
390348.541	NaN	-3.293	1.663	9.348	1505.495	1504.762	1511.355	3.450	0.244	-7.588	-5.895	-0.230	8.268
390349.518	NaN	-3.293	1.652	9.348	1504.762	1503.297	1509.158	3.511	0.260	-7.588	-6.048	-0.153	8.344
390350.494	NaN	-3.293	1.652	9.337	1506.227	1504.762	1508.425	3.588	0.366	-7.557	-5.971	-0.153	8.344
390351.471	NaN	-3.283	1.652	9.337	1505.495	1504.029	1510.623	3.588	0.397	-7.328	-6.048	-0.230	8.268
390352.448	NaN	-3.272	1.641	9.348	1505.495	1504.029	1510.623	3.557	0.458	-7.237	-5.971	-0.077	8.191
390353.424	NaN	-3.293	1.641	9.348	1505.495	1503.297	1510.623	3.588	0.412	-7.405	-6.048	-0.153	8.344
390354.401	NaN	-3.293	1.641	9.348	1503.297	1504.762	1509.890	3.588	0.290	-7.466	-5.971	-0.153	8.268
390355.377	NaN	-3.293	1.652	9.337	1505.495	1504.762	1511.355	3.603	0.183	-7.389	-5.971	-0.306	8.191
390356.354	NaN	-3.283	1.652	9.337	1505.495	1504.762	1510.623	3.588	0.321	-7.344	-5.971	-0.153	8.421
390357.330	NaN	-3.293	1.652	9.337	1505.495	1504.029	1511.355	3.603	0.214	-7.450	-5.971	-0.077	8.344
390358.307	NaN	-3.293	1.630	9.337	1505.495	1503.297	1509.890	3.725	0.153	-7.481	-5.971	-0.230	8.344
390359.283	NaN	-3.293	1.641	9.337	1504.029	1503.297	1509.158	3.542	0.260	-7.435	-5.895	-0.153	8.344
390360.260	NaN	-3.283	1.652	9.348	1504.762	1504.029	1510.623	3.435	0.305	-7.618	-6.048	-0.077	8.344
390361.237	NaN	-3.283	1.652	9.337	1504.762	1504.029	1509.158	3.634	0.473	-7.756	-5.971	-0.077	8.115
390362.213	NaN	-3.293	1.652	9.326	1505.495	1504.029	1509.890	3.802	0.275	-7.557	-5.971	-0.153	8.268
390363.190	NaN	-3.304	1.663	9.337	1505.495	1504.029	1509.158	3.878	0.244	-7.481	-5.895	-0.153	8.268
390364.166	NaN	-3.293	1.663	9.348	1504.762	1504.029	1509.158	3.756	0.168	-7.450	-5.971	-0.153	8.268
390365.143	NaN	-3.304	1.663	9.380	1506.227	1504.029	1511.355	3.786	0.214	-7.374	-5.971	-0.153	8.344
390366.119	NaN	-3.304	1.652	9.370	1505.495	1504.762	1510.623	3.603	0.092	-7.496	-5.971	-0.230	8.268
390367.096	NaN	-3.304	1.652	9.370	1504.762	1503.297	1511.355	3.420	0.015	-7.511	-6.048	0.000	8.115
390368.073	NaN	-3.304	1.641	9.359	1506.227	1504.762	1509.890	3.557	0.198	-7.435	-6.048	-0.230	8.268
390369.049	NaN	-3.293	1.641	9.359	1506.227	1504.029	1510.623	3.618	0.580	-7.359	-5.971	-0.306	8.268
390370.026	NaN	-3.283	1.630	9.370	1505.495	1503.297	1510.623	3.756	0.565	-7.588	-5.971	-0.153	8.268
390371.002	NaN	-3.283	1.630	9.359	1504.762	1505.495	1510.623	3.832	0.580	-7.466	-6.048	-0.230	8.268
390371.979	NaN	-3.293	1.620	9.359	1505.495	1503.297	1511.355	3.863	0.473	-7.405	-5.971	-0.230	8.344
390372.955	NaN	-3.304	1.641	9.359	1506.227	1504.029	1510.623	3.954	0.443	-7.374	-5.971	-0.153	8.268
390373.932	NaN	-3.315	1.641	9.370	1504.762	1503.297	1509.158	3.893	0.305	-7.282	-5.971	-0.153	8.344
390374.908	NaN	-3.304	1.663	9.359	1506.227	1502.564	1509.890	3.756	0.229	-7.359	-6.048	-0.306	8.344
390375.885	NaN	-3.293	1.663	9.359	1506.227	1503.297	1510.623	3.450	0.290	-7.328	-6.048	-0.153	8.191
390376.862	NaN	-3.304	1.652	9.359	1504.762	1503.297	1509.890	3.557	0.229	-7.267	-5.971	0.000	8.115
390377.838	NaN	-3.304	1.652	9.359	1504.762	1503.297	1509.890	3.527	0.244	-7.221	-6.048	-0.153	8.268
390378.815	NaN	-3.283	1.652	9.359	1506.227	1504.029	1510.623	3.725	0.397	-7.374	-5.895	-0.153	8.344
390379.791	NaN	-3.283	1.641	9.359	1505.495	1504.029	1509.890	3.725	0.412	-7.573	-6.048	-0.230	8.191
390380.768	NaN	-3.293	1.641	9.359	1502.564	1503.297	1509.158	3.817	0.321	-7.710	-6.048	-0.153	8.115
390381.744	NaN	-3.293	1.652	9.370	1505.495	1502.564	1509.158	3.756	0.321	-7.542	-5.971	-0.153	8.344
390382.721	NaN	-3.283	1.652	9.359	1506.227	1504.762	1509.890	3.466	0.366	-7.496	-5.971	-0.230	8.421
390383.698	NaN	-3.293	1.652	9.359	1505.495	1504.029	1510.623	3.466	0.473	-7.405	-6.048	-0.230	8.268
390384.674	NaN	-3.293	1.641	9.370	1504.762	1504.029	1509.890	3.664	0.443	-7.267	-5.818	-0.153	8.421
390385.651	NaN	-3.293	1.641	9.380	1504.029	1504.029	1509.890	3.695	0.336	-7.252	-5.971	-0.153	8.191
390386.627	NaN	-3.293	1.652	9.380	1506.227	1504.762	1510.623	3.573	0.336	-7.069	-5.971	-0.077	8.344
390387.604	NaN	-3.293	1.652	9.380	1505.495	1504.029	1511.355	3.603	0.443	-7.221	-6.124	-0.230	8.268
390388.580	NaN	-3.293	1.663	9.359	1504.762	1504.762	1509.890	3.527	0.580	-7.176	-6.124	-0.230	8.344
390389.557	NaN	-3.283	1.641	9.359	1505.495	1503.297	1509.890	3.573	0.519	-7.267	-5.895	-0.306	8.268
390390.533	NaN	-3.293	1.630	9.359	1504.762	1504.029	1509.890	3.435	0.366	-7.359	-5.895	-0.077	8.344
390391.510	NaN	-3.283	1.641	9.348	1505.495	1504.029	1510.623	3.603	0.366	-7.344	-6.048	-0.230	8.344
390392.487	NaN	-3.283	1.641	9.348	1504.762	1504.029	1510.623	3.771	0.290	-7.344	-6.048	-0.153	8.191
390393.463	NaN	-3.304	1.652	9.348	1506.227	1504.029	1509.890	3.557	0.305	-7.328	-5.971	-0.153	8.344
390394.440	NaN	-3.315	1.641	9.337	1504.762	1503.297	1509.890	3.847	0.275	-7.389	-5.971	-0.230	8.421
390395.416	NaN	-3.304	1.652	9.337	1506.960	1504.029	1510.623	4.031	0.244	-7.298	-5.895	-0.153	8.268
390396.393	NaN	-3.304	1.652	9.337	1506.227	1504.029	1510.623	4.015	0.336	-7.160	-5.895	-0.153	8.268
390397.369	NaN	-3.304	1.652	9.337	1506.227	1504.029	1509.890	3.802	0.504	-7.237	-5.818	-0.153	8.191
390398.346	NaN	-3.304	1.652	9.348	1504.762	1503.297	1509.158	3.557	0.321	-7.374	-5.895	-0.230	8.268
390399.323	NaN	-3.304	1.652	9.359	1504.762	1503.297	1509.158	3.435	0.183	-7.405	-6.048	-0.230	8.268
390400.299	NaN	-3.293	1.652	9.359	1506.227	1504.029	1510.623	3.603	0.290	-7.328	-5.971	-0.077	8.191
390401.276	NaN	-3.293	1.652	9.359	1505.495	1504.029	1510.623	3.985	0.458	-7.374	-5.971	-0.153	8.115
390402.252	NaN	-3.283	1.641	9.359	1506.227	1503.297	1509.890	3.725	0.519	-7.389	-5.895	-0.153	8.115
390403.229	NaN	-3.283	1.630	9.359	1504.762	1503.297	1509.158	3.542	0.443	-7.344	-6.048	-0.230	8.268
390404.205	NaN	-3.283	1.641	9.348	1506.227	1504.029	1509.890	3.603	0.458	-7.328	-5.971	-0.230	8.344
390405.182	NaN	-3.283	1.641	9.348	1506.227	1504.762	1509.890	3.740	0.305	-7.374	-5.971	-0.077	8.344
390406.158	NaN	-3.283	1.641	9.348	1505.495	1504.762	1509.890	3.679	0.458	-7.603	-5.895	-0.153	8.268
390407.135	NaN	-3.293	1.641	9.348	1506.227	1504.029	1509.890	3.481	0.489	-7.511	-6.048	-0.230	8.421
390408.112	NaN	-3.304	1.630	9.337	1506.227	1504.029	1509.158	3.588	0.382	-7.405	-6.048	-0.153	8.344
390409.088	NaN	-3.304	1.641	9.337	1506.227	1504.762	1509.890	3.924	0.366	-7.344	-6.124	0.000	8.344
390410.065	NaN	-3.304	1.652	9.326	1506.227	1504.029	1509.890	3.863	0.290	-7.328	-6.124	-0.077	8.115
390411.041	NaN	-3.304	1.641	9.337	1504.029	1504.029	1510.623	3.771	0.427	-7.466	-5.971	-0.230	8.344
390412.018	NaN	-3.304	1.641	9.337	1504.762	1503.297	1509.890	3.679	0.351	-7.481	-5.971	-0.230	8.421
390412.994	NaN	-3.304	1.641	9.337	1505.495	1504.029	1512.821	3.557	0.382	-7.466	-5.895	-0.230	8.268
390413.971	NaN	-3.304	1.652	9.348	1505.495	1504.762	1510.623	3.527	0.244	-7.389	-5.971	-0.230	8.268
390414.948	NaN	-3.304	1.652	9.359	1505.495	1503.297	1510.623	3.450	0.183	-7.389	-5.895	-0.153	8.344
390415.924	NaN	-3.304	1.652	9.359	1506.227	1503.297	1511.355	3.466	0.305	-7.237	-5.895	-0.306	8.498
390416.901	NaN	-3.304	1.652	9.359	1504.029	1504.029	1510.623	3.481	0.366	-7.328	-5.971	-0.230	8.268
390417.877	NaN	-3.304	1.663	9.370	1506.227	1503.297	1508.425	3.679	0.412	-7.496	-5.971	-0.230	8.268
390418.854	NaN	-3.304	1.663	9.359	1505.495	1504.029	1509.158	3.847	0.427	-7.496	-5.971	-0.153	8.268
390419.830	NaN	-3.304	1.663	9.359	1504.762	1504.029	1510.623	3.969	0.336	-7.496	-5.971	-0.383	8.191
390420.807	NaN	-3.293	1.652	9.359	1505.495	1504.762	1509.890	3.969	0.321	-7.374	-6.048	-0.230	8.344
390421.783	NaN	-3.304	1.641	9.348	1505.495	1504.762	1510.623	3.847	0.244	-7.344	-5.971	-0.230	8.268
390422.760	NaN	-3.304	1.630	9.348	1505.495	1502.564	1509.158	3.756	0.550	-7.420	-5.971	-0.230	8.268
390423.737	NaN	-3.293	1.652	9.359	1504.762	1504.029	1510.623	3.756	0.656	-7.420	-5.895	-0.153	8.268
390424.713	NaN	-3.304	1.641	9.337	1506.960	1504.029	1510.623	3.954	0.473	-7.420	-5.895	-0.230	8.268
390425.690	NaN	-3.315	1.641	9.348	1504.762	1502.564	1508.425	3.847	0.336	-7.450	-5.971	-0.306	8.191
390426.666	NaN	-3.304	1.641	9.359	1505.495	1504.762	1509.890	3.725	0.229	-7.542	-5.971	-0.153	8.268
390427.643	NaN	-3.315	1.641	9.359	1505.495	1503.297	1509.158	3.618	0.244	-7.450	-5.895	-0.077	8.115
390428.619	NaN	-3.293	1.652	9.370	1505.495	1504.029	1509.890	3.695	0.351	-7.252	-6.048	-0.230	8.344
390429.596	NaN	-3.293	1.652	9.380	1504.762	1504.029	1509.158	3.817	0.443	-7.282	-6.048	-0.153	8.344
390430.573	NaN	-3.293	1.641	9.370	1506.227	1503.297	1510.623	3.664	0.443	-7.237	-5.895	-0.153	8.191
390431.549	NaN	-3.293	1.652	9.370	1505.495	1504.762	1510.623	3.542	0.260	-7.191	-5.895	-0.153	8.191
390432.526	NaN	-3.293	1.652	9.380	1504.762	1504.029	1508.425	3.786	0.321	-7.221	-6.048	-0.153	8.344
390433.502	NaN	-3.293	1.652	9.380	1505.495	1504.762	1510.623	3.679	0.412	-7.145	-5.971	-0.153	8.268
390434.479	NaN	-3.304	1.641	9.370	1504.762	1504.029	1509.890	3.588	0.443	-7.099	-6.048	-0.077	8.344
390435.455	NaN	-3.304	1.641	9.370	1504.762	1503.297	1509.158	3.756	0.763	-7.267	-5.895	-0.153	8.268
390436.432	NaN	-3.304	1.641	9.391	1504.762	1502.564	1509.158	3.832	0.702	-7.328	-6.124	-0.153	8.344
390437.408	NaN	-3.304	1.663	9.391	1505.495	1504.029	1509.890	3.710	0.550	-7.267	-5.971	-0.230	8.191
390438.385	NaN	-3.304	1.641	9.370	1504.762	1504.029	1509.158	3.618	0.229	-7.252	-6.048	-0.153	8.268
390439.362	NaN	-3.315	1.652	9.380	1504.029	1503.297	1509.890	3.588	0.290	-7.191	-5.971	-0.077	8.038
390440.338	NaN	-3.304	1.641	9.380	1504.762	1503.297	1509.158	3.527	0.519	-7.237	-5.971	-0.153	8.268
390441.315	NaN	-3.304	1.652	9.380	1504.029	1504.762	1509.890	3.450	0.534	-7.099	-5.818	-0.153	8.268
390442.291	NaN	-3.304	1.641	9.370	1506.227	1504.029	1510.623	3.786	0.519	-7.115	-6.048	-0.077	8.268
390443.268	NaN	-3.293	1.652	9.370	1505.495	1502.564	1509.158	3.786	0.519	-7.298	-6.048	-0.230	8.268
390444.244	NaN	-3.304	1.663	9.348	1506.227	1504.762	1510.623	3.771	0.519	-7.389	-5.895	-0.230	8.268
390445.221	NaN	-3.293	1.641	9.348	1504.762	1504.029	1510.623	3.481	0.489	-7.405	-5.971	-0.153	8.268
390446.198	NaN	-3.293	1.641	9.337	1505.495	1504.029	1510.623	3.420	0.565	-7.145	-6.124	-0.153	8.344
390447.174	NaN	-3.293	1.652	9.348	1505.495	1503.297	1510.623	3.634	0.443	-7.267	-6.048	-0.306	8.421
390448.151	NaN	-3.293	1.663	9.348	1505.495	1504.029	1509.890	3.786	0.275	-7.359	-6.048	-0.230	8.421
390449.127	NaN	-3.283	1.663	9.348	1506.960	1504.762	1510.623	3.863	0.382	-7.405	-5.895	-0.230	8.344
390450.104	NaN	-3.304	1.641	9.359	1505.495	1503.297	1509.890	3.847	0.534	-7.282	-6.048	-0.077	8.344
390451.080	NaN	-3.304	1.652	9.359	1504.762	1502.564	1507.692	3.817	0.550	-7.328	-5.971	-0.077	8.421
390452.057	NaN	-3.293	1.663	9.348	1504.762	1504.762	1509.158	3.863	0.443	-7.450	-6.048	-0.153	8.268
390453.033	NaN	-3.293	1.652	9.337	1505.495	1504.029	1509.890	4.046	0.595	-7.328	-5.895	-0.153	8.344
390454.010	NaN	-3.293	1.652	9.337	1505.495	1504.762	1510.623	4.122	0.565	-7.344	-5.971	-0.230	8.344
390454.987	NaN	-3.293	1.663	9.337	1505.495	1504.029	1509.158	4.031	0.397	-7.313	-5.971	-0.230	8.421
390455.963	NaN	-3.293	1.663	9.348	1504.762	1504.762	1509.158	3.863	0.427	-7.328	-5.971	-0.153	8.344
390456.940	NaN	-3.315	1.663	9.348	1504.762	1503.297	1510.623	3.710	0.473	-7.420	-5.895	-0.153	8.344
390457.916	NaN	-3.293	1.674	9.348	1504.762	1504.762	1510.623	3.664	0.489	-7.328	-6.124	-0.230	8.421
390458.893	NaN	-3.293	1.674	9.348	1505.495	1504.029	1510.623	3.893	0.534	-7.328	-6.124	-0.153	8.191
390459.869	NaN	-3.283	1.663	9.348	1505.495	1504.029	1511.355	3.771	0.580	-7.389	-6.048	-0.230	8.268
390460.846	NaN	-3.293	1.663	9.337	1506.227	1504.029	1509.890	3.710	0.611	-7.359	-6.048	-0.230	8.344
390461.823	NaN	-3.293	1.652	9.337	1505.495	1504.762	1510.623	3.756	0.702	-7.527	-5.895	-0.153	8.344
390462.799	NaN	-3.293	1.652	9.348	1505.495	1503.297	1509.890	3.756	0.504	-7.267	-6.201	-0.153	8.421
390463.776	NaN	-3.272	1.652	9.348	1505.495	1504.029	1510.623	3.679	0.336	-7.221	-6.048	-0.153	8.268
390464.752	NaN	-3.272	1.663	9.348	1506.227	1503.297	1511.355	3.786	0.397	-7.176	-6.124	-0.153	8.268
390465.729	NaN	-3.272	1.652	9.348	1504.029	1504.029	1508.425	3.847	0.427	-7.252	-6.048	-0.153	8.191
390466.705	NaN	-3.283	1.652	9.359	1505.495	1504.029	1510.623	3.847	0.504	-7.191	-5.971	-0.153	8.344
390467.682	NaN	-3.272	1.641	9.359	1506.227	1504.762	1510.623	3.679	0.473	-7.176	-5.895	-0.230	8.268
390468.658	NaN	-3.283	1.652	9.359	1505.495	1504.029	1510.623	3.618	0.351	-7.160	-5.971	-0.153	8.421
390469.635	NaN	-3.283	1.641	9.359	1505.495	1503.297	1510.623	3.695	0.321	-7.206	-6.048	-0.230	8.421
390470.612	NaN	-3.293	1.652	9.348	1505.495	1502.564	1509.890	3.802	0.244	-7.160	-6.048	-0.230	8.191
390471.588	NaN	-3.283	1.652	9.348	1506.960	1505.495	1511.355	4.000	0.305	-7.206	-5.971	-0.153	8.191
390472.565	NaN	-3.283	1.663	9.359	1506.227	1504.762	1509.890	3.908	0.214	-7.328	-5.971	-0.153	8.344
390473.541	NaN	-3.283	1.663	9.359	1505.495	1504.762	1510.623	3.649	0.260	-7.359	-6.048	-0.230	8.191
390474.518	NaN	-3.283	1.663	9.359	1504.762	1504.029	1509.158	3.740	0.382	-7.359	-5.971	-0.153	8.191
390475.494	NaN	-3.293	1.663	9.370	1506.960	1504.029	1511.355	3.511	0.504	-7.252	-6.048	-0.153	8.344
390476.471	NaN	-3.304	1.674	9.359	1506.227	1504.029	1511.355	3.725	0.580	-7.313	-5.971	-0.153	8.268
390477.448	NaN	-3.304	1.663	9.348	1505.495	1504.762	1511.355	3.679	0.534	-7.313	-6.048	-0.153	8.268
390478.424	NaN	-3.315	1.663	9.359	1504.029	1503.297	1508.425	3.527	0.427	-7.282	-6.048	-0.153	8.421
390479.401	NaN	-3.315	1.663	9.359	1504.762	1504.029	1509.890	3.466	0.366	-7.252	-6.201	-0.153	8.421
390480.377	NaN	-3.304	1.663	9.348	1505.495	1504.762	1510.623	3.725	0.473	-7.389	-6.048	-0.230	8.268
390481.354	NaN	-3.304	1.663	9.348	1505.495	1505.495	1512.088	3.832	0.366	-7.435	-6.048	-0.077	8.191
390482.330	NaN	-3.293	1.663	9.359	1506.227	1504.029	1509.890	3.908	0.366	-7.267	-5.971	-0.306	8.268
390483.307	NaN	-3.293	1.652	9.359	1505.495	1504.029	1509.158	3.771	0.550	-7.145	-5.895	-0.230	8.268
390484.283	NaN	-3.304	1.652	9.348	1505.495	1503.297	1509.890	3.893	0.626	-7.069	-5.971	-0.153	8.344
390485.260	NaN	-3.304	1.652	9.359	1504.762	1502.564	1509.890	3.847	0.321	-7.053	-5.895	-0.230	8.268
390486.237	NaN	-3.315	1.663	9.359	1505.495	1504.029	1509.158	3.863	0.305	-7.176	-6.048	-0.153	8.344
390487.213	NaN	-3.315	1.663	9.370	1504.762	1504.029	1510.623	3.725	0.427	-7.313	-5.895	-0.153	8.421
390488.190	NaN	-3.315	1.663	9.359	1504.762	1504.762	1509.890	3.802	0.626	-7.206	-5.818	-0.153	8.421
390489.166	NaN	-3.304	1.663	9.359	1505.495	1504.762	1509.890	3.908	0.748	-7.176	-6.048	-0.230	8.344
390490.143	NaN	-3.304	1.663	9.370	1505.495	1504.762	1509.890	3.878	0.748	-7.160	-5.971	-0.153	8.344
390491.119	NaN	-3.304	1.652	9.370	1505.495	1504.029	1510.623	3.618	0.519	-7.176	-6.124	-0.153	8.191
390492.096	NaN	-3.315	1.652	9.380	1505.495	1504.029	1511.355	3.710	0.382	-7.313	-6.048	-0.230	8.421
390493.073	NaN	-3.315	1.630	9.370	1506.960	1504.029	1510.623	3.878	0.580	-7.481	-5.971	-0.230	8.268
390494.049	NaN	-3.304	1.641	9.370	1505.495	1504.029	1510.623	3.786	0.580	-7.420	-5.971	-0.153	8.421
390495.026	NaN	-3.304	1.641	9.370	1505.495	1504.029	1510.623	3.817	0.412	-7.282	-6.124	-0.077	8.344
390496.002	NaN	-3.304	1.630	9.370	1506.227	1503.297	1510.623	3.802	0.702	-7.298	-5.971	-0.153	8.115
390496.979	NaN	-3.304	1.620	9.380	1505.495	1503.297	1509.158	3.878	0.580	-7.176	-6.048	-0.153	8.344
390497.955	NaN	-3.315	1.630	9.359	1506.227	1504.029	1510.623	3.939	0.427	-6.916	-5.895	-0.153	8.344
390498.932	NaN	-3.304	1.641	9.370	1506.227	1504.029	1509.890	3.908	0.366	-6.977	-5.971	-0.153	8.421
390499.908	NaN	-3.304	1.641	9.370	1506.227	1504.029	1509.890	3.771	0.366	-6.916	-5.971	-0.153	8.344
390500.885	NaN	-3.304	1.641	9.370	1504.762	1503.297	1510.623	3.802	0.382	-7.115	-5.971	-0.077	8.344
390501.862	NaN	-3.304	1.630	9.370	1506.227	1504.029	1509.158	3.954	0.519	-7.160	-6.124	-0.230	8.191
390502.838	NaN	-3.315	1.620	9.380	1504.029	1503.297	1510.623	3.756	0.565	-7.115	-6.048	-0.306	8.268
390503.815	NaN	-3.304	1.630	9.380	1506.227	1504.029	1509.890	3.985	0.473	-7.206	-5.895	-0.153	8.344
390504.791	NaN	-3.304	1.630	9.370	1506.227	1503.297	1509.890	4.137	0.397	-7.313	-5.971	-0.153	8.344
390505.768	NaN	-3.293	1.630	9.359	1506.227	1504.029	1509.158	3.939	0.351	-7.374	-5.971	-0.153	8.268
390506.744	NaN	-3.293	1.630	9.348	1505.495	1504.029	1509.158	3.756	0.427	-7.313	-5.895	-0.153	8.191
390507.721	NaN	-3.293	1.641	9.348	1506.227	1504.762	1509.890	3.740	0.519	-7.084	-5.895	-0.230	8.344
390508.698	NaN	-3.293	1.641	9.337	1505.495	1504.029	1510.623	3.649	0.733	-7.115	-5.895	-0.153	8.344
390509.674	NaN	-3.293	1.652	9.337	1505.495	1503.297	1509.890	3.802	0.718	-7.221	-6.048	-0.153	8.191
390510.651	NaN	-3.304	1.652	9.348	1504.762	1504.762	1509.158	3.893	0.519	-7.084	-5.971	-0.230	8.268
390511.627	NaN	-3.304	1.652	9.348	1506.227	1504.762	1509.890	3.939	0.473	-7.221	-6.124	-0.230	8.421
390512.604	NaN	-3.304	1.663	9.348	1505.495	1503.297	1509.890	4.092	0.550	-7.221	-5.895	-0.153	8.344
390513.580	NaN	-3.304	1.663	9.337	1505.495	1504.029	1509.158	4.107	0.473	-7.298	-6.048	-0.153	8.268
390514.557	NaN	-3.315	1.652	9.337	1504.762	1504.029	1510.623	4.015	0.595	-7.252	-6.124	-0.153	8.344
390515.533	NaN	-3.304	1.641	9.337	1505.495	1504.762	1509.890	3.939	0.489	-7.145	-6.124	-0.230	8.344
390516.510	NaN	-3.304	1.641	9.348	1504.762	1504.029	1511.355	3.893	0.534	-7.160	-6.124	-0.153	8.344
390517.487	NaN	-3.293	1.641	9.348	1505.495	1504.029	1510.623	3.847	0.763	-7.206	-6.048	-0.153	8.268
390518.463	NaN	-3.304	1.641	9.348	1505.495	1504.029	1510.623	3.893	0.809	-7.069	-5.971	-0.306	8.191
390519.440	NaN	-3.315	1.641	9.348	1505.495	1502.564	1509.158	4.000	0.550	-6.992	-5.971	-0.077	8.344
390520.416	NaN	-3.293	1.652	9.337	1506.227	1504.029	1509.890	4.061	0.198	-6.977	-6.124	-0.077	8.268
390521.393	NaN	-3.293	1.641	9.337	1506.227	1504.029	1509.890	4.107	0.244	-7.298	-5.971	-0.230	8.344
390522.369	NaN	-3.293	1.641	9.337	1505.495	1504.029	1510.623	4.015	0.534	-7.344	-6.048	-0.230	8.268
390523.346	NaN	-3.293	1.630	9.337	1504.762	1504.029	1510.623	3.802	0.687	-7.282	-5.895	-0.230	8.268
390524.323	NaN	-3.293	1.630	9.337	1504.762	1505.495	1510.623	3.908	0.580	-7.267	-5.971	-0.153	8.268
390525.299	NaN	-3.293	1.641	9.348	1505.495	1504.762	1509.890	4.015	0.519	-7.145	-5.971	-0.077	8.268
390526.276	NaN	-3.304	1.641	9.359	1504.762	1504.762	1512.088	3.847	0.473	-7.130	-5.971	-0.306	8.268
390527.252	NaN	-3.304	1.641	9.348	1505.495	1503.297	1508.425	4.076	0.260	-7.206	-6.048	-0.230	8.268
390528.229	NaN	-3.293	1.641	9.359	1505.495	1504.762	1510.623	3.832	0.214	-7.084	-5.971	-0.230	8.268
390529.205	NaN	-3.293	1.663	9.348	1506.227	1504.762	1510.623	3.740	0.321	-7.023	-5.971	-0.306	8.268
390530.182	NaN	-3.293	1.663	9.359	1504.762	1504.029	1510.623	3.557	0.473	-6.977	-5.971	-0.306	8.268
390531.158	NaN	-3.293	1.663	9.370	1506.227	1504.029	1509.890	3.771	0.672	-7.008	-6.048	-0.306	8.268
390532.135	NaN	-3.304	1.652	9.370	1506.227	1504.029	1509.158	3.832	0.519	-7.053	-6.048	-0.153	8.268
390533.112	NaN	-3.304	1.652	9.370	1506.227	1503.297	1509.890	3.939	0.473	-7.084	-5.971	-0.230	8.344
390534.088	NaN	-3.304	1.652	9.359	1504.762	1503.297	1509.890	4.015	0.473	-7.160	-6.124	-0.077	8.268
390535.065	NaN	-3.304	1.652	9.370	1504.762	1502.564	1510.623	4.214	0.534	-7.053	-6.048	-0.230	8.344
390536.041	NaN	-3.293	1.663	9.359	1506.227	1504.029	1510.623	4.000	0.458	-7.069	-5.971	-0.230	8.268
390537.018	3736847300.358	-3.293	1.652	9.359	1504.762	1503.297	1509.158	3.847	0.458	-7.328	-5.971	-0.153	8.191
390537.994	NaN	-3.293	1.652	9.359	1504.762	1505.495	1509.158	3.847	0.580	-7.176	-5.971	-0.306	8.344
390538.971	NaN	-3.293	1.641	9.348	1504.762	1503.297	1508.425	3.954	0.458	-7.099	-6.201	-0.230	8.344
390539.948	NaN	-3.304	1.663	9.348	1503.297	1502.564	1509.158	3.878	0.412	-7.206	-5.971	-0.153	8.191
390540.924	NaN	-3.293	1.663	9.348	1506.227	1503.297	1509.890	3.969	0.580	-7.160	-6.048	-0.153	8.268
390541.901	NaN	-3.304	1.641	9.337	1505.495	1503.297	1511.355	3.969	0.458	-7.160	-5.971	-0.153	8.191
390542.877	NaN	-3.293	1.652	9.348	1506.227	1504.762	1510.623	3.985	0.321	-7.221	-5.971	-0.153	8.191
390543.854	NaN	-3.293	1.641	9.359	1504.762	1503.297	1509.890	4.061	0.473	-7.053	-5.971	-0.077	8.191
390544.830	NaN	-3.293	1.652	9.370	1503.297	1504.029	1509.890	3.893	0.550	-6.885	-5.895	-0.153	8.268
390545.807	NaN	-3.293	1.652	9.359	1504.762	1504.029	1509.158	3.908	0.550	-6.901	-6.048	-0.153	8.191
390546.783	NaN	-3.304	1.663	9.348	1506.227	1504.029	1511.355	4.092	0.504	-7.160	-6.048	-0.230	8.268
390547.760	NaN	-3.293	1.663	9.348	1505.495	1504.029	1510.623	4.046	0.412	-7.206	-5.971	-0.153	8.268
390548.737	NaN	-3.293	1.663	9.348	1505.495	1504.762	1509.890	4.061	0.427	-7.206	-6.048	-0.306	8.268
390549.713	NaN	-3.304	1.652	9.348	1505.495	1504.029	1510.623	3.954	0.504	-7.252	-6.124	-0.153	8.268
390550.690	NaN	-3.315	1.652	9.359	1505.495	1504.762	1509.158	4.107	0.458	-7.267	-5.971	-0.077	8.268
390551.666	NaN	-3.304	1.652	9.370	1506.227	1504.029	1510.623	4.153	0.489	-7.115	-5.971	-0.153	8.191
390552.643	NaN	-3.293	1.641	9.380	1506.227	1504.029	1509.890	4.168	0.489	-6.840	-6.048	-0.153	8.344
390553.619	NaN	-3.293	1.630	9.370	1504.762	1504.029	1510.623	4.061	0.519	-6.962	-5.971	-0.153	8.344
390554.596	NaN	-3.315	1.641	9.391	1506.227	1503.297	1510.623	3.786	0.534	-7.038	-6.048	-0.306	8.268
390555.573	NaN	-3.326	1.630	9.391	1505.495	1504.029	1511.355	3.740	0.427	-7.053	-6.048	-0.153	8.115
390556.549	NaN	-3.315	1.652	9.380	1505.495	1504.029	1509.890	4.061	0.473	-7.176	-6.124	-0.153	8.344
390557.526	NaN	-3.315	1.652	9.370	1505.495	1503.297	1509.158	4.046	0.427	-7.405	-5.971	-0.153	8.115
390558.502	NaN	-3.315	1.641	9.370	1504.029	1504.029	1510.623	3.954	0.443	-7.389	-5.971	-0.230	8.344
390559.479	NaN	-3.304	1.620	9.370	1504.029	1503.297	1509.158	3.847	0.382	-7.130	-5.971	-0.230	8.421
390560.455	NaN	-3.304	1.620	9.359	1504.762	1504.029	1509.158	4.015	0.489	-6.992	-5.971	-0.230	8.268
390561.432	NaN	-3.293	1.630	9.359	1505.495	1504.762	1511.355	3.908	0.504	-7.008	-5.971	-0.230	8.344
390562.408	NaN	-3.293	1.641	9.359	1504.762	1504.762	1511.355	4.183	0.290	-7.145	-5.971	-0.153	8.344
390563.385	NaN	-3.304	1.630	9.359	1505.495	1504.029	1510.623	4.229	0.382	-7.038	-5.895	-0.153	8.268
390564.362	NaN	-3.315	1.641	9.337	1503.297	1504.029	1509.158	3.878	0.519	-7.023	-6.048	-0.230	8.344
390565.338	NaN	-3.304	1.652	9.337	1505.495	1504.762	1509.890	3.740	0.565	-6.992	-6.048	-0.077	8.268
390566.315	NaN	-3.304	1.652	9.337	1505.495	1504.762	1509.890	4.015	0.534	-7.053	-5.895	-0.153	8.344
390567.291	NaN	-3.304	1.652	9.337	1504.762	1503.297	1509.890	4.092	0.519	-7.084	-6.048	-0.230	8.191
390568.268	NaN	-3.293	1.652	9.348	1504.762	1503.297	1509.890	4.076	0.519	-7.160	-5.895	-0.077	8.191
390569.244	NaN	-3.293	1.663	9.348	1505.495	1504.029	1510.623	4.107	0.656	-7.130	-6.048	-0.306	8.268
390570.221	NaN	-3.293	1.685	9.359	1505.495	1505.495	1510.623	3.893	0.550	-7.099	-5.971	-0.153	8.344
390571.198	NaN	-3.283	1.685	9.359	1503.297	1504.762	1511.355	3.878	0.229	-7.099	-5.895	-0.077	8.344
390572.174	NaN	-3.293	1.674	9.348	1504.762	1504.029	1510.623	4.092	0.290	-7.099	-5.971	-0.077	8.344
390573.151	NaN	-3.283	1.663	9.348	1505.495	1503.297	1509.890	4.260	0.534	-7.191	-6.048	-0.230	8.268
390574.127	NaN	-3.293	1.674	9.348	1505.495	1504.029	1509.890	3.969	0.611	-7.267	-6.048	-0.153	8.191
390575.104	NaN	-3.293	1.674	9.359	1504.762	1502.564	1509.890	3.695	0.626	-7.160	-6.048	-0.306	8.268
390576.080	NaN	-3.283	1.674	9.370	1504.762	1504.029	1509.890	3.725	0.489	-7.252	-6.048	-0.153	8.344
390577.057	NaN	-3.283	1.663	9.359	1504.762	1504.029	1509.890	3.954	0.336	-7.328	-6.048	-0.153	8.344
390578.033	NaN	-3.272	1.663	9.359	1506.227	1504.029	1509.890	4.015	0.397	-7.267	-5.971	-0.153	8.268
390579.010	NaN	-3.272	1.663	9.359	1505.495	1504.029	1509.890	4.198	0.504	-7.237	-6.048	-0.306	8.344
390579.987	NaN	-3.283	1.674	9.370	1506.227	1504.029	1509.890	4.137	0.534	-7.191	-6.048	-0.153	8.268
390580.963	NaN	-3.293	1.674	9.359	1505.495	1504.762	1509.890	3.893	0.534	-7.099	-6.048	-0.153	8.421
390581.940	NaN	-3.304	1.663	9.359	1505.495	1504.762	1510.623	3.802	0.565	-7.084	-5.971	-0.153	8.268
390582.916	NaN	-3.293	1.663	9.359	1505.495	1504.029	1511.355	3.756	0.611	-7.160	-5.971	-0.077	8.344
390583.893	NaN	-3.315	1.652	9.348	1505.495	1503.297	1509.890	3.908	0.656	-7.267	-6.048	-0.230	8.268
390584.869	NaN	-3.304	1.663	9.348	1504.029	1503.297	1508.425	3.695	0.779	-7.176	-5.971	-0.077	8.344
390585.846	NaN	-3.293	1.674	9.348	1505.495	1503.297	1510.623	3.679	0.763	-7.130	-6.124	-0.153	8.421
390586.823	NaN	-3.304	1.663	9.337	1506.227	1504.029	1511.355	3.832	0.580	-7.130	-5.971	-0.153	8.268
390587.799	NaN	-3.293	1.663	9.348	1506.227	1504.762	1510.623	3.863	0.397	-7.160	-5.971	-0.230	8.268
390588.776	NaN	-3.304	1.652	9.348	1505.495	1504.029	1508.425	3.908	0.427	-7.038	-5.971	-0.230	8.421
390589.752	NaN	-3.304	1.652	9.359	1504.762	1502.564	1509.890	3.695	0.580	-6.992	-5.971	-0.077	8.191
390590.729	NaN	-3.283	1.652	9.370	1504.029	1503.297	1509.890	3.664	0.565	-7.008	-5.971	-0.153	8.344
390591.705	NaN	-3.293	1.663	9.359	1506.227	1504.762	1511.355	3.893	0.458	-7.023	-5.895	-0.230	8.268
390592.682	NaN	-3.293	1.674	9.359	1506.227	1504.029	1510.623	3.969	0.397	-7.053	-6.048	-0.077	8.421
390593.658	NaN	-3.304	1.674	9.359	1505.495	1504.762	1508.425	3.985	0.427	-7.023	-5.818	-0.230	8.344
390594.635	NaN	-3.304	1.663	9.359	1503.297	1502.564	1509.890	3.908	0.351	-7.023	-5.971	-0.230	8.191
390595.612	NaN	-3.304	1.663	9.348	1506.227	1504.029	1509.158	3.725	0.382	-7.252	-6.124	-0.153	8.268
390596.588	NaN	-3.293	1.663	9.359	1505.495	1504.762	1509.890	3.573	0.397	-7.221	-5.818	-0.153	8.191
390597.565	NaN	-3.293	1.663	9.359	1504.762	1504.029	1509.158	3.649	0.382	-7.221	-5.971	-0.306	8.268
390598.541	NaN	-3.293	1.641	9.348	1505.495	1504.762	1509.158	3.954	0.458	-7.176	-5.895	-0.230	8.344
390599.518	NaN	-3.304	1.641	9.359	1504.762	1503.297	1510.623	3.771	0.519	-7.130	-5.895	-0.153	8.344
390600.494	NaN	-3.304	1.641	9.337	1505.495	1504.762	1511.355	3.695	0.595	-7.237	-6.124	-0.230	8.421
390601.471	NaN	-3.293	1.641	9.337	1505.495	1504.029	1509.890	4.015	0.489	-7.160	-5.818	-0.153	8.268
390602.448	NaN	-3.293	1.652	9.337	1504.762	1504.762	1509.890	4.137	0.473	-7.160	-5.895	-0.230	8.268
390603.424	NaN	-3.304	1.652	9.337	1504.762	1503.297	1509.890	4.122	0.656	-7.130	-6.124	-0.230	8.421
390604.401	NaN	-3.304	1.652	9.337	1504.029	1504.029	1509.890	3.863	0.702	-7.008	-5.971	-0.230	8.191
390605.377	NaN	-3.293	1.652	9.326	1505.495	1504.029	1509.158	3.954	0.702	-7.053	-6.048	0.000	8.191
390606.354	NaN	-3.283	1.652	9.326	1504.762	1504.762	1510.623	4.153	0.580	-7.130	-5.971	-0.153	8.344
390607.330	NaN	-3.304	1.630	9.348	1504.762	1503.297	1509.890	4.061	0.595	-7.099	-6.048	-0.306	8.115
390608.307	NaN	-3.304	1.641	9.348	1505.495	1503.297	1511.355	3.832	0.443	-7.084	-6.048	-0.230	8.268
390609.283	NaN	-3.293	1.641	9.359	1506.227	1504.029	1509.890	3.939	0.565	-7.008	-6.048	-0.230	8.268
390610.260	NaN	-3.283	1.641	9.359	1504.762	1504.029	1510.623	3.847	0.656	-7.145	-6.124	-0.230	8.344
390611.237	NaN	-3.283	1.652	9.348	1506.227	1503.297	1510.623	3.863	0.519	-7.176	-6.048	-0.230	8.191
390612.213	NaN	-3.304	1.652	9.348	1504.762	1504.029	1509.890	3.878	0.611	-7.206	-6.048	-0.230	8.344
390613.190	NaN	-3.304	1.663	9.359	1505.495	1504.029	1509.890	3.985	0.779	-7.313	-5.971	0.000	8.344
390614.166	NaN	-3.293	1.663	9.359	1506.227	1504.762	1510.623	4.092	0.672	-7.130	-5.895	-0.153	8.268
390615.143	NaN	-3.283	1.674	9.359	1505.495	1504.029	1510.623	4.061	0.489	-7.252	-5.971	-0.077	8.268
390616.119	NaN	-3.283	1.663	9.359	1506.227	1504.762	1510.623	3.939	0.580	-7.298	-5.971	-0.153	8.268
390617.096	NaN	-3.283	1.663	9.359	1506.227	1504.762	1510.623	3.542	0.519	-7.176	-5.971	-0.153	8.344
390618.073	NaN	-3.304	1.652	9.348	1506.960	1504.029	1509.158	3.527	0.321	-7.099	-5.971	-0.230	8.498
390619.049	NaN	-3.304	1.663	9.359	1505.495	1504.762	1510.623	3.924	0.412	-7.115	-5.971	-0.383	8.268
390620.026	NaN	-3.293	1.663	9.359	1504.762	1504.762	1510.623	3.985	0.641	-7.115	-5.971	-0.153	8.344
390621.002	NaN	-3.304	1.663	9.359	1504.762	1505.495	1509.890	3.847	0.718	-6.931	-6.048	-0.230	8.344
390621.979	NaN	-3.315	1.652	9.359	1504.762	1503.297	1510.623	3.618	0.565	-6.794	-6.048	-0.230	8.268
390622.955	NaN	-3.304	1.652	9.348	1505.495	1504.029	1510.623	3.649	0.473	-7.115	-5.971	-0.230	8.344
390623.932	NaN	-3.304	1.652	9.359	1506.227	1504.029	1509.158	3.863	0.504	-7.145	-5.818	-0.153	8.268
390624.908	NaN	-3.304	1.652	9.359	1505.495	1504.029	1509.890	3.863	0.519	-7.084	-5.895	-0.153	8.268
390625.885	NaN	-3.304	1.652	9.359	1505.495	1504.029	1509.158	3.908	0.550	-7.206	-6.048	-0.306	8.191
390626.862	NaN	-3.304	1.641	9.359	1506.227	1504.762	1509.890	3.740	0.550	-7.252	-5.895	-0.153	8.268
390627.838	NaN	-3.293	1.641	9.359	1506.227	1505.495	1509.890	3.740	0.687	-7.115	-5.895	-0.230	8.344
390628.815	NaN	-3.283	1.652	9.359	1506.227	1504.029	1511.355	3.695	0.702	-7.069	-5.895	-0.230	8.421
390629.791	NaN	-3.272	1.630	9.359	1505.495	1503.297	1511.355	3.771	0.626	-7.130	-6.048	-0.077	8.344
390630.768	NaN	-3.272	1.630	9.348	1505.495	1503.297	1510.623	3.817	0.519	-6.916	-6.048	-0.230	8.115
390631.744	NaN	-3.283	1.641	9.337	1506.227	1504.029	1510.623	3.908	0.534	-6.977	-6.048	-0.153	8.268
390632.721	NaN	-3.283	1.641	9.359	1505.495	1503.297	1509.890	4.000	0.473	-7.008	-5.971	-0.077	8.344
390633.698	NaN	-3.283	1.641	9.359	1505.495	1504.029	1511.355	3.863	0.473	-7.099	-5.971	-0.153	8.344
390634.674	NaN	-3.293	1.652	9.359	1505.495	1503.297	1510.623	3.771	0.580	-7.389	-5.818	-0.153	8.191
390635.651	NaN	-3.315	1.641	9.348	1505.495	1503.297	1509.890	3.954	0.611	-7.282	-6.048	-0.077	8.191
390636.627	NaN	-3.293	1.641	9.348	1506.227	1505.495	1509.890	3.939	0.565	-7.160	-6.048	-0.077	8.268
390637.604	NaN	-3.304	1.641	9.348	1505.495	1504.762	1509.890	4.015	0.611	-7.069	-6.048	-0.153	8.344
390638.580	NaN	-3.304	1.652	9.348	1506.227	1504.029	1509.890	4.061	0.550	-7.099	-5.971	-0.153	8.268
390639.557	NaN	-3.293	1.641	9.337	1505.495	1504.029	1509.890	3.771	0.565	-7.191	-5.971	-0.306	8.344
390640.533	NaN	-3.293	1.641	9.326	1506.227	1504.029	1509.890	3.573	0.656	-7.115	-5.818	-0.153	8.344
390641.510	NaN	-3.283	1.652	9.337	1506.227	1504.029	1510.623	3.466	0.611	-7.099	-6.048	-0.077	8.268
390642.487	NaN	-3.283	1.641	9.326	1505.495	1504.762	1510.623	3.679	0.519	-7.328	-5.818	-0.077	8.268
390643.463	NaN	-3.283	1.641	9.326	1505.495	1504.762	1510.623	3.710	0.550	-7.328	-5.895	0.000	8.268
390644.440	NaN	-3.283	1.641	9.315	1504.762	1504.029	1509.890	3.618	0.595	-7.099	-5.895	-0.306	8.268
390645.416	NaN	-3.272	1.652	9.337	1506.227	1504.762	1509.890	3.588	0.611	-7.099	-5.895	-0.230	8.191
390646.393	NaN	-3.283	1.652	9.348	1506.960	1503.297	1509.890	3.756	0.718	-7.176	-6.048	0.077	8.191
390647.369	NaN	-3.293	1.652	9.359	1504.762	1504.762	1509.890	3.832	0.824	-7.221	-5.971	-0.230	8.268
390648.346	NaN	-3.304	1.663	9.370	1504.762	1504.029	1509.890	4.046	0.656	-7.237	-6.201	-0.383	8.344
390649.323	NaN	-3.315	1.641	9.359	1506.227	1504.029	1509.158	4.137	0.458	-7.084	-5.971	-0.153	8.344
390650.299	NaN	-3.315	1.630	9.359	1505.495	1503.297	1510.623	4.061	0.321	-6.916	-5.971	-0.153	8.268
390651.276	NaN	-3.315	1.630	9.359	1505.495	1503.297	1510.623	3.878	0.290	-7.038	-5.895	-0.153	8.191
390652.252	NaN	-3.293	1.641	9.380	1505.495	1503.297	1510.623	3.679	0.382	-7.069	-6.048	-0.306	8.344
390653.229	NaN	-3.293	1.630	9.370	1506.227	1504.029	1510.623	3.710	0.412	-6.962	-5.895	-0.153	8.191
390654.205	NaN	-3.304	1.630	9.370	1506.227	1503.297	1508.425	4.031	0.641	-6.931	-5.971	-0.230	8.191
390655.182	NaN	-3.304	1.630	9.380	1504.762	1503.297	1509.890	4.031	0.916	-7.008	-5.895	-0.153	8.191
390656.158	NaN	-3.283	1.641	9.380	1505.495	1504.762	1509.890	3.817	0.809	-7.069	-5.971	-0.077	8.268
390657.135	NaN	-3.283	1.641	9.391	1504.762	1503.297	1509.158	3.817	0.626	-7.023	-5.971	-0.153	8.344
390658.112	NaN	-3.293	1.641	9.380	1504.762	1504.029	1508.425	3.756	0.550	-6.931	-5.895	-0.153	8.344
390659.088	NaN	-3.283	1.641	9.391	1505.495	1504.029	1508.425	3.786	0.489	-6.901	-5.971	-0.153	8.268
390660.065	NaN	-3.283	1.663	9.380	1505.495	1504.029	1510.623	3.771	0.656	-6.885	-5.895	-0.230	8.268
390661.041	NaN	-3.283	1.652	9.380	1505.495	1503.297	1509.890	4.000	0.733	-6.977	-5.895	-0.153	8.344
390662.018	NaN	-3.293	1.663	9.370	1505.495	1503.297	1509.158	4.061	0.504	-7.115	-5.818	-0.306	8.268
390662.994	NaN	-3.293	1.674	9.380	1504.762	1503.297	1508.425	4.076	0.382	-7.282	-5.895	-0.153	8.344
390663.971	NaN	-3.304	1.663	9.370	1505.495	1504.029	1509.158	3.924	0.580	-7.176	-5.971	-0.230	8.115
390664.948	NaN	-3.293	1.663	9.359	1505.495	1503.297	1510.623	3.618	0.824	-7.069	-6.048	-0.230	8.344
390665.924	NaN	-3.304	1.663	9.359	1505.495	1504.029	1509.890	3.664	0.733	-6.947	-5.895	-0.230	8.268
390666.901	NaN	-3.304	1.641	9.359	1504.762	1502.564	1508.425	3.847	0.565	-6.809	-6.048	0.000	8.268
390667.877	NaN	-3.293	1.652	9.370	1504.762	1504.029	1509.890	4.092	0.565	-7.023	-5.971	-0.306	8.344
390668.854	NaN	-3.315	1.630	9.370	1504.029	1503.297	1509.890	3.954	0.534	-7.267	-6.048	-0.077	8.498
390669.830	NaN	-3.315	1.641	9.359	1505.495	1502.564	1509.890	3.817	0.809	-7.206	-5.895	-0.153	8.268
390670.807	NaN	-3.293	1.641	9.359	1505.495	1502.564	1509.158	3.695	0.794	-7.038	-6.048	-0.153	8.268
390671.783	NaN	-3.283	1.652	9.348	1506.227	1504.029	1510.623	3.420	0.641	-6.931	-6.048	-0.153	8.344
390672.760	NaN	-3.293	1.641	9.348	1505.495	1503.297	1509.158	3.695	0.611	-7.008	-5.971	-0.230	8.344
390673.737	NaN	-3.283	1.652	9.359	1504.762	1504.029	1509.158	3.786	0.656	-6.947	-6.048	-0.230	8.344
390674.713	NaN	-3.283	1.652	9.370	1504.029	1502.564	1509.158	3.771	0.718	-6.992	-6.048	-0.230	8.268
390675.690	NaN	-3.283	1.641	9.380	1505.495	1504.029	1511.355	3.847	0.687	-7.038	-6.048	-0.230	8.191
390676.666	NaN	-3.283	1.641	9.380	1506.227	1502.564	1509.158	4.076	0.626	-7.008	-6.048	-0.153	8.268
390677.643	NaN	-3.283	1.652	9.370	1504.762	1504.029	1509.890	4.015	0.580	-6.947	-6.048	-0.230	8.344
390678.619	NaN	-3.283	1.641	9.380	1506.227	1504.029	1509.890	3.802	0.840	-6.763	-5.742	-0.077	8.268
390679.596	3736847300.503	-3.293	1.641	9.359	1506.227	1503.297	1510.623	3.786	0.977	-6.870	-5.971	-0.306	8.115
390680.573	NaN	-3.315	1.630	9.370	1504.762	1502.564	1509.890	4.000	1.008	-7.069	-5.971	-0.306	8.268
390681.549	NaN	-3.293	1.641	9.359	1506.227	1504.029	1510.623	4.107	0.901	-6.931	-5.971	-0.153	8.191
390682.526	NaN	-3.304	1.620	9.359	1505.495	1503.297	1511.355	3.924	0.718	-6.962	-6.124	-0.230	8.344
390683.502	NaN	-3.304	1.641	9.359	1504.762	1503.297	1508.425	3.817	0.779	-7.053	-6.048	-0.077	8.421
390684.479	NaN	-3.293	1.641	9.359	1506.960	1504.029	1509.890	3.740	0.809	-7.130	-5.971	-0.230	8.344
390685.455	NaN	-3.304	1.652	9.359	1504.762	1503.297	1508.425	3.817	0.733	-6.947	-6.048	-0.230	8.344
390686.432	NaN	-3.283	1.663	9.370	1504.762	1504.029	1509.890	3.771	0.794	-6.916	-6.048	-0.153	8.268
390687.408	NaN	-3.293	1.641	9.359	1504.762	1504.029	1509.890	3.756	0.824	-7.115	-6.124	-0.077	8.344
390688.385	NaN	-3.293	1.652	9.359	1504.762	1502.564	1510.623	4.214	0.855	-7.038	-6.048	-0.153	8.191
390689.362	NaN	-3.293	1.652	9.359	1505.495	1503.297	1509.890	4.214	0.748	-6.962	-6.048	-0.153	8.191
390690.338	NaN	-3.293	1.652	9.348	1505.495	1502.564	1509.158	3.985	0.656	-6.931	-6.048	-0.230	8.344
390691.315	NaN	-3.283	1.663	9.348	1506.227	1504.762	1509.890	3.786	0.733	-6.916	-5.895	-0.153	8.344
390692.291	NaN	-3.293	1.652	9.348	1506.227	1503.297	1510.623	3.756	0.702	-6.977	-5.895	-0.153	8.268
390693.268	NaN	-3.293	1.652	9.348	1506.227	1503.297	1510.623	3.679	0.565	-6.901	-6.048	-0.153	8.421
390694.244	NaN	-3.293	1.652	9.348	1504.762	1504.762	1509.158	3.832	0.580	-6.931	-5.971	-0.153	8.344
390695.221	NaN	-3.283	1.652	9.348	1505.495	1504.762	1509.890	4.000	0.733	-6.977	-5.971	-0.306	8.268
390696.198	NaN	-3.293	1.641	9.348	1506.960	1503.297	1510.623	3.969	0.885	-6.855	-6.124	-0.153	8.344
390697.174	NaN	-3.293	1.652	9.359	1505.495	1504.029	1511.355	3.847	0.977	-6.687	-5.818	-0.077	8.344
390698.151	NaN	-3.304	1.641	9.348	1505.495	1503.297	1509.890	3.740	0.763	-6.901	-5.895	-0.230	8.268
390699.127	NaN	-3.293	1.641	9.359	1506.227	1503.297	1509.890	3.863	0.519	-6.992	-6.048	-0.230	8.268
390700.104	NaN	-3.283	1.652	9.348	1505.495	1504.762	1510.623	3.878	0.656	-6.962	-5.971	-0.230	8.344
390701.080	NaN	-3.283	1.663	9.359	1505.495	1504.029	1510.623	3.740	0.611	-6.840	-6.048	-0.230	8.268
390702.057	NaN	-3.272	1.652	9.359	1504.762	1504.029	1509.890	3.802	0.626	-6.992	-5.895	-0.153	8.268
390703.033	NaN	-3.283	1.641	9.359	1505.495	1504.762	1509.890	4.031	0.809	-7.008	-5.971	-0.230	8.191
390704.010	NaN	-3.283	1.641	9.359	1505.495	1504.762	1511.355	4.000	0.824	-6.901	-5.895	-0.153	8.268
390704.987	NaN	-3.283	1.641	9.359	1506.960	1504.029	1510.623	3.786	0.870	-6.947	-5.895	-0.153	8.191
390705.963	NaN	-3.283	1.652	9.359	1505.495	1504.029	1510.623	3.817	0.718	-7.023	-6.048	0.000	8.421
390706.940	NaN	-3.293	1.641	9.359	1506.227	1503.297	1509.890	3.985	0.489	-6.962	-5.971	-0.306	8.268
390707.916	NaN	-3.293	1.641	9.370	1504.029	1503.297	1509.890	4.031	0.687	-6.962	-5.895	-0.230	8.344
390708.893	NaN	-3.293	1.652	9.370	1505.495	1503.297	1510.623	3.725	0.901	-7.038	-5.971	-0.306	8.344
390709.869	NaN	-3.293	1.652	9.359	1505.495	1504.762	1509.158	3.649	0.809	-7.191	-5.971	-0.077	8.344
390710.846	NaN	-3.293	1.641	9.359	1505.495	1504.029	1510.623	3.939	0.779	-6.992	-5.971	-0.230	8.268
390711.823	NaN	-3.304	1.641	9.359	1504.762	1503.297	1510.623	3.985	0.855	-6.809	-5.971	-0.230	8.191
390712.799	NaN	-3.272	1.663	9.380	1504.762	1504.762	1510.623	3.863	0.748	-6.885	-5.895	-0.153	8.191
390713.776	NaN	-3.283	1.652	9.380	1504.762	1504.029	1509.158	4.015	0.718	-6.824	-6.048	-0.230	8.268
390714.752	NaN	-3.272	1.663	9.370	1505.495	1504.029	1510.623	4.336	0.702	-6.687	-6.124	-0.306	8.344
390715.729	NaN	-3.283	1.641	9.348	1504.762	1504.029	1509.890	4.229	0.748	-6.794	-5.971	-0.077	8.268
390716.705	NaN	-3.272	1.652	9.348	1506.227	1504.029	1511.355	3.908	0.733	-7.038	-6.048	-0.077	8.344
390717.682	NaN	-3.283	1.641	9.359	1505.495	1503.297	1509.890	3.893	0.763	-7.099	-5.818	-0.230	8.344
390718.658	NaN	-3.293	1.652	9.348	1506.227	1504.029	1509.890	3.802	0.641	-7.069	-5.971	-0.306	8.191
390719.635	NaN	-3.283	1.652	9.359	1506.227	1503.297	1510.623	3.786	0.702	-7.084	-5.971	-0.230	8.268
390720.612	NaN	-3.293	1.641	9.370	1506.227	1504.029	1509.890	3.740	0.870	-7.069	-5.971	-0.153	8.191
390721.588	NaN	-3.283	1.641	9.370	1506.227	1504.029	1511.355	3.954	0.809	-7.160	-6.048	-0.153	8.268
390722.565	NaN	-3.272	1.652	9.359	1505.495	1504.762	1510.623	3.908	0.611	-7.008	-5.895	-0.153	8.344
390723.541	NaN	-3.272	1.641	9.359	1504.762	1504.762	1510.623	3.817	0.565	-6.733	-5.971	0.000	8.191
390724.518	NaN	-3.272	1.630	9.359	1504.762	1504.762	1509.890	3.847	0.779	-6.779	-5.895	-0.230	8.191
390725.494	NaN	-3.283	1.630	9.359	1506.227	1504.029	1511.355	4.000	0.885	-6.794	-5.971	-0.230	8.115
390726.471	NaN	-3.272	1.630	9.359	1504.029	1503.297	1511.355	3.817	0.824	-6.992	-5.971	-0.230	8.268
390727.448	NaN	-3.272	1.641	9.359	1504.762	1503.297	1510.623	3.847	0.733	-7.008	-5.895	-0.153	8.344
390728.424	NaN	-3.283	1.641	9.370	1505.495	1503.297	1509.890	3.924	0.672	-6.931	-5.971	-0.153	8.268
390729.401	NaN	-3.304	1.641	9.370	1504.762	1503.297	1509.890	4.000	0.855	-6.840	-6.048	-0.077	8.344
390730.377	NaN	-3.293	1.652	9.380	1506.227	1504.762	1510.623	3.878	0.916	-6.885	-5.971	-0.153	8.344
390731.354	NaN	-3.293	1.641	9.402	1505.495	1504.762	1510.623	3.969	0.870	-7.008	-6.124	-0.230	8.344
390732.330	NaN	-3.283	1.641	9.402	1505.495	1504.029	1509.890	3.985	0.718	-7.038	-5.971	-0.306	8.344
390733.307	NaN	-3.283	1.630	9.391	1505.495	1504.029	1509.890	3.847	0.687	-6.840	-5.818	-0.153	8.344
390734.283	NaN	-3.283	1.641	9.380	1504.762	1502.564	1507.692	4.046	0.733	-6.901	-5.971	-0.153	8.191
390735.260	NaN	-3.272	1.652	9.380	1505.495	1504.029	1512.088	3.832	0.748	-7.099	-5.895	-0.077	8.344
390736.237	NaN	-3.272	1.641	9.370	1505.495	1504.762	1510.623	3.863	0.718	-7.023	-6.048	-0.230	8.498
390737.213	NaN	-3.261	1.641	9.370	1505.495	1504.029	1510.623	3.847	0.840	-6.916	-5.971	-0.306	8.344
390738.190	NaN	-3.283	1.652	9.359	1505.495	1503.297	1510.623	3.679	0.809	-6.779	-5.971	-0.153	8.115
390739.166	NaN	-3.272	1.663	9.348	1504.762	1504.762	1510.623	3.908	0.794	-6.870	-5.971	-0.153	8.344
390740.143	NaN	-3.261	1.663	9.348	1505.495	1504.762	1510.623	4.229	0.718	-6.962	-5.971	0.000	8.344
390741.119	NaN	-3.272	1.652	9.337	1505.495	1504.029	1509.890	4.000	0.885	-7.145	-5.971	-0.230	8.421
390742.096	NaN	-3.283	1.663	9.348	1504.029	1503.297	1509.890	3.664	0.840	-7.206	-5.895	-0.077	8.268
390743.073	NaN	-3.293	1.663	9.348	1506.227	1504.029	1510.623	3.649	0.718	-6.962	-6.048	-0.230	8.344
390744.049	NaN	-3.283	1.663	9.359	1505.495	1505.495	1510.623	3.908	0.412	-6.656	-6.048	-0.230	8.268
390745.026	NaN	-3.293	1.674	9.348	1505.495	1504.029	1509.158	4.015	0.626	-6.748	-5.895	-0.230	8.268
390746.002	NaN	-3.304	1.674	9.348	1504.762	1504.762	1509.890	3.924	0.916	-6.931	-5.971	-0.153	8.191
390746.979	NaN	-3.315	1.674	9.348	1505.495	1504.762	1511.355	3.924	0.977	-6.885	-5.895	-0.077	8.268
390747.955	NaN	-3.304	1.674	9.337	1506.960	1503.297	1509.890	3.985	0.809	-6.748	-5.971	-0.077	8.268
390748.932	NaN	-3.304	1.663	9.337	1505.495	1504.029	1509.158	3.924	0.809	-6.626	-6.048	-0.230	8.191
390749.908	NaN	-3.283	1.663	9.348	1504.762	1503.297	1509.890	3.969	0.672	-6.718	-6.048	-0.230	8.421
390750.885	NaN	-3.293	1.663	9.348	1506.227	1503.297	1509.890	3.954	0.672	-7.053	-5.971	-0.230	8.191
390751.862	NaN	-3.304	1.652	9.348	1506.960	1504.029	1510.623	3.756	0.931	-7.084	-5.895	-0.306	8.421
390752.838	NaN	-3.304	1.652	9.370	1505.495	1504.029	1510.623	3.634	1.023	-7.069	-5.971	-0.153	8.268
390753.815	NaN	-3.283	1.663	9.370	1505.495	1504.029	1509.158	3.847	1.023	-6.870	-6.048	-0.153	8.268
390754.791	NaN	-3.272	1.663	9.359	1506.227	1503.297	1511.355	4.031	0.916	-6.916	-5.971	-0.230	8.344
390755.768	NaN	-3.272	1.652	9.359	1505.495	1504.029	1510.623	3.985	0.733	-6.992	-5.895	-0.153	8.421
390756.744	NaN	-3.272	1.663	9.359	1505.495	1504.762	1510.623	4.031	0.626	-6.931	-5.895	-0.077	8.268
390757.721	NaN	-3.283	1.652	9.359	1505.495	1504.762	1509.158	4.107	0.840	-6.977	-6.048	-0.153	8.115
390758.698	NaN	-3.293	1.652	9.359	1506.227	1504.029	1511.355	3.985	0.733	-7.115	-5.895	-0.230	8.268
390759.674	NaN	-3.293	1.652	9.348	1505.495	1504.029	1511.355	4.031	0.763	-7.053	-5.971	-0.306	8.268
390760.651	NaN	-3.315	1.641	9.348	1504.762	1504.029	1509.158	4.122	0.748	-6.885	-6.124	-0.153	8.344
390761.627	NaN	-3.315	1.663	9.337	1505.495	1504.762	1509.158	4.061	0.885	-6.794	-5.971	-0.230	8.344
390762.604	NaN	-3.315	1.674	9.337	1505.495	1504.029	1510.623	3.985	0.885	-6.840	-6.048	-0.230	8.191
390763.580	NaN	-3.315	1.674	9.337	1505.495	1504.762	1510.623	3.832	0.748	-6.901	-5.971	-0.153	8.421
390764.557	NaN	-3.315	1.663	9.337	1505.495	1504.762	1509.158	3.756	0.916	-6.885	-5.971	-0.153	8.191
390765.533	NaN	-3.315	1.663	9.348	1505.495	1504.762	1509.158	3.847	0.901	-6.840	-5.971	-0.153	8.268
390766.510	NaN	-3.304	1.663	9.348	1504.762	1504.762	1509.158	3.847	0.809	-6.779	-5.971	-0.153	8.268
390767.487	NaN	-3.304	1.652	9.337	1506.227	1504.029	1509.158	3.878	0.809	-6.748	-5.971	-0.230	8.344
390768.463	NaN	-3.304	1.652	9.348	1504.762	1503.297	1509.890	4.000	0.901	-6.885	-5.971	-0.230	8.344
390769.440	NaN	-3.293	1.652	9.348	1504.029	1504.762	1509.890	4.137	0.977	-7.084	-5.971	-0.306	8.268
390770.416	NaN	-3.283	1.652	9.348	1506.227	1504.029	1509.890	3.832	0.962	-7.069	-6.048	-0.230	8.344
390771.393	NaN	-3.283	1.641	9.348	1506.227	1504.029	1509.890	3.817	0.855	-6.840	-5.971	-0.230	8.268
390772.369	NaN	-3.283	1.652	9.370	1506.227	1504.029	1509.890	4.000	0.962	-6.641	-6.048	-0.230	8.115
390773.346	NaN	-3.283	1.641	9.370	1505.495	1504.029	1510.623	4.214	0.931	-6.611	-6.048	-0.077	8.191
390774.323	NaN	-3.293	1.641	9.370	1504.029	1503.297	1509.158	4.153	0.687	-6.672	-5.971	-0.230	8.268
390775.299	NaN	-3.283	1.652	9.380	1504.762	1504.029	1509.890	3.786	0.702	-6.687	-5.971	-0.230	8.268
390776.276	NaN	-3.304	1.652	9.370	1504.762	1504.762	1510.623	3.695	0.916	-6.840	-6.048	-0.153	8.268
390777.252	NaN	-3.293	1.652	9.370	1505.495	1504.762	1509.890	3.893	1.069	-6.809	-6.124	-0.383	8.344
390778.229	NaN	-3.304	1.641	9.359	1504.762	1504.762	1512.088	4.076	0.962	-6.794	-6.048	-0.230	8.344
390779.205	NaN	-3.304	1.641	9.359	1506.227	1504.762	1509.158	4.000	0.779	-6.763	-6.048	-0.077	8.268
390780.182	NaN	-3.293	1.652	9.359	1504.762	1504.029	1509.890	3.847	0.824	-6.870	-6.124	-0.153	8.421
390781.158	NaN	-3.293	1.652	9.359	1503.297	1504.029	1510.623	3.939	0.977	-7.023	-5.895	-0.153	8.191
390782.135	NaN	-3.293	1.652	9.359	1506.227	1504.029	1509.158	4.153	1.069	-7.053	-5.895	-0.153	8.191
390783.112	NaN	-3.293	1.641	9.348	1506.227	1503.297	1509.890	4.076	0.992	-6.794	-5.971	-0.153	8.268
390784.088	NaN	-3.283	1.652	9.359	1505.495	1505.495	1510.623	3.771	0.977	-6.779	-6.048	-0.153	8.344
390785.065	NaN	-3.293	1.641	9.359	1506.227	1504.029	1510.623	3.634	0.947	-6.809	-5.818	-0.077	8.191
390786.041	NaN	-3.293	1.641	9.370	1505.495	1504.029	1509.890	3.756	0.916	-6.733	-6.124	-0.306	8.268
390787.018	3736847300.641	-3.304	1.641	9.380	1505.495	1503.297	1509.890	3.985	0.840	-7.069	-5.971	-0.230	8.268
390787.994	NaN	-3.315	1.652	9.370	1505.495	1504.029	1509.890	4.015	0.931	-7.084	-6.048	-0.077	8.115
390788.971	NaN	-3.315	1.652	9.370	1505.495	1503.297	1510.623	3.985	0.992	-6.885	-6.048	-0.153	8.268
390789.948	NaN	-3.304	1.652	9.370	1504.762	1503.297	1509.158	3.939	1.084	-6.824	-5.971	-0.077	8.421
390790.924	NaN	-3.293	1.652	9.370	1505.495	1504.029	1511.355	4.031	1.038	-6.885	-5.895	-0.230	8.268
390791.901	NaN	-3.315	1.641	9.359	1506.227	1504.029	1509.158	3.954	0.931	-6.824	-6.048	-0.306	8.268
390792.877	NaN	-3.293	1.620	9.359	1504.762	1502.564	1509.158	3.710	0.962	-6.702	-5.971	-0.077	8.268
390793.854	NaN	-3.293	1.630	9.359	1503.297	1504.029	1509.158	3.771	0.931	-6.656	-6.124	-0.153	8.344
390794.830	NaN	-3.283	1.641	9.370	1504.762	1504.762	1510.623	3.924	0.702	-6.779	-6.048	-0.306	8.268
390795.807	NaN	-3.293	1.630	9.359	1505.495	1502.564	1508.425	3.954	0.779	-6.748	-5.971	-0.383	8.268
390796.783	NaN	-3.293	1.641	9.359	1505.495	1504.029	1509.158	3.786	0.992	-6.779	-5.971	-0.153	8.268
390797.760	NaN	-3.283	1.641	9.359	1505.495	1504.762	1511.355	3.939	1.099	-6.931	-6.124	-0.306	8.268
390798.737	NaN	-3.293	1.641	9.359	1504.762	1504.029	1512.088	3.939	1.008	-6.962	-6.048	-0.230	8.191
390799.713	NaN	-3.293	1.630	9.359	1505.495	1503.297	1510.623	3.817	0.855	-7.038	-6.048	-0.230	8.191
390800.690	NaN	-3.293	1.630	9.359	1504.762	1504.762	1509.890	3.557	0.763	-6.916	-5.895	-0.230	8.268
390801.666	NaN	-3.283	1.652	9.348	1505.495	1504.029	1509.158	3.649	0.870	-6.779	-5.895	-0.077	8.268
390802.643	NaN	-3.283	1.652	9.359	1505.495	1504.029	1509.890	3.893	0.809	-6.992	-5.895	-0.153	8.498
390803.619	NaN	-3.283	1.663	9.370	1504.029	1504.029	1512.821	3.939	0.916	-6.977	-6.201	-0.153	8.421
390804.596	NaN	-3.283	1.652	9.359	1504.762	1504.029	1510.623	3.939	1.130	-6.977	-5.895	-0.230	8.191
390805.573	NaN	-3.293	1.663	9.348	1506.227	1504.029	1509.890	4.092	1.313	-6.794	-5.971	-0.230	8.421
390806.549	NaN	-3.293	1.652	9.348	1505.495	1504.762	1509.890	4.168	1.237	-6.718	-6.124	-0.230	8.344
390807.526	NaN	-3.283	1.663	9.337	1506.227	1504.029	1510.623	3.908	0.962	-6.763	-5.971	-0.077	8.268
390808.502	NaN	-3.293	1.652	9.337	1506.227	1504.029	1509.890	3.939	0.885	-6.885	-5.895	-0.230	8.191
390809.479	NaN	-3.293	1.641	9.337	1505.495	1504.029	1509.890	3.847	0.916	-6.840	-6.048	-0.306	8.191
390810.455	NaN	-3.293	1.663	9.337	1504.029	1504.029	1509.890	3.939	1.008	-6.992	-5.971	-0.153	8.344
390811.432	NaN	-3.272	1.674	9.359	1506.227	1504.029	1509.890	3.878	1.038	-6.901	-6.048	-0.383	8.268
390812.408	NaN	-3.283	1.663	9.370	1505.495	1503.297	1509.890	3.939	1.008	-6.885	-6.048	-0.077	8.268
390813.385	NaN	-3.272	1.663	9.370	1506.227	1504.029	1509.890	3.802	1.053	-6.809	-5.895	-0.153	8.268
390814.362	NaN	-3.272	1.641	9.370	1506.227	1504.029	1509.158	3.786	0.962	-6.794	-5.971	-0.153	8.191
390815.338	NaN	-3.261	1.652	9.370	1506.227	1504.029	1511.355	3.939	0.809	-6.977	-6.124	-0.306	8.268
390816.315	NaN	-3.272	1.652	9.359	1504.762	1504.029	1510.623	3.863	0.672	-6.855	-6.048	-0.230	8.268
390817.291	NaN	-3.283	1.663	9.370	1506.227	1504.029	1510.623	3.939	0.748	-6.656	-5.971	-0.306	8.421
390818.268	NaN	-3.304	1.652	9.370	1506.227	1503.297	1510.623	3.985	0.992	-6.763	-5.971	-0.153	8.421
390819.244	NaN	-3.304	1.663	9.359	1504.762	1504.029	1509.890	3.939	1.069	-6.947	-6.048	-0.230	8.268
390820.221	NaN	-3.315	1.641	9.359	1504.762	1504.029	1509.158	3.847	1.099	-6.947	-5.971	-0.153	8.268
390821.198	NaN	-3.315	1.652	9.370	1504.762	1502.564	1510.623	3.771	1.023	-6.947	-6.048	-0.077	8.344
390822.174	NaN	-3.304	1.652	9.370	1504.762	1504.029	1509.890	3.832	0.992	-6.916	-5.971	-0.153	8.268
390823.151	NaN	-3.293	1.641	9.359	1506.227	1503.297	1509.158	3.771	1.038	-6.763	-6.048	-0.153	8.191
390824.127	NaN	-3.293	1.641	9.359	1506.960	1503.297	1511.355	3.954	1.008	-6.473	-5.971	-0.230	8.268
390825.104	NaN	-3.293	1.641	9.348	1505.495	1503.297	1509.158	3.908	0.916	-6.534	-6.048	-0.153	8.344
390826.080	NaN	-3.283	1.641	9.348	1506.227	1504.029	1509.158	4.107	0.901	-6.687	-5.971	-0.230	8.268
390827.057	NaN	-3.304	1.630	9.348	1505.495	1504.029	1510.623	4.092	0.885	-6.763	-6.048	-0.153	8.344
390828.033	NaN	-3.304	1.630	9.348	1504.762	1504.029	1509.890	3.924	0.885	-6.779	-5.971	-0.230	8.268
390829.010	NaN	-3.293	1.641	9.370	1505.495	1504.762	1510.623	3.710	0.901	-6.595	-5.971	-0.230	8.191
390829.987	NaN	-3.315	1.641	9.359	1505.495	1504.029	1509.158	3.832	0.962	-6.687	-6.048	-0.153	8.344
390830.963	NaN	-3.315	1.652	9.380	1504.029	1503.297	1509.890	4.107	0.855	-6.931	-5.971	-0.230	8.421
390831.940	NaN	-3.304	1.663	9.380	1505.495	1503.297	1509.890	3.924	0.824	-6.626	-5.895	-0.153	8.344
390832.916	NaN	-3.304	1.663	9.370	1505.495	1504.762	1509.890	3.634	0.947	-6.397	-5.895	-0.153	8.268
390833.893	NaN	-3.304	1.652	9.370	1505.495	1504.029	1510.623	3.664	0.962	-6.672	-6.048	-0.230	8.115
390834.869	NaN	-3.315	1.652	9.359	1506.227	1504.029	1510.623	3.878	1.115	-6.794	-6.048	-0.077	8.268
390835.846	NaN	-3.315	1.652	9.348	1504.762	1504.762	1510.623	4.122	0.977	-6.733	-6.048	-0.230	8.344
390836.823	NaN	-3.315	1.652	9.337	1505.495	1504.029	1509.158	4.122	0.947	-6.611	-6.048	-0.153	8.421
390837.799	NaN	-3.293	1.652	9.348	1506.227	1504.029	1510.623	3.939	1.130	-6.794	-5.971	-0.153	8.344
390838.776	NaN	-3.293	1.663	9.337	1505.495	1504.762	1509.890	3.740	1.038	-6.855	-5.971	-0.153	8.268
390839.752	NaN	-3.293	1.641	9.348	1505.495	1504.762	1510.623	3.756	1.038	-6.824	-6.048	-0.383	8.344
390840.729	NaN	-3.304	1.630	9.348	1504.762	1503.297	1511.355	3.802	0.977	-6.931	-5.971	-0.077	8.268
390841.705	NaN	-3.304	1.641	9.348	1506.960	1504.029	1511.355	4.015	0.885	-6.840	-5.971	-0.230	8.344
390842.682	NaN	-3.304	1.641	9.348	1506.227	1504.029	1510.623	4.137	0.947	-6.672	-6.048	-0.153	8.268
390843.658	NaN	-3.304	1.641	9.348	1506.227	1503.297	1511.355	3.985	1.053	-6.626	-5.895	-0.153	8.344
390844.635	NaN	-3.293	1.652	9.359	1505.495	1504.029	1509.890	3.817	1.176	-6.748	-5.971	-0.306	8.344
390845.612	NaN	-3.293	1.641	9.370	1504.762	1502.564	1509.890	3.649	1.206	-6.992	-5.895	-0.230	8.191
390846.588	NaN	-3.283	1.652	9.370	1504.762	1503.297	1510.623	3.878	1.145	-7.084	-6.048	-0.306	8.191
390847.565	NaN	-3.293	1.641	9.370	1505.495	1504.762	1510.623	3.878	0.931	-7.023	-6.048	-0.230	8.191
390848.541	NaN	-3.293	1.652	9.359	1506.227	1504.762	1509.890	3.893	0.901	-6.840	-6.048	-0.077	8.268
390849.518	NaN	-3.293	1.641	9.370	1504.762	1503.297	1509.890	3.878	0.794	-6.779	-6.048	-0.153	8.268
390850.494	NaN	-3.304	1.641	9.370	1506.960	1504.762	1509.890	3.786	0.916	-6.718	-5.895	-0.230	8.268
390851.471	NaN	-3.304	1.641	9.370	1505.495	1504.029	1511.355	3.817	0.947	-6.656	-6.048	-0.077	8.268
390852.448	NaN	-3.304	1.641	9.370	1506.227	1503.297	1509.158	4.076	0.977	-6.718	-6.048	-0.230	8.268
390853.424	NaN	-3.293	1.641	9.359	1504.762	1504.029	1509.158	4.107	0.992	-6.855	-5.971	-0.153	8.344
390854.401	NaN	-3.304	1.641	9.359	1506.227	1504.029	1509.890	4.015	0.931	-6.840	-5.895	-0.153	8.344
390855.377	NaN	-3.293	1.652	9.359	1505.495	1504.762	1512.088	3.985	0.947	-6.641	-5.895	-0.153	8.498
390856.354	NaN	-3.304	1.663	9.359	1505.495	1503.297	1510.623	3.725	1.008	-6.626	-6.124	-0.077	8.191
390857.330	NaN	-3.304	1.663	9.370	1505.495	1504.029	1510.623	3.786	1.145	-6.824	-6.048	-0.230	8.191
390858.307	NaN	-3.293	1.663	9.370	1506.227	1503.297	1508.425	4.122	1.008	-7.023	-6.048	-0.306	8.191
390859.283	NaN	-3.304	1.663	9.359	1505.495	1503.297	1510.623	4.183	0.992	-6.962	-5.971	-0.153	8.191
390860.260	NaN	-3.304	1.663	9.370	1505.495	1504.762	1509.890	4.137	1.084	-6.870	-6.048	-0.230	8.191
390861.237	NaN	-3.304	1.652	9.380	1505.495	1504.029	1509.158	3.924	0.901	-6.901	-5.971	-0.230	8.191
390862.213	NaN	-3.304	1.641	9.359	1505.495	1503.297	1510.623	3.939	0.763	-6.870	-5.971	-0.077	8.344
390863.190	NaN	-3.315	1.630	9.359	1504.762	1504.029	1511.355	4.137	0.947	-6.855	-6.048	-0.230	8.344
390864.166	NaN	-3.304	1.641	9.348	1506.227	1504.762	1511.355	4.107	1.023	-6.840	-5.971	-0.153	8.344
390865.143	NaN	-3.315	1.641	9.348	1505.495	1504.029	1512.088	4.061	1.160	-6.656	-6.048	-0.306	8.268
390866.119	NaN	-3.315	1.652	9.348	1505.495	1504.029	1511.355	4.092	1.038	-6.580	-5.895	-0.306	8.344
390867.096	NaN	-3.315	1.652	9.348	1504.762	1504.029	1511.355	3.954	0.962	-6.672	-6.048	-0.306	8.191
390868.073	NaN	-3.315	1.652	9.337	1506.227	1504.029	1509.158	3.893	1.099	-6.489	-6.048	-0.230	8.191
390869.049	NaN	-3.293	1.663	9.348	1506.227	1504.029	1511.355	4.000	1.008	-6.580	-6.048	-0.153	8.191
390870.026	NaN	-3.293	1.652	9.359	1505.495	1504.029	1511.355	4.015	0.992	-6.718	-6.048	-0.077	8.268
390871.002	NaN	-3.293	1.652	9.359	1505.495	1504.762	1509.158	4.000	0.885	-6.595	-5.895	-0.230	8.268
390871.979	NaN	-3.304	1.641	9.359	1504.762	1504.029	1509.890	4.229	1.023	-6.595	-5.971	-0.153	8.191
390872.955	NaN	-3.283	1.641	9.370	1506.227	1504.762	1510.623	4.107	1.115	-6.565	-5.971	-0.077	8.344
390873.932	NaN	-3.293	1.641	9.370	1506.227	1503.297	1509.890	3.634	0.992	-6.687	-6.048	-0.230	8.344
390874.908	NaN	-3.293	1.630	9.370	1506.227	1504.029	1510.623	3.634	0.931	-6.763	-5.895	-0.153	8.421
390875.885	NaN	-3.293	1.630	9.370	1505.495	1504.762	1509.890	4.168	0.779	-6.763	-5.895	-0.153	8.268
390876.862	NaN	-3.293	1.630	9.370	1506.227	1504.029	1510.623	4.366	0.748	-6.641	-6.048	-0.153	8.344
390877.838	NaN	-3.293	1.641	9.380	1506.227	1504.029	1511.355	4.260	0.947	-6.687	-6.124	-0.077	8.115
390878.815	NaN	-3.304	1.641	9.370	1505.495	1503.297	1509.890	3.939	0.901	-6.702	-5.971	-0.153	8.268
390879.791	NaN	-3.283	1.652	9.370	1504.762	1503.297	1509.158	3.817	0.977	-6.595	-5.895	-0.230	8.191
390880.768	NaN	-3.293	1.630	9.359	1505.495	1504.762	1512.088	3.924	1.145	-6.672	-6.048	-0.077	8.191
390881.744	NaN	-3.293	1.641	9.359	1505.495	1504.029	1510.623	4.214	0.962	-6.718	-5.971	-0.230	8.574
390882.721	NaN	-3.283	1.641	9.359	1505.495	1504.762	1511.355	4.290	0.870	-6.672	-5.971	-0.077	8.115
390883.698	NaN	-3.283	1.641	9.359	1505.495	1504.762	1510.623	4.198	1.038	-6.565	-5.971	-0.077	8.191
390884.674	NaN	-3.283	1.641	9.359	1505.495	1504.029	1510.623	4.122	1.191	-6.550	-6.048	-0.306	8.268
390885.651	NaN	-3.293	1.641	9.348	1505.495	1504.762	1509.158	3.954	0.962	-6.489	-5.971	-0.306	8.268
390886.627	NaN	-3.272	1.652	9.359	1506.227	1504.762	1509.890	4.031	0.977	-6.626	-5.895	-0.230	8.421
390887.604	NaN	-3.283	1.641	9.370	1506.227	1503.297	1511.355	4.092	1.069	-6.824	-6.048	-0.230	8.268
390888.580	NaN	-3.272	1.663	9.370	1504.762	1502.564	1510.623	4.336	1.053	-6.962	-6.124	-0.230	8.421
390889.557	NaN	-3.283	1.641	9.370	1506.227	1504.029	1510.623	4.397	1.115	-6.916	-5.971	-0.230	8.268
390890.533	NaN	-3.293	1.630	9.370	1505.495	1503.297	1509.158	4.397	1.038	-6.733	-5.971	-0.077	8.268
390891.510	NaN	-3.283	1.630	9.380	1504.029	1504.029	1509.890	4.336	0.962	-6.718	-5.971	-0.077	8.191
390892.487	NaN	-3.283	1.641	9.359	1505.495	1504.762	1509.890	4.366	1.038	-6.687	-5.895	-0.153	8.268
390893.463	NaN	-3.283	1.641	9.359	1504.762	1503.297	1509.890	4.351	1.115	-6.626	-6.048	-0.153	8.191
390894.440	NaN	-3.283	1.641	9.359	1505.495	1504.029	1510.623	4.168	0.962	-6.748	-6.048	-0.153	8.344
390895.416	NaN	-3.293	1.641	9.348	1504.762	1504.029	1509.158	3.924	0.824	-6.595	-6.048	-0.153	8.344
390896.393	NaN	-3.293	1.652	9.348	1506.227	1502.564	1509.890	3.969	0.885	-6.427	-5.971	-0.230	8.344
390897.369	NaN	-3.293	1.652	9.348	1506.227	1504.029	1509.158	3.939	0.809	-6.351	-5.971	-0.153	8.344
390898.346	NaN	-3.293	1.641	9.359	1505.495	1503.297	1509.890	3.817	0.687	-6.473	-5.895	-0.383	8.268
390899.323	NaN	-3.293	1.652	9.348	1505.495	1503.297	1508.425	3.939	0.794	-6.626	-5.971	-0.230	8.421
390900.299	NaN	-3.293	1.663	9.337	1505.495	1504.762	1512.088	4.061	1.038	-6.718	-6.048	-0.153	8.344
390901.276	NaN	-3.304	1.663	9.337	1505.495	1503.297	1510.623	4.031	1.069	-6.947	-5.971	-0.153	8.268
390902.252	NaN	-3.304	1.652	9.348	1504.762	1503.297	1509.158	4.000	1.008	-6.870	-5.971	-0.230	8.268
390903.229	NaN	-3.304	1.652	9.359	1503.297	1503.297	1509.890	4.061	0.977	-6.641	-5.971	-0.153	8.344
390904.205	NaN	-3.315	1.641	9.359	1505.495	1503.297	1509.158	3.878	1.008	-6.611	-5.818	-0.153	8.038
390905.182	NaN	-3.304	1.641	9.359	1504.762	1504.029	1510.623	3.924	0.962	-6.718	-5.971	-0.306	8.344
390906.158	NaN	-3.304	1.641	9.359	1505.495	1503.297	1510.623	4.107	1.008	-6.580	-5.971	-0.153	8.344
390907.135	NaN	-3.304	1.630	9.370	1505.495	1503.297	1510.623	4.290	0.992	-6.565	-5.895	-0.153	8.344
390908.112	NaN	-3.304	1.630	9.370	1505.495	1504.029	1509.890	4.260	0.916	-6.565	-6.124	-0.153	8.268
390909.088	NaN	-3.304	1.652	9.370	1506.227	1504.029	1510.623	4.046	0.931	-6.718	-6.048	-0.153	8.268
390910.065	NaN	-3.293	1.652	9.370	1506.960	1503.297	1510.623	3.924	0.977	-6.855	-6.048	-0.153	8.191
390911.041	NaN	-3.283	1.663	9.359	1505.495	1504.762	1510.623	3.847	1.115	-6.809	-5.971	0.000	8.344
390912.018	NaN	-3.283	1.652	9.370	1505.495	1504.029	1510.623	4.015	1.206	-6.672	-5.971	-0.153	8.344
390912.994	NaN	-3.283	1.663	9.359	1506.227	1504.029	1511.355	4.198	0.947	-6.672	-5.895	-0.077	8.498
390913.971	NaN	-3.293	1.652	9.359	1505.495	1504.029	1510.623	4.427	0.977	-6.916	-5.971	-0.077	8.268
390914.948	NaN	-3.304	1.652	9.337	1504.762	1504.762	1509.890	4.229	1.038	-6.885	-6.048	-0.153	8.344
390915.924	NaN	-3.293	1.652	9.337	1505.495	1504.029	1510.623	4.122	0.870	-6.565	-5.971	-0.153	8.268
390916.901	NaN	-3.304	1.652	9.348	1506.227	1504.029	1509.158	4.076	0.885	-6.382	-5.895	-0.153	8.191
390917.877	NaN	-3.293	1.652	9.348	1506.227	1504.762	1510.623	4.076	0.962	-6.672	-5.971	-0.230	8.268
390918.854	NaN	-3.283	1.652	9.359	1506.227	1504.029	1509.890	4.107	0.855	-6.748	-5.971	-0.153	8.344
390919.830	NaN	-3.304	1.652	9.359	1504.762	1504.029	1510.623	4.244	0.733	-6.565	-5.971	-0.077	8.421
390920.807	NaN	-3.315	1.652	9.359	1505.495	1502.564	1509.890	4.260	0.763	-6.443	-6.048	-0.153	8.191
390921.783	NaN	-3.315	1.652	9.348	1505.495	1503.297	1510.623	4.092	0.748	-6.626	-5.895	-0.153	8.344
390922.760	NaN	-3.315	1.652	9.348	1505.495	1504.029	1512.821	3.908	0.901	-6.656	-5.895	-0.153	8.344
390923.737	3736847300.810	-3.315	1.641	9.359	1505.495	1503.297	1509.890	4.046	1.023	-6.656	-5.971	-0.230	8.268
390924.713	NaN	-3.315	1.652	9.359	1505.495	1504.762	1510.623	4.000	0.855	-6.779	-5.971	-0.153	8.421
390925.690	NaN	-3.315	1.641	9.348	1504.762	1504.029	1509.890	4.076	0.718	-6.718	-5.895	-0.153	8.344
390926.666	NaN	-3.304	1.652	9.348	1506.227	1504.029	1510.623	4.107	0.779	-6.519	-6.124	-0.230	8.344
390927.643	NaN	-3.315	1.641	9.348	1505.495	1503.297	1509.158	3.939	0.962	-6.458	-5.818	-0.077	8.344
390928.619	NaN	-3.315	1.652	9.348	1504.029	1503.297	1509.890	3.756	1.023	-6.595	-5.895	-0.077	8.344
390929.596	NaN	-3.293	1.641	9.348	1504.762	1503.297	1510.623	3.969	0.901	-6.901	-5.895	-0.306	8.268
390930.573	NaN	-3.304	1.652	9.359	1505.495	1504.029	1509.890	4.137	0.901	-6.840	-6.048	-0.153	8.268
390931.549	NaN	-3.293	1.652	9.370	1505.495	1504.029	1511.355	4.198	1.023	-6.611	-5.818	-0.153	8.115
390932.526	NaN	-3.315	1.641	9.359	1506.227	1502.564	1510.623	4.046	1.069	-6.473	-5.895	-0.153	8.344
390933.502	NaN	-3.304	1.641	9.380	1504.762	1504.762	1509.890	4.183	0.885	-6.534	-6.048	-0.153	8.421
390934.479	NaN	-3.304	1.641	9.370	1504.762	1504.762	1509.158	4.214	0.611	-6.580	-5.971	-0.230	8.344
390935.455	NaN	-3.293	1.652	9.370	1505.495	1504.762	1511.355	4.092	0.656	-6.519	-6.048	-0.230	8.191
390936.432	NaN	-3.293	1.652	9.370	1506.227	1504.029	1510.623	3.969	0.824	-6.443	-5.895	-0.306	8.268
390937.408	NaN	-3.304	1.641	9.348	1505.495	1503.297	1510.623	3.985	1.023	-6.580	-6.048	-0.306	8.191
390938.385	NaN	-3.304	1.641	9.348	1505.495	1503.297	1510.623	3.924	1.115	-6.702	-5.971	-0.077	8.268
390939.362	NaN	-3.326	1.641	9.348	1505.495	1504.029	1509.158	4.122	0.931	-6.641	-6.048	-0.153	8.344
390940.338	NaN	-3.315	1.641	9.359	1505.495	1504.029	1512.088	4.260	0.962	-6.672	-6.048	-0.077	8.421
390941.315	NaN	-3.304	1.641	9.359	1506.227	1503.297	1509.890	4.183	1.008	-6.702	-6.048	-0.230	8.268
390942.291	NaN	-3.293	1.641	9.359	1505.495	1504.762	1509.890	4.137	0.885	-6.672	-5.895	-0.230	8.498
390943.268	NaN	-3.293	1.652	9.359	1504.762	1504.029	1510.623	4.305	0.794	-6.611	-5.971	-0.306	8.191
390944.244	NaN	-3.293	1.663	9.359	1505.495	1504.029	1510.623	4.107	0.779	-6.702	-5.971	-0.077	8.344
390945.221	NaN	-3.304	1.652	9.348	1504.762	1503.297	1509.158	3.893	0.947	-6.702	-5.971	-0.230	8.421
390946.198	NaN	-3.272	1.674	9.359	1505.495	1503.297	1509.890	3.878	1.008	-6.565	-6.048	-0.153	8.498
390947.174	NaN	-3.283	1.663	9.359	1505.495	1503.297	1510.623	3.924	0.947	-6.656	-6.124	-0.153	8.191
390948.151	NaN	-3.283	1.663	9.359	1504.762	1503.297	1510.623	3.863	0.992	-6.809	-6.124	-0.230	8.268
390949.127	NaN	-3.283	1.663	9.370	1506.227	1504.029	1509.890	4.183	1.099	-6.534	-5.818	-0.230	8.191
390950.104	NaN	-3.283	1.663	9.370	1506.227	1504.762	1509.890	3.969	0.977	-6.504	-6.124	-0.153	8.344
390951.080	NaN	-3.293	1.652	9.370	1505.495	1504.029	1511.355	3.878	0.855	-6.595	-5.971	-0.230	8.421
390952.057	NaN	-3.293	1.641	9.359	1504.762	1503.297	1510.623	3.954	0.824	-6.687	-5.971	-0.153	8.268
390953.033	NaN	-3.283	1.641	9.359	1506.960	1504.029	1509.890	3.985	0.779	-6.763	-6.048	-0.153	8.421
390954.010	NaN	-3.272	1.641	9.370	1506.227	1503.297	1509.890	4.229	0.824	-6.718	-6.048	-0.153	8.268
390954.987	NaN	-3.272	1.641	9.370	1506.227	1503.297	1511.355	4.183	0.885	-6.687	-5.971	-0.077	8.344
390955.963	NaN	-3.283	1.641	9.370	1506.227	1503.297	1509.890	4.183	1.008	-6.641	-5.971	-0.230	8.268
390956.940	NaN	-3.304	1.641	9.370	1505.495	1504.029	1509.890	4.321	0.992	-6.641	-6.124	-0.077	8.191
390957.916	NaN	-3.304	1.641	9.370	1505.495	1504.029	1509.890	3.969	0.840	-6.550	-6.124	-0.306	8.344
390958.893	NaN	-3.293	1.630	9.370	1504.762	1503.297	1511.355	3.893	0.870	-6.534	-5.971	-0.153	8.268
390959.869	NaN	-3.293	1.641	9.370	1505.495	1504.029	1510.623	4.137	0.992	-6.443	-5.971	-0.230	8.344
390960.846	NaN	-3.283	1.630	9.380	1505.495	1502.564	1509.158	4.275	0.901	-6.550	-5.971	-0.230	8.344
390961.823	NaN	-3.283	1.641	9.370	1506.227	1504.029	1509.890	4.107	0.916	-6.748	-5.895	-0.153	8.268
390962.799	NaN	-3.283	1.652	9.380	1505.495	1504.029	1510.623	3.969	1.053	-6.702	-5.971	-0.230	8.344
390963.776	NaN	-3.272	1.641	9.370	1506.227	1504.029	1509.158	4.046	1.023	-6.504	-6.048	-0.077	8.268
390964.752	NaN	-3.283	1.652	9.359	1505.495	1504.029	1509.890	4.122	0.947	-6.534	-5.818	-0.153	8.191
390965.729	NaN	-3.293	1.641	9.359	1504.762	1502.564	1509.890	4.168	0.947	-6.565	-5.971	-0.306	8.268
390966.705	NaN	-3.304	1.641	9.348	1506.227	1504.762	1510.623	4.153	0.885	-6.534	-5.895	-0.153	8.344
390967.682	NaN	-3.293	1.652	9.359	1506.227	1504.029	1510.623	3.985	0.855	-6.504	-5.971	-0.230	8.191
390968.658	NaN	-3.293	1.641	9.370	1505.495	1503.297	1510.623	4.137	0.916	-6.580	-5.895	-0.230	8.115
390969.635	NaN	-3.293	1.641	9.370	1504.762	1504.029	1510.623	4.168	0.840	-6.519	-5.895	-0.077	8.344
390970.612	NaN	-3.304	1.630	9.359	1504.762	1503.297	1509.158	4.015	0.809	-6.336	-5.971	-0.153	8.268
390971.588	NaN	-3.283	1.652	9.359	1505.495	1503.297	1510.623	3.954	0.824	-6.427	-5.971	-0.153	8.268
390972.565	NaN	-3.283	1.652	9.359	1505.495	1503.297	1509.890	3.939	0.840	-6.626	-6.048	-0.306	8.268
390973.541	NaN	-3.283	1.663	9.359	1506.227	1504.029	1510.623	4.000	0.824	-6.595	-6.048	-0.153	8.344
390974.518	NaN	-3.304	1.652	9.359	1506.227	1503.297	1509.890	4.229	0.595	-6.458	-5.971	-0.153	8.344
390975.494	NaN	-3.304	1.674	9.348	1504.762	1504.762	1510.623	4.107	0.672	-6.611	-5.971	-0.306	8.268
390976.471	NaN	-3.293	1.663	9.359	1505.495	1504.762	1509.158	3.924	0.733	-6.626	-6.048	0.000	8.268
390977.448	NaN	-3.293	1.674	9.359	1505.495	1504.029	1509.890	3.863	0.931	-6.580	-6.048	-0.153	8.115
390978.424	NaN	-3.304	1.663	9.359	1505.495	1504.029	1509.158	4.015	0.916	-6.305	-5.971	-0.153	8.115
390979.401	NaN	-3.293	1.663	9.359	1504.029	1504.029	1510.623	3.924	1.084	-6.412	-6.048	-0.230	8.344
390980.377	NaN	-3.283	1.652	9.359	1506.960	1504.029	1511.355	3.847	0.916	-6.779	-5.895	-0.230	8.344
390981.354	NaN	-3.283	1.641	9.337	1505.495	1503.297	1510.623	3.969	0.733	-6.687	-5.971	-0.077	8.421
390982.330	NaN	-3.293	1.641	9.348	1505.495	1503.297	1509.890	4.305	0.748	-6.458	-6.124	-0.077	8.268
390983.307	NaN	-3.293	1.652	9.348	1506.227	1504.029	1509.890	4.198	0.763	-6.382	-6.124	-0.077	8.268
390984.283	NaN	-3.293	1.663	9.348	1505.495	1503.297	1510.623	3.939	0.763	-6.366	-6.048	-0.077	8.268
390985.260	NaN	-3.293	1.674	9.348	1505.495	1503.297	1509.890	3.863	0.702	-6.473	-6.048	-0.230	8.344
390986.237	NaN	-3.283	1.663	9.348	1505.495	1503.297	1509.890	4.183	0.763	-6.565	-6.048	-0.153	8.191
390987.213	NaN	-3.293	1.652	9.348	1506.227	1503.297	1509.158	4.122	0.855	-6.702	-5.971	-0.077	8.191
390988.190	NaN	-3.293	1.641	9.359	1504.762	1503.297	1510.623	4.122	0.840	-6.656	-5.971	-0.077	8.344
390989.166	NaN	-3.283	1.652	9.359	1504.762	1504.029	1511.355	4.015	0.824	-6.504	-5.971	-0.153	8.344
390990.143	NaN	-3.293	1.641	9.359	1505.495	1503.297	1509.890	4.031	0.763	-6.473	-6.048	-0.153	8.268
390991.119	NaN	-3.315	1.652	9.370	1505.495	1504.029	1510.623	4.107	0.870	-6.580	-6.048	-0.230	8.268
390992.096	NaN	-3.304	1.663	9.370	1505.495	1503.297	1509.890	4.137	0.840	-6.504	-5.971	-0.153	8.421
391012.604	NaN	-3.304	1.663	9.370	1505.495	1504.029	1510.623	4.321	0.763	-6.641	-5.971	-0.230	8.344
391013.580	NaN	-3.293	1.663	9.359	1505.495	1504.029	1511.355	4.198	0.733	-6.626	-5.971	-0.153	8.268
391014.557	NaN	-3.304	1.663	9.370	1506.227	1503.297	1510.623	3.893	0.870	-6.519	-5.971	-0.153	8.191
391015.533	NaN	-3.315	1.652	9.359	1505.495	1504.029	1509.890	3.847	0.992	-6.550	-5.895	-0.230	8.268
391016.510	NaN	-3.304	1.663	9.359	1506.227	1504.029	1511.355	4.000	0.977	-6.718	-5.971	-0.306	8.344
391017.487	NaN	-3.304	1.663	9.370	1506.227	1504.762	1509.890	4.214	1.008	-6.733	-6.048	-0.230	8.268
391018.463	NaN	-3.315	1.663	9.348	1505.495	1504.029	1509.890	4.244	0.977	-6.565	-5.971	-0.077	8.268
391019.440	NaN	-3.315	1.663	9.359	1505.495	1504.029	1511.355	4.336	0.840	-6.473	-5.971	-0.230	8.268
391020.416	NaN	-3.304	1.663	9.370	1505.495	1504.762	1510.623	4.321	0.870	-6.336	-5.971	-0.230	8.268
391021.393	NaN	-3.304	1.663	9.370	1506.227	1504.762	1511.355	3.924	0.779	-6.489	-5.895	-0.230	8.344
391022.369	NaN	-3.293	1.663	9.370	1505.495	1504.029	1511.355	3.954	0.885	-6.565	-5.895	-0.230	8.268
391023.346	NaN	-3.304	1.663	9.370	1506.227	1504.762	1511.355	3.985	0.931	-6.656	-6.048	-0.077	8.344
391024.323	NaN	-3.304	1.663	9.370	1504.762	1504.029	1509.890	4.000	0.901	-6.550	-5.971	-0.230	8.268
391025.299	NaN	-3.293	1.663	9.380	1505.495	1504.029	1510.623	4.076	0.840	-6.611	-5.971	-0.230	8.191
391026.276	NaN	-3.293	1.674	9.402	1506.227	1503.297	1509.890	4.107	0.779	-6.534	-6.124	-0.153	8.344
391027.252	NaN	-3.293	1.663	9.391	1506.227	1504.029	1509.158	4.046	0.855	-6.382	-6.048	-0.077	8.344
391028.229	NaN	-3.293	1.663	9.402	1505.495	1504.029	1509.158	3.863	0.992	-6.290	-5.895	-0.153	8.421
391029.205	NaN	-3.293	1.663	9.391	1506.227	1504.762	1510.623	3.985	1.084	-6.275	-5.971	-0.230	8.268
391030.182	NaN	-3.304	1.674	9.380	1505.495	1504.762	1509.158	4.137	0.870	-6.458	-5.971	-0.230	8.268
391031.158	NaN	-3.304	1.674	9.359	1505.495	1503.297	1510.623	4.168	0.885	-6.489	-6.124	-0.230	8.344
391032.135	NaN	-3.304	1.685	9.370	1506.227	1504.762	1509.890	4.290	0.870	-6.321	-6.048	-0.077	8.268
391033.112	NaN	-3.304	1.663	9.359	1505.495	1502.564	1510.623	4.351	0.763	-6.336	-5.971	-0.230	8.344
391034.088	NaN	-3.293	1.685	9.370	1505.495	1504.762	1511.355	4.305	0.855	-6.702	-5.971	-0.230	8.344
391035.065	NaN	-3.293	1.685	9.380	1504.762	1504.029	1509.890	4.046	0.733	-6.809	-5.971	-0.153	8.268
391036.041	NaN	-3.293	1.674	9.370	1506.227	1503.297	1509.890	3.740	0.733	-6.794	-5.895	-0.153	8.191
391037.018	NaN	-3.304	1.663	9.348	1504.762	1504.029	1510.623	3.786	0.779	-6.427	-5.895	-0.153	8.421
391037.994	NaN	-3.293	1.652	9.348	1504.762	1503.297	1509.158	4.031	0.763	-6.168	-5.971	-0.153	8.344
391038.971	NaN	-3.283	1.663	9.359	1504.762	1504.029	1510.623	3.969	0.794	-6.397	-5.971	-0.230	8.344
391039.948	NaN	-3.283	1.652	9.359	1505.495	1504.762	1509.890	3.939	0.870	-6.550	-5.971	-0.153	8.421
391040.924	NaN	-3.283	1.652	9.359	1505.495	1504.029	1509.890	3.969	1.053	-6.458	-5.895	-0.153	8.344
391041.901	NaN	-3.304	1.641	9.348	1505.495	1504.029	1509.890	3.908	1.115	-6.519	-5.895	-0.153	8.268
391042.877	NaN	-3.293	1.652	9.348	1506.227	1504.762	1510.623	3.939	0.870	-6.626	-5.971	-0.230	8.344
391043.854	NaN	-3.293	1.652	9.348	1504.029	1504.029	1511.355	3.939	0.702	-6.489	-6.048	-0.153	8.115
391044.830	NaN	-3.293	1.641	9.359	1505.495	1504.029	1510.623	3.939	0.748	-6.382	-5.971	-0.306	8.421
391045.807	NaN	-3.293	1.641	9.359	1506.227	1504.029	1510.623	4.076	0.855	-6.519	-5.971	-0.230	8.191
391046.783	NaN	-3.304	1.641	9.359	1506.227	1504.029	1509.890	4.061	0.870	-6.550	-5.971	-0.230	8.421
391047.760	NaN	-3.293	1.652	9.370	1506.227	1504.029	1510.623	4.107	0.824	-6.458	-6.124	-0.153	8.268
391048.737	NaN	-3.283	1.641	9.370	1506.227	1504.029	1511.355	4.244	0.809	-6.366	-5.971	-0.153	8.344
391049.713	NaN	-3.283	1.641	9.370	1505.495	1504.029	1510.623	4.275	0.916	-6.351	-5.971	-0.230	8.115
391050.690	NaN	-3.293	1.641	9.359	1504.762	1503.297	1509.890	4.031	0.962	-6.305	-5.895	-0.230	8.344
391051.666	NaN	-3.283	1.652	9.348	1505.495	1504.762	1510.623	4.061	0.962	-6.489	-5.971	-0.230	8.268
391052.643	NaN	-3.293	1.641	9.359	1504.762	1503.297	1509.890	4.107	0.885	-6.565	-5.971	-0.230	8.268
391053.619	NaN	-3.293	1.652	9.359	1504.762	1502.564	1508.425	3.863	0.840	-6.489	-5.971	-0.153	8.344
391054.596	NaN	-3.293	1.652	9.370	1504.762	1504.029	1509.158	3.939	0.870	-6.336	-6.048	-0.230	8.268
391055.573	NaN	-3.315	1.641	9.359	1504.762	1503.297	1507.692	3.939	0.870	-6.290	-5.895	-0.077	8.421
391056.549	NaN	-3.293	1.652	9.359	1504.762	1504.029	1510.623	3.832	0.977	-6.412	-6.048	-0.153	8.498
391057.526	NaN	-3.304	1.652	9.348	1505.495	1503.297	1509.890	3.893	1.115	-6.366	-5.971	-0.077	8.344
391058.502	NaN	-3.304	1.641	9.337	1504.762	1502.564	1508.425	4.244	1.053	-6.534	-5.971	-0.153	8.115
391059.479	NaN	-3.304	1.652	9.348	1503.297	1503.297	1508.425	4.321	0.962	-6.626	-5.895	-0.077	8.268
391060.455	NaN	-3.293	1.663	9.359	1505.495	1505.495	1509.890	4.137	0.840	-6.641	-5.971	-0.230	8.344
391061.432	NaN	-3.293	1.641	9.359	1505.495	1503.297	1509.158	3.786	0.870	-6.565	-5.971	-0.077	8.421
391062.408	NaN	-3.304	1.641	9.359	1505.495	1503.297	1508.425	3.817	0.916	-6.534	-5.971	-0.230	8.421
391063.385	NaN	-3.293	1.652	9.370	1504.762	1503.297	1506.227	3.740	0.977	-6.626	-5.971	-0.153	8.344
391064.362	NaN	-3.293	1.630	9.359	1505.495	1504.762	1509.158	3.878	0.962	-6.534	-6.048	-0.077	8.344
391065.338	NaN	-3.293	1.641	9.359	1504.762	1503.297	1509.158	4.076	0.931	-6.290	-5.895	-0.230	8.344
391066.315	NaN	-3.283	1.641	9.370	1505.495	1503.297	1509.158	4.092	0.748	-6.305	-5.895	-0.153	8.344
391067.291	NaN	-3.293	1.641	9.359	1506.960	1504.029	1511.355	4.092	0.870	-6.351	-5.818	-0.153	8.344
391068.268	NaN	-3.304	1.630	9.359	1504.762	1503.297	1510.623	3.969	0.885	-6.458	-5.971	-0.077	8.344
391069.244	NaN	-3.293	1.641	9.348	1505.495	1504.762	1509.890	3.954	0.885	-6.458	-6.048	-0.230	8.191
391070.221	NaN	-3.293	1.630	9.337	1505.495	1502.564	1508.425	4.046	0.855	-6.351	-5.818	-0.230	8.268
391071.198	NaN	-3.293	1.630	9.348	1504.029	1503.297	1508.425	4.092	0.885	-6.489	-6.048	-0.153	8.344
391072.174	NaN	-3.293	1.641	9.348	1505.495	1503.297	1510.623	3.924	0.824	-6.458	-6.048	-0.230	8.268
391073.151	NaN	-3.283	1.641	9.337	1503.297	1503.297	1509.158	3.832	0.977	-6.427	-5.742	-0.153	8.268
391074.127	NaN	-3.272	1.652	9.348	1504.762	1504.029	1512.088	3.847	0.870	-6.321	-6.048	-0.230	8.344
391075.104	NaN	-3.293	1.641	9.359	1505.495	1504.029	1509.890	4.076	0.870	-6.397	-5.895	-0.153	8.344
391076.080	NaN	-3.293	1.641	9.359	1505.495	1503.297	1509.890	4.260	0.901	-6.550	-5.895	-0.230	8.344
391077.057	NaN	-3.304	1.641	9.359	1504.762	1504.029	1508.425	4.366	0.947	-6.565	-5.895	-0.230	8.268
391078.033	NaN	-3.304	1.641	9.348	1506.227	1504.029	1511.355	4.351	1.115	-6.382	-6.048	-0.306	8.191
391079.010	NaN	-3.293	1.652	9.359	1506.227	1504.762	1511.355	4.137	1.160	-6.366	-5.971	-0.230	8.268
391079.987	NaN	-3.293	1.652	9.348	1505.495	1504.029	1510.623	4.153	1.069	-6.382	-5.895	-0.153	8.344
391080.963	NaN	-3.304	1.663	9.348	1505.495	1504.029	1510.623	4.092	0.992	-6.489	-5.971	-0.383	8.344
391081.940	NaN	-3.304	1.652	9.337	1504.029	1502.564	1510.623	4.061	0.840	-6.763	-6.048	-0.230	8.268
391082.916	NaN	-3.293	1.663	9.348	1505.495	1505.495	1509.890	4.198	0.672	-6.702	-5.971	-0.230	8.268
391083.893	NaN	-3.283	1.663	9.370	1505.495	1504.762	1511.355	4.183	0.702	-6.534	-5.971	-0.153	8.268
391084.869	NaN	-3.283	1.663	9.380	1505.495	1504.029	1510.623	4.260	0.931	-6.412	-5.895	-0.077	8.268
391085.846	NaN	-3.283	1.652	9.380	1504.762	1504.029	1510.623	4.168	0.992	-6.427	-5.971	-0.153	8.421
391086.823	NaN	-3.293	1.663	9.380	1506.227	1504.029	1508.425	3.893	0.962	-6.626	-5.971	-0.153	8.344
391087.799	NaN	-3.283	1.663	9.380	1506.227	1504.762	1510.623	3.969	0.962	-6.656	-6.048	-0.077	8.191
391088.776	NaN	-3.283	1.674	9.370	1506.227	1504.029	1510.623	4.076	1.053	-6.550	-5.971	-0.077	8.268
391089.752	NaN	-3.293	1.674	9.380	1505.495	1503.297	1509.158	4.015	1.053	-6.489	-5.742	-0.230	8.344
391090.729	NaN	-3.304	1.663	9.380	1504.762	1504.029	1510.623	4.000	0.763	-6.412	-5.895	-0.230	8.344
391091.705	NaN	-3.293	1.674	9.370	1505.495	1505.495	1510.623	3.863	0.794	-6.458	-6.048	-0.306	8.268
391092.682	NaN	-3.283	1.663	9.370	1506.227	1504.029	1509.158	3.939	0.870	-6.489	-6.048	0.000	8.191
391093.658	NaN	-3.283	1.663	9.370	1505.495	1504.029	1511.355	4.076	0.977	-6.458	-5.971	-0.077	8.421
391094.635	NaN	-3.293	1.663	9.370	1505.495	1505.495	1509.158	3.954	1.084	-6.519	-5.971	-0.230	8.344
391095.612	NaN	-3.293	1.652	9.370	1506.227	1504.029	1509.158	4.122	0.947	-6.397	-5.895	-0.153	8.268
391096.588	NaN	-3.304	1.652	9.380	1504.762	1503.297	1509.158	4.046	0.641	-6.382	-6.124	-0.230	8.421
391097.565	NaN	-3.293	1.663	9.391	1505.495	1503.297	1509.890	4.092	0.595	-6.351	-6.048	-0.077	8.344
391098.541	NaN	-3.304	1.674	9.391	1505.495	1504.762	1509.890	4.122	0.809	-6.565	-5.818	-0.230	8.191
391099.518	NaN	-3.293	1.663	9.380	1503.297	1504.029	1509.890	4.137	0.931	-6.595	-5.971	-0.230	8.268
391100.494	NaN	-3.283	1.663	9.370	1505.495	1504.762	1511.355	4.137	0.840	-6.427	-6.048	-0.153	8.191
391101.471	NaN	-3.283	1.652	9.370	1505.495	1504.029	1509.890	3.985	0.763	-6.489	-5.895	-0.306	8.191
391102.448	NaN	-3.304	1.652	9.370	1504.762	1504.029	1509.890	4.061	0.931	-6.565	-5.971	-0.306	8.344
391103.424	NaN	-3.293	1.663	9.380	1505.495	1504.029	1509.158	4.092	0.962	-6.550	-6.048	-0.230	8.344
391104.401	NaN	-3.293	1.652	9.380	1506.960	1503.297	1510.623	4.122	0.947	-6.427	-5.971	-0.153	8.498
391105.377	NaN	-3.293	1.641	9.391	1505.495	1504.762	1510.623	4.122	0.870	-6.534	-5.971	-0.306	8.344
391106.354	NaN	-3.283	1.652	9.380	1506.227	1504.029	1510.623	4.137	0.733	-6.565	-5.895	-0.230	8.344
391107.330	NaN	-3.293	1.652	9.380	1504.762	1504.029	1509.890	4.015	0.733	-6.641	-5.895	-0.230	8.115
391108.307	NaN	-3.304	1.641	9.380	1504.029	1503.297	1509.158	3.802	0.870	-6.519	-5.971	-0.153	8.268
391109.283	NaN	-3.315	1.652	9.370	1506.227	1504.762	1510.623	3.939	0.885	-6.412	-6.048	-0.230	8.268
391110.260	NaN	-3.304	1.652	9.370	1506.227	1504.029	1511.355	3.985	0.779	-6.519	-5.971	-0.153	8.191
391111.237	NaN	-3.304	1.652	9.370	1505.495	1503.297	1509.890	3.756	0.763	-6.489	-5.971	-0.153	8.498
391112.213	NaN	-3.304	1.641	9.380	1505.495	1504.029	1512.088	3.908	0.824	-6.504	-5.895	-0.153	8.268
391113.190	NaN	-3.315	1.641	9.370	1505.495	1504.029	1511.355	4.214	0.977	-6.473	-5.895	-0.153	8.191
391114.166	NaN	-3.293	1.663	9.370	1506.227	1504.762	1510.623	3.969	0.992	-6.366	-5.895	-0.230	8.268
391115.143	NaN	-3.283	1.652	9.359	1506.227	1504.029	1510.623	3.985	1.053	-6.321	-5.895	-0.153	8.344
391116.119	NaN	-3.283	1.663	9.359	1506.227	1503.297	1510.623	4.000	0.977	-6.412	-6.048	-0.230	8.344
391117.096	NaN	-3.283	1.641	9.348	1506.227	1504.762	1510.623	4.076	1.038	-6.366	-5.895	-0.153	8.344
391118.073	NaN	-3.293	1.652	9.359	1504.762	1503.297	1508.425	3.985	1.038	-6.473	-5.971	-0.077	8.191
391119.049	NaN	-3.283	1.641	9.359	1504.762	1501.832	1509.158	3.939	1.008	-6.397	-5.971	-0.153	8.421
391120.026	NaN	-3.293	1.652	9.370	1504.029	1503.297	1509.158	4.061	1.084	-6.397	-6.124	-0.383	8.268
391121.002	NaN	-3.293	1.652	9.359	1504.762	1504.029	1509.890	3.969	0.947	-6.550	-5.971	-0.230	8.421
391121.979	NaN	-3.293	1.663	9.348	1505.495	1503.297	1509.158	3.939	1.069	-6.565	-5.895	-0.153	8.344
391122.955	NaN	-3.272	1.652	9.348	1506.960	1504.029	1510.623	4.107	1.130	-6.427	-6.048	-0.306	8.344
391123.932	NaN	-3.272	1.652	9.348	1506.227	1503.297	1509.158	4.107	0.901	-6.412	-5.971	-0.230	8.421
391124.908	NaN	-3.283	1.652	9.359	1505.495	1504.029	1509.158	4.000	0.855	-6.702	-5.971	-0.230	8.421
391125.885	NaN	-3.293	1.652	9.380	1505.495	1503.297	1510.623	3.954	0.947	-6.718	-5.895	-0.230	8.344
391126.862	NaN	-3.304	1.641	9.370	1506.227	1504.029	1509.158	4.061	1.099	-6.504	-6.048	-0.306	8.191
391127.838	NaN	-3.293	1.641	9.370	1506.227	1504.029	1509.158	4.061	1.145	-6.351	-5.971	-0.077	8.268
391128.815	NaN	-3.283	1.641	9.380	1505.495	1504.762	1510.623	4.183	1.008	-6.321	-6.048	-0.153	8.344
391129.791	NaN	-3.283	1.641	9.380	1505.495	1504.762	1510.623	4.183	1.099	-6.473	-5.895	-0.230	8.191
391130.768	NaN	-3.304	1.641	9.380	1505.495	1503.297	1509.890	4.046	0.977	-6.519	-5.895	-0.153	8.344
391131.744	NaN	-3.293	1.652	9.370	1506.227	1505.495	1510.623	3.878	0.855	-6.366	-5.971	-0.153	8.268
391132.721	NaN	-3.293	1.652	9.359	1505.495	1504.762	1509.890	3.954	0.855	-6.351	-5.971	-0.153	8.191
391133.698	NaN	-3.283	1.652	9.370	1505.495	1504.029	1509.890	4.015	0.916	-6.305	-6.048	-0.383	8.268
391134.674	NaN	-3.293	1.652	9.370	1504.762	1503.297	1510.623	4.015	0.916	-6.366	-5.895	-0.077	8.344
391135.651	NaN	-3.304	1.641	9.359	1505.495	1503.297	1510.623	3.939	0.840	-6.489	-6.048	-0.383	8.498
391136.627	NaN	-3.293	1.630	9.359	1506.960	1504.762	1510.623	3.756	0.992	-6.519	-5.971	-0.230	8.268
391137.604	NaN	-3.304	1.641	9.348	1504.762	1504.029	1508.425	3.817	0.992	-6.305	-5.895	-0.077	8.268
391138.580	NaN	-3.304	1.652	9.348	1505.495	1503.297	1509.158	3.863	1.069	-6.275	-6.048	-0.077	8.268
391139.557	NaN	-3.293	1.652	9.348	1505.495	1504.029	1509.890	3.832	1.023	-6.321	-5.971	-0.077	8.421
391140.533	NaN	-3.293	1.652	9.348	1505.495	1503.297	1506.960	4.137	0.824	-6.489	-5.895	-0.153	8.344
391141.510	3736847300.975	-3.283	1.663	9.348	1504.762	1504.029	1510.623	4.015	0.824	-6.443	-5.971	-0.230	8.115
391142.487	NaN	-3.293	1.652	9.337	1505.495	1504.029	1509.890	3.725	1.008	-6.473	-5.971	-0.230	8.191
391143.463	NaN	-3.293	1.641	9.337	1504.762	1502.564	1509.158	3.695	1.160	-6.382	-6.048	-0.153	8.191
391144.440	NaN	-3.283	1.652	9.348	1505.495	1503.297	1510.623	3.786	1.176	-6.336	-6.124	-0.230	8.421
391145.416	NaN	-3.283	1.652	9.348	1506.227	1504.762	1510.623	3.924	1.115	-6.366	-6.048	-0.077	8.268
391146.393	NaN	-3.283	1.641	9.348	1505.495	1503.297	1509.890	3.924	1.191	-6.366	-5.818	-0.230	8.268
391147.369	NaN	-3.283	1.652	9.370	1505.495	1502.564	1509.890	3.878	1.298	-6.305	-5.971	-0.153	8.344
391148.346	NaN	-3.272	1.652	9.370	1505.495	1503.297	1510.623	3.802	1.221	-6.382	-6.048	-0.153	8.115
391149.323	NaN	-3.283	1.652	9.370	1506.960	1504.029	1510.623	3.817	0.992	-6.321	-5.971	-0.230	8.268
391150.299	NaN	-3.283	1.652	9.380	1505.495	1504.029	1510.623	3.908	0.901	-6.183	-5.895	-0.230	8.191
391151.276	NaN	-3.283	1.663	9.380	1506.227	1503.297	1509.158	3.939	0.794	-6.336	-5.971	-0.230	8.191
391152.252	NaN	-3.283	1.663	9.370	1505.495	1504.029	1509.158	3.924	0.901	-6.214	-6.048	-0.153	8.344
391153.229	NaN	-3.293	1.663	9.359	1506.227	1504.029	1511.355	3.786	1.023	-6.229	-6.124	-0.153	8.268
391154.205	NaN	-3.283	1.663	9.359	1505.495	1504.762	1511.355	3.710	1.053	-6.198	-5.895	-0.153	8.344
391155.182	NaN	-3.283	1.663	9.348	1506.227	1504.029	1511.355	3.725	1.053	-6.275	-5.895	-0.153	8.268
391156.158	NaN	-3.293	1.663	9.348	1505.495	1504.029	1511.355	4.031	1.115	-6.595	-6.048	-0.230	8.268
391157.135	NaN	-3.304	1.663	9.348	1505.495	1504.029	1510.623	4.153	1.160	-6.519	-5.895	-0.230	8.344
391158.112	NaN	-3.315	1.641	9.337	1506.960	1503.297	1509.890	3.847	1.038	-6.351	-5.818	-0.306	8.191
391159.088	NaN	-3.304	1.652	9.337	1506.227	1504.762	1509.890	3.924	0.977	-6.229	-5.895	-0.230	8.191
391160.065	NaN	-3.293	1.663	9.337	1504.762	1505.495	1510.623	4.122	1.206	-6.321	-6.124	-0.153	8.038
391161.041	NaN	-3.304	1.663	9.348	1506.227	1504.029	1510.623	4.153	1.374	-6.489	-6.048	-0.153	8.268
391162.018	NaN	-3.304	1.652	9.359	1505.495	1502.564	1509.158	4.229	1.099	-6.473	-5.971	-0.230	8.268
391162.994	NaN	-3.283	1.652	9.359	1506.960	1504.029	1509.890	4.229	0.687	-6.321	-6.048	-0.230	8.268
391163.971	NaN	-3.283	1.652	9.370	1506.227	1503.297	1509.890	4.122	0.901	-6.519	-5.971	-0.306	8.344
391164.948	NaN	-3.283	1.663	9.380	1505.495	1504.029	1509.890	3.969	1.130	-6.473	-5.971	-0.153	8.344
391165.924	NaN	-3.283	1.652	9.370	1504.762	1503.297	1511.355	4.092	1.099	-6.366	-5.895	-0.230	8.268
391166.901	NaN	-3.293	1.641	9.370	1505.495	1503.297	1510.623	4.076	1.099	-6.275	-6.048	-0.230	8.268
391167.877	NaN	-3.283	1.641	9.370	1504.762	1503.297	1510.623	3.878	1.053	-6.244	-5.895	-0.230	8.268
391168.854	NaN	-3.272	1.663	9.370	1505.495	1502.564	1509.890	3.878	1.008	-6.351	-5.895	-0.230	8.344
391169.830	NaN	-3.272	1.674	9.370	1506.227	1504.762	1510.623	4.015	1.069	-6.412	-6.048	-0.153	8.421
391170.807	NaN	-3.293	1.663	9.359	1504.762	1504.762	1509.890	4.000	1.053	-6.473	-5.971	-0.153	8.344
391171.783	NaN	-3.293	1.652	9.348	1504.762	1504.762	1509.890	3.710	0.931	-6.275	-5.971	-0.230	8.344
391172.760	NaN	-3.293	1.663	9.348	1505.495	1503.297	1510.623	3.695	1.053	-6.290	-5.971	-0.383	8.268
391173.737	NaN	-3.293	1.663	9.348	1505.495	1504.029	1509.158	3.832	1.191	-6.565	-5.971	-0.230	8.268
391174.713	NaN	-3.293	1.652	9.359	1506.227	1503.297	1510.623	4.000	0.870	-6.656	-5.971	-0.230	8.268
391175.690	NaN	-3.293	1.652	9.359	1506.227	1504.029	1509.890	3.847	0.748	-6.382	-5.971	-0.153	8.268
391176.666	NaN	-3.293	1.652	9.370	1506.960	1504.029	1509.890	3.908	0.794	-6.321	-5.895	-0.230	8.344
391177.643	NaN	-3.293	1.652	9.380	1505.495	1504.762	1510.623	3.969	0.916	-6.397	-6.048	-0.230	8.268
391178.619	NaN	-3.293	1.663	9.359	1506.227	1503.297	1510.623	4.153	0.992	-6.534	-5.895	-0.230	8.268
391179.596	NaN	-3.293	1.641	9.359	1505.495	1504.029	1509.890	4.198	1.069	-6.595	-5.971	-0.230	8.191
391180.573	NaN	-3.293	1.652	9.359	1506.960	1504.029	1508.425	3.725	1.115	-6.504	-5.895	-0.306	8.268
391181.549	NaN	-3.293	1.652	9.370	1506.227	1504.762	1510.623	3.740	1.084	-6.397	-6.124	-0.153	8.191
391182.526	NaN	-3.293	1.652	9.370	1504.762	1504.762	1510.623	3.908	1.160	-6.534	-6.048	-0.230	8.344
391183.502	NaN	-3.293	1.652	9.370	1505.495	1503.297	1510.623	3.924	1.221	-6.763	-6.048	-0.306	8.191
391184.479	NaN	-3.283	1.641	9.380	1504.762	1503.297	1508.425	3.924	1.176	-6.580	-6.048	-0.230	8.344
391185.455	NaN	-3.283	1.652	9.391	1506.227	1504.762	1509.890	4.000	0.947	-6.321	-6.048	-0.153	8.268
391186.432	NaN	-3.283	1.663	9.380	1506.227	1504.029	1509.890	4.153	1.008	-6.153	-6.048	-0.077	8.344
391187.408	NaN	-3.293	1.652	9.380	1506.227	1503.297	1509.890	3.985	1.115	-6.198	-6.048	-0.077	8.268
391188.385	NaN	-3.293	1.663	9.370	1505.495	1504.029	1509.890	3.847	1.420	-6.137	-5.971	-0.230	8.421
391189.362	NaN	-3.304	1.652	9.359	1506.227	1503.297	1510.623	3.710	1.389	-6.366	-5.971	-0.230	8.191
391190.338	NaN	-3.293	1.652	9.370	1506.227	1503.297	1510.623	3.893	1.145	-6.290	-6.048	-0.230	8.344
391191.315	NaN	-3.283	1.652	9.370	1504.762	1504.029	1510.623	4.046	0.901	-6.198	-6.048	-0.230	8.421
391192.291	NaN	-3.293	1.663	9.359	1506.227	1504.029	1510.623	3.908	1.069	-6.290	-5.971	-0.077	8.268
391193.268	NaN	-3.304	1.652	9.359	1505.495	1504.029	1508.425	4.031	1.237	-6.397	-6.048	-0.153	8.344
391194.244	NaN	-3.304	1.663	9.348	1506.960	1503.297	1510.623	4.046	1.252	-6.168	-6.048	-0.077	8.268
391195.221	NaN	-3.293	1.652	9.348	1505.495	1504.029	1509.890	3.985	1.191	-6.122	-5.895	-0.230	8.191
391196.198	NaN	-3.293	1.663	9.359	1505.495	1504.762	1510.623	3.863	1.206	-6.321	-5.971	-0.230	8.191
391197.174	NaN	-3.293	1.663	9.359	1504.762	1504.029	1511.355	3.954	0.992	-6.351	-6.048	-0.153	8.344
391198.151	NaN	-3.304	1.663	9.348	1506.227	1503.297	1509.158	3.985	1.008	-6.382	-6.048	-0.306	8.344
391199.127	NaN	-3.315	1.663	9.359	1504.762	1502.564	1508.425	3.954	1.221	-6.382	-6.124	-0.153	8.268
391200.104	NaN	-3.304	1.663	9.359	1504.762	1503.297	1509.158	3.985	1.069	-6.275	-5.971	-0.230	8.268
391201.080	NaN	-3.283	1.663	9.348	1505.495	1504.029	1511.355	3.939	1.038	-6.412	-5.971	-0.153	8.191
391202.057	NaN	-3.293	1.652	9.359	1504.762	1503.297	1509.890	3.817	0.992	-6.427	-5.895	-0.153	8.115
391203.033	NaN	-3.293	1.652	9.359	1505.495	1502.564	1507.692	3.786	0.885	-6.458	-5.971	-0.306	8.268
391204.010	NaN	-3.283	1.652	9.370	1506.227	1504.762	1509.890	3.878	1.038	-6.321	-5.818	-0.153	8.421
391204.987	NaN	-3.293	1.641	9.348	1505.495	1503.297	1509.158	4.031	1.191	-6.244	-5.818	-0.077	8.191
391205.963	NaN	-3.283	1.652	9.359	1506.227	1502.564	1509.890	4.076	1.221	-6.336	-5.971	-0.153	8.268
391206.940	NaN	-3.293	1.630	9.348	1504.762	1504.029	1509.158	3.954	1.160	-6.382	-5.971	-0.230	8.115
391207.916	NaN	-3.283	1.652	9.359	1505.495	1504.029	1509.890	3.863	1.038	-6.412	-6.124	-0.153	8.421
391208.893	NaN	-3.283	1.641	9.359	1504.762	1503.297	1509.890	3.847	1.099	-6.229	-5.971	-0.230	8.268
391209.869	NaN	-3.272	1.641	9.359	1506.227	1504.029	1509.890	3.725	1.069	-6.107	-5.971	-0.153	8.344
391210.846	NaN	-3.283	1.630	9.359	1505.495	1504.029	1510.623	3.725	1.038	-6.214	-6.124	-0.153	8.268
391211.823	NaN	-3.304	1.641	9.359	1506.227	1504.762	1509.890	3.878	1.099	-6.351	-5.895	-0.077	8.344
391212.799	NaN	-3.304	1.630	9.359	1506.227	1504.762	1511.355	4.092	1.267	-6.275	-6.048	-0.153	8.344
391213.776	NaN	-3.304	1.630	9.370	1505.495	1504.029	1510.623	4.046	1.405	-6.198	-5.971	-0.230	8.344
391214.752	NaN	-3.293	1.630	9.380	1505.495	1503.297	1510.623	4.046	1.328	-6.198	-6.048	-0.077	8.191
391215.729	NaN	-3.293	1.630	9.380	1505.495	1503.297	1509.890	3.817	1.038	-6.321	-5.895	-0.230	8.268
391216.705	NaN	-3.272	1.630	9.391	1506.960	1504.762	1510.623	3.786	1.053	-6.366	-5.971	-0.153	8.344
391217.682	NaN	-3.293	1.652	9.380	1505.495	1504.029	1510.623	3.939	1.069	-6.275	-6.048	-0.153	8.344
391218.658	NaN	-3.293	1.652	9.391	1504.762	1504.029	1510.623	4.015	1.160	-6.397	-5.971	-0.077	8.344
391219.635	NaN	-3.283	1.652	9.391	1505.495	1504.762	1510.623	3.908	1.099	-6.366	-5.971	-0.230	8.344
391220.612	NaN	-3.293	1.663	9.380	1505.495	1503.297	1509.158	3.878	1.008	-6.260	-6.048	-0.153	8.268
391221.588	NaN	-3.304	1.652	9.370	1505.495	1503.297	1509.158	4.015	1.038	-6.305	-5.895	-0.077	8.268
391222.565	NaN	-3.293	1.652	9.370	1504.762	1503.297	1509.158	4.031	1.130	-6.260	-5.971	-0.230	8.191
391223.541	NaN	-3.283	1.674	9.370	1504.762	1504.762	1510.623	4.153	1.160	-6.382	-5.971	-0.153	8.268
391224.518	NaN	-3.293	1.674	9.370	1505.495	1503.297	1510.623	4.076	1.115	-6.580	-5.971	-0.230	8.344
391225.494	NaN	-3.293	1.674	9.359	1505.495	1504.762	1509.890	3.924	1.099	-6.275	-5.895	-0.153	8.268
391226.471	NaN	-3.293	1.663	9.359	1505.495	1503.297	1510.623	3.939	1.252	-6.122	-5.971	-0.077	8.344
391227.448	NaN	-3.293	1.663	9.370	1504.029	1503.297	1509.890	4.031	1.252	-6.168	-5.971	-0.306	8.344
391228.424	NaN	-3.293	1.663	9.370	1505.495	1503.297	1510.623	4.061	1.313	-6.305	-5.971	-0.153	8.191
391229.401	NaN	-3.304	1.652	9.359	1505.495	1503.297	1510.623	3.969	1.328	-6.275	-6.048	-0.230	8.191
391230.377	NaN	-3.293	1.663	9.359	1506.227	1504.762	1510.623	4.076	1.160	-6.244	-5.971	-0.153	8.268
391231.354	NaN	-3.293	1.663	9.348	1505.495	1504.029	1509.890	4.031	0.977	-6.183	-6.048	-0.153	8.268
391232.330	NaN	-3.304	1.663	9.348	1505.495	1503.297	1509.890	3.710	0.901	-6.244	-5.971	-0.077	8.344
391233.307	NaN	-3.304	1.652	9.348	1504.762	1503.297	1509.890	3.588	1.038	-6.275	-5.895	-0.077	8.421
391234.283	NaN	-3.315	1.652	9.337	1504.762	1504.029	1508.425	3.847	1.221	-6.214	-5.971	-0.230	8.191
391235.260	NaN	-3.315	1.652	9.337	1505.495	1502.564	1509.158	3.878	1.267	-6.183	-6.124	-0.153	8.344
391236.237	NaN	-3.304	1.674	9.359	1504.762	1504.029	1509.890	3.924	1.176	-6.153	-5.818	-0.077	8.268
391237.213	NaN	-3.315	1.663	9.359	1505.495	1504.762	1510.623	4.092	1.130	-6.076	-5.818	-0.153	8.344
391238.190	NaN	-3.326	1.641	9.348	1504.762	1504.029	1510.623	4.015	1.191	-6.183	-6.124	-0.230	8.268
391239.166	NaN	-3.315	1.663	9.348	1506.227	1504.029	1510.623	4.031	1.176	-6.061	-5.895	-0.077	8.268
391240.143	NaN	-3.326	1.641	9.348	1505.495	1504.029	1509.890	4.031	1.267	-6.168	-5.971	-0.230	8.344
391241.119	NaN	-3.315	1.641	9.348	1505.495	1503.297	1509.890	3.985	1.405	-6.214	-5.895	-0.306	8.421
391242.096	NaN	-3.304	1.652	9.348	1504.762	1503.297	1509.890	4.122	1.237	-6.214	-5.895	-0.077	8.268
391243.073	NaN	-3.315	1.641	9.348	1505.495	1503.297	1509.890	4.168	1.038	-6.305	-5.971	-0.077	8.191
391244.049	NaN	-3.315	1.641	9.348	1506.960	1504.029	1509.890	4.122	0.962	-6.244	-5.895	-0.230	8.268
391245.026	NaN	-3.326	1.630	9.348	1505.495	1503.297	1509.890	3.817	1.160	-6.122	-5.818	-0.153	8.344
391246.002	NaN	-3.304	1.652	9.359	1506.227	1504.029	1511.355	3.649	1.298	-5.969	-6.124	-0.153	8.268
391246.979	NaN	-3.315	1.652	9.359	1504.762	1504.029	1509.158	4.092	1.267	-6.061	-6.124	-0.153	8.191
391247.955	NaN	-3.293	1.663	9.359	1506.960	1504.029	1510.623	4.046	1.176	-6.092	-5.971	-0.230	8.344
391248.932	NaN	-3.293	1.663	9.370	1506.227	1504.762	1510.623	3.710	1.038	-6.107	-6.048	-0.153	8.421
391249.908	NaN	-3.304	1.663	9.370	1506.227	1504.029	1512.088	3.588	0.977	-6.153	-5.971	-0.230	8.268
391250.885	NaN	-3.293	1.652	9.359	1504.029	1503.297	1509.890	3.985	1.115	-6.092	-6.048	-0.153	8.344
391251.862	NaN	-3.293	1.641	9.359	1506.960	1504.029	1509.158	4.076	1.160	-6.229	-6.048	-0.077	8.115
391252.838	NaN	-3.283	1.641	9.370	1505.495	1504.762	1510.623	4.076	0.992	-6.351	-6.048	-0.230	8.344
391253.815	NaN	-3.283	1.652	9.370	1505.495	1503.297	1510.623	4.092	0.947	-6.336	-6.124	-0.077	8.268
391254.791	NaN	-3.283	1.641	9.370	1504.762	1504.762	1509.890	4.046	1.008	-6.244	-5.971	-0.153	8.115
391255.768	NaN	-3.293	1.641	9.380	1505.495	1503.297	1509.158	4.107	1.160	-6.214	-5.971	-0.077	8.191
391256.744	NaN	-3.293	1.652	9.370	1506.960	1504.029	1509.158	4.107	1.252	-6.382	-5.818	-0.230	8.344
391257.721	NaN	-3.283	1.652	9.370	1505.495	1504.029	1509.890	4.092	1.267	-6.336	-5.971	-0.153	8.268
391258.698	NaN	-3.283	1.652	9.380	1505.495	1503.297	1509.158	4.061	1.084	-6.351	-5.895	-0.230	8.344
391259.674	NaN	-3.283	1.641	9.380	1505.495	1504.029	1509.890	3.939	1.053	-6.275	-6.048	-0.230	8.344
391260.651	NaN	-3.283	1.630	9.359	1506.227	1503.297	1509.890	3.985	1.038	-6.290	-5.971	-0.153	8.344
391261.627	NaN	-3.283	1.641	9.359	1506.227	1504.029	1509.890	3.939	1.145	-6.214	-6.048	-0.153	8.344
391262.604	NaN	-3.283	1.652	9.348	1505.495	1504.029	1510.623	4.046	1.191	-6.183	-5.971	-0.077	8.268
391263.580	NaN	-3.283	1.652	9.359	1506.227	1504.029	1509.890	4.107	1.053	-6.107	-6.048	-0.153	8.268
391264.557	NaN	-3.293	1.641	9.359	1506.227	1504.029	1509.890	4.031	1.069	-6.046	-6.048	-0.230	8.268
391265.533	NaN	-3.293	1.641	9.359	1505.495	1503.297	1509.158	3.878	1.053	-6.168	-5.971	-0.230	8.421
391266.510	NaN	-3.283	1.652	9.359	1506.227	1504.029	1512.088	3.771	1.160	-6.290	-6.124	-0.230	8.191
391267.487	NaN	-3.293	1.641	9.370	1505.495	1504.029	1511.355	4.015	1.252	-6.336	-6.048	-0.230	8.115
391268.463	NaN	-3.293	1.652	9.359	1505.495	1504.029	1509.158	4.031	1.115	-6.305	-5.895	-0.153	8.268
391269.440	NaN	-3.315	1.663	9.337	1505.495	1503.297	1510.623	3.908	1.130	-6.305	-6.048	-0.077	8.268
391270.416	NaN	-3.304	1.663	9.348	1505.495	1504.762	1511.355	3.908	1.252	-6.321	-6.048	-0.306	8.344
391271.393	NaN	-3.293	1.663	9.359	1505.495	1504.029	1509.890	3.847	1.176	-6.366	-6.048	-0.230	8.344
391272.369	NaN	-3.293	1.663	9.359	1505.495	1504.029	1509.890	3.924	1.145	-6.198	-6.048	-0.077	8.115
391273.346	3736847301.141	-3.304	1.663	9.370	1505.495	1503.297	1510.623	3.802	1.023	-6.183	-5.895	-0.230	8.344
391274.323	NaN	-3.304	1.652	9.370	1505.495	1504.762	1509.890	3.725	1.145	-6.076	-5.971	-0.077	8.344
391275.299	NaN	-3.293	1.663	9.370	1505.495	1503.297	1508.425	3.908	1.237	-6.214	-5.818	-0.230	8.191
391276.276	NaN	-3.304	1.652	9.370	1504.029	1503.297	1509.158	4.122	1.115	-6.275	-6.048	-0.230	8.268
391277.252	NaN	-3.293	1.652	9.370	1506.227	1503.297	1509.158	4.168	1.115	-6.260	-6.048	-0.153	8.268
391278.229	NaN	-3.315	1.641	9.370	1505.495	1503.297	1508.425	4.000	1.176	-6.260	-5.971	-0.383	8.344
391279.205	NaN	-3.304	1.652	9.380	1506.960	1504.762	1509.890	3.863	1.282	-6.260	-5.818	-0.153	8.344
391280.182	NaN	-3.304	1.652	9.380	1505.495	1503.297	1510.623	3.725	1.313	-6.382	-5.895	-0.230	8.268
391281.158	NaN	-3.293	1.663	9.380	1505.495	1503.297	1509.890	3.863	1.130	-6.397	-6.048	-0.230	8.344
391282.135	NaN	-3.315	1.663	9.370	1506.227	1503.297	1508.425	4.000	1.130	-6.244	-5.895	-0.230	8.268
391283.112	NaN	-3.315	1.663	9.359	1506.227	1504.029	1509.890	3.832	1.191	-6.305	-6.048	-0.153	8.268
391284.088	NaN	-3.315	1.652	9.359	1504.762	1504.762	1510.623	3.817	1.160	-6.305	-5.818	-0.306	8.344
391285.065	NaN	-3.315	1.652	9.348	1504.029	1503.297	1509.158	3.802	1.023	-6.092	-5.971	-0.153	8.421
391286.041	NaN	-3.293	1.652	9.359	1505.495	1504.029	1510.623	4.107	0.992	-6.214	-5.971	-0.153	8.191
391287.018	NaN	-3.304	1.652	9.359	1506.227	1503.297	1511.355	4.229	1.084	-6.153	-5.895	-0.230	8.268
391287.994	NaN	-3.304	1.652	9.359	1506.227	1504.029	1510.623	4.031	1.130	-6.076	-5.971	-0.230	8.344
391288.971	NaN	-3.304	1.663	9.380	1506.227	1504.762	1511.355	3.832	1.099	-6.076	-5.895	-0.153	8.344
391289.948	NaN	-3.315	1.652	9.370	1505.495	1504.029	1509.890	3.634	1.206	-6.076	-6.048	-0.153	8.268
391290.924	NaN	-3.337	1.652	9.370	1503.297	1503.297	1509.158	3.725	1.206	-6.061	-6.048	-0.153	8.344
391291.901	NaN	-3.337	1.652	9.359	1505.495	1503.297	1509.890	4.061	1.374	-6.198	-5.895	-0.230	8.344
391292.877	NaN	-3.337	1.641	9.359	1506.227	1502.564	1509.890	3.985	1.282	-6.275	-6.124	-0.153	8.344
391293.854	NaN	-3.326	1.652	9.359	1504.762	1503.297	1509.890	3.969	1.069	-6.214	-5.971	-0.153	8.268
391294.830	NaN	-3.315	1.663	9.359	1505.495	1504.762	1509.890	4.122	1.084	-6.183	-6.048	-0.230	8.268
391295.807	NaN	-3.315	1.652	9.359	1505.495	1503.297	1511.355	4.122	1.115	-6.122	-5.895	-0.077	8.191
391296.783	NaN	-3.315	1.652	9.359	1505.495	1505.495	1509.158	3.969	1.099	-6.122	-5.971	-0.077	8.115
391297.760	NaN	-3.304	1.663	9.359	1505.495	1504.762	1512.088	3.939	0.931	-6.260	-5.971	-0.230	8.268
391298.737	NaN	-3.304	1.652	9.370	1506.960	1503.297	1510.623	3.939	1.053	-6.275	-6.124	-0.306	8.191
391299.713	NaN	-3.304	1.630	9.370	1505.495	1503.297	1511.355	4.015	1.221	-6.244	-5.971	-0.153	8.344
391300.690	NaN	-3.315	1.641	9.359	1504.029	1502.564	1509.158	3.969	1.145	-6.244	-5.971	-0.077	8.498
391301.666	NaN	-3.304	1.641	9.370	1506.227	1504.762	1510.623	3.939	1.130	-6.305	-5.971	-0.306	8.268
391302.643	NaN	-3.304	1.652	9.359	1504.762	1504.029	1509.890	3.847	1.130	-6.244	-5.971	-0.153	8.191
391303.619	NaN	-3.304	1.663	9.359	1505.495	1504.029	1509.890	3.847	1.130	-6.168	-5.971	-0.153	8.191
391304.596	NaN	-3.304	1.652	9.370	1504.762	1504.029	1509.158	4.076	1.038	-6.153	-5.895	0.000	8.191
391305.573	NaN	-3.304	1.641	9.359	1505.495	1504.762	1509.890	3.969	1.206	-6.260	-5.895	-0.230	8.421
391306.549	NaN	-3.293	1.652	9.370	1506.227	1504.762	1511.355	3.893	1.252	-6.336	-6.124	-0.230	8.268
391307.526	NaN	-3.293	1.641	9.380	1505.495	1504.029	1510.623	4.061	1.176	-6.229	-5.895	-0.230	8.344
391308.502	NaN	-3.293	1.652	9.370	1506.227	1502.564	1509.158	4.107	1.252	-6.305	-6.048	0.000	8.344
391309.479	NaN	-3.293	1.641	9.370	1503.297	1503.297	1509.890	3.863	1.145	-6.229	-5.971	-0.230	8.191
391310.455	NaN	-3.283	1.652	9.359	1506.227	1504.762	1509.890	3.786	1.344	-6.122	-6.048	-0.306	8.268
391311.432	NaN	-3.283	1.652	9.370	1505.495	1504.029	1511.355	3.969	1.435	-6.092	-5.971	-0.306	8.115
391312.408	NaN	-3.283	1.652	9.370	1505.495	1504.029	1509.158	4.076	1.282	-6.000	-5.971	-0.230	8.191
391313.385	NaN	-3.293	1.641	9.359	1505.495	1504.762	1509.158	4.137	1.099	-5.985	-6.124	-0.230	8.268
391314.362	NaN	-3.293	1.652	9.359	1505.495	1504.029	1509.158	4.031	1.206	-5.863	-5.895	-0.306	8.191
391315.338	NaN	-3.293	1.652	9.370	1504.762	1505.495	1509.158	3.954	1.145	-5.939	-5.971	-0.077	8.344
391316.315	NaN	-3.304	1.652	9.370	1505.495	1504.029	1509.890	4.076	1.099	-6.031	-6.124	-0.077	8.268
391317.291	NaN	-3.304	1.641	9.370	1507.692	1504.029	1509.158	4.000	1.023	-6.244	-6.124	-0.077	8.191
391318.268	NaN	-3.304	1.652	9.370	1505.495	1503.297	1509.158	3.740	0.992	-6.260	-5.895	-0.230	8.268
391319.244	NaN	-3.293	1.663	9.359	1506.227	1504.762	1510.623	4.061	1.160	-6.137	-5.971	-0.077	8.421
391320.221	NaN	-3.283	1.663	9.359	1505.495	1503.297	1509.890	4.275	1.145	-6.092	-5.895	-0.230	8.344
391321.198	NaN	-3.272	1.652	9.370	1506.227	1503.297	1509.158	4.214	1.160	-6.076	-5.971	-0.153	8.191
391322.174	NaN	-3.283	1.652	9.359	1506.227	1504.762	1511.355	3.908	1.130	-6.000	-6.124	-0.077	8.344
391323.151	NaN	-3.283	1.641	9.337	1505.495	1502.564	1512.088	4.046	1.191	-6.107	-6.048	-0.077	8.268
391324.127	NaN	-3.283	1.641	9.348	1506.227	1504.762	1510.623	4.076	1.145	-6.168	-5.895	-0.306	8.344
391325.104	NaN	-3.283	1.620	9.337	1504.762	1503.297	1509.158	3.969	1.206	-6.214	-6.048	-0.230	8.115
391326.080	NaN	-3.283	1.630	9.337	1504.762	1503.297	1509.158	4.031	1.084	-6.321	-5.971	-0.077	8.268
391327.057	NaN	-3.283	1.630	9.359	1504.029	1503.297	1509.158	3.924	0.977	-6.275	-5.971	-0.153	8.191
391328.033	NaN	-3.293	1.641	9.359	1506.227	1504.029	1510.623	3.725	1.053	-6.244	-5.971	-0.153	8.268
391329.010	NaN	-3.304	1.641	9.370	1506.227	1504.029	1510.623	3.802	1.145	-6.229	-5.971	-0.153	8.344
391329.987	NaN	-3.304	1.641	9.370	1505.495	1504.762	1510.623	4.000	1.191	-6.305	-6.048	-0.153	8.268
391330.963	NaN	-3.304	1.630	9.359	1504.762	1504.029	1509.890	4.183	1.130	-6.351	-5.895	-0.153	8.344
391331.940	NaN	-3.304	1.630	9.359	1504.762	1502.564	1509.158	4.122	1.176	-6.214	-5.895	-0.153	8.268
391332.916	NaN	-3.304	1.641	9.359	1504.762	1502.564	1509.890	3.939	1.008	-6.183	-5.971	-0.153	8.191
391333.893	NaN	-3.283	1.652	9.370	1506.960	1504.029	1510.623	3.954	1.038	-6.153	-5.971	-0.153	8.344
391334.869	NaN	-3.293	1.652	9.359	1505.495	1504.762	1509.890	3.969	1.206	-6.076	-6.048	-0.077	8.268
391335.846	NaN	-3.315	1.641	9.370	1504.762	1504.029	1509.158	4.107	1.191	-6.092	-5.971	-0.077	8.191
391336.823	NaN	-3.304	1.630	9.380	1505.495	1502.564	1509.890	3.985	1.115	-6.198	-5.971	-0.153	8.344
391337.799	NaN	-3.304	1.641	9.380	1504.762	1502.564	1509.158	3.954	0.916	-6.427	-5.971	-0.153	8.344
391338.776	NaN	-3.293	1.652	9.370	1506.227	1504.029	1509.158	3.817	1.053	-6.260	-5.971	-0.153	8.344
391339.752	NaN	-3.315	1.641	9.359	1504.762	1503.297	1509.158	3.985	1.252	-6.031	-5.895	-0.153	8.268
391340.729	NaN	-3.326	1.630	9.359	1505.495	1503.297	1508.425	4.137	1.298	-5.954	-6.048	-0.230	8.344
391341.705	NaN	-3.326	1.652	9.359	1506.227	1504.029	1509.158	4.137	1.145	-6.183	-5.895	-0.153	8.268
391342.682	NaN	-3.337	1.630	9.370	1504.762	1504.029	1511.355	4.046	1.130	-6.473	-5.971	-0.077	8.421
391343.658	NaN	-3.326	1.652	9.370	1505.495	1504.029	1509.890	4.168	1.267	-6.351	-6.124	-0.230	8.344
391344.635	NaN	-3.326	1.630	9.359	1504.029	1503.297	1509.158	4.183	1.344	-6.168	-5.971	-0.230	8.268
391345.612	NaN	-3.326	1.641	9.359	1506.227	1503.297	1509.890	3.985	1.359	-6.198	-5.895	-0.153	8.268
391346.588	NaN	-3.293	1.641	9.370	1505.495	1504.029	1510.623	3.985	1.099	-6.351	-6.048	-0.230	8.268
391347.565	NaN	-3.304	1.663	9.359	1504.762	1504.029	1509.890	3.893	0.794	-6.305	-5.971	-0.306	8.344
391348.541	NaN	-3.304	1.663	9.359	1504.762	1503.297	1509.158	3.649	0.656	-6.137	-5.971	-0.153	8.191
391349.518	NaN	-3.304	1.663	9.370	1504.762	1504.029	1509.890	3.786	1.023	-6.168	-5.895	-0.153	8.268
391350.494	NaN	-3.304	1.663	9.370	1506.227	1503.297	1509.890	3.863	1.069	-6.275	-5.971	-0.230	8.115
391351.471	NaN	-3.293	1.663	9.370	1506.227	1504.029	1509.890	3.908	0.962	-6.153	-5.895	-0.230	8.268
391352.448	NaN	-3.293	1.652	9.380	1505.495	1504.762	1509.158	4.000	0.916	-6.244	-5.971	-0.153	8.344
391353.424	NaN	-3.304	1.663	9.370	1505.495	1504.029	1509.158	3.924	1.008	-6.198	-5.818	-0.153	8.344
391354.401	NaN	-3.304	1.652	9.370	1506.227	1503.297	1509.890	4.015	1.099	-6.046	-6.048	-0.153	8.344
391355.377	NaN	-3.293	1.663	9.370	1506.227	1504.762	1511.355	4.168	1.084	-6.015	-5.971	-0.230	8.344
391356.354	NaN	-3.304	1.663	9.359	1506.227	1504.762	1510.623	3.954	0.992	-6.137	-5.971	-0.230	8.268
391357.330	NaN	-3.293	1.652	9.348	1504.029	1504.029	1509.890	3.893	0.962	-6.122	-5.971	-0.077	8.421
391358.307	NaN	-3.293	1.652	9.337	1504.762	1503.297	1509.890	3.939	0.992	-6.107	-5.971	-0.306	8.344
391359.283	NaN	-3.304	1.652	9.348	1506.227	1504.029	1509.890	3.878	1.023	-6.000	-6.048	-0.230	8.574
391360.260	NaN	-3.293	1.652	9.348	1505.495	1504.029	1509.890	4.015	1.084	-6.122	-6.124	-0.383	8.344
391361.237	NaN	-3.304	1.652	9.348	1506.227	1503.297	1509.890	3.939	1.053	-6.153	-5.971	-0.153	8.344
391362.213	NaN	-3.304	1.663	9.348	1505.495	1504.029	1511.355	3.542	1.084	-6.061	-5.971	-0.153	8.191
391363.190	NaN	-3.304	1.641	9.359	1506.227	1504.029	1510.623	3.542	0.977	-5.939	-6.048	-0.230	8.268
391374.908	NaN	-3.293	1.652	9.359	1506.227	1504.029	1510.623	3.710	1.053	-6.260	-5.971	-0.077	8.268
391375.885	NaN	-3.283	1.652	9.359	1506.227	1503.297	1509.890	3.817	1.191	-6.076	-6.048	-0.153	8.344
391376.862	NaN	-3.293	1.641	9.359	1506.227	1503.297	1509.890	4.015	1.145	-5.863	-5.971	-0.230	8.191
391377.838	NaN	-3.293	1.652	9.348	1506.227	1504.762	1511.355	4.015	0.763	-5.863	-5.971	-0.306	8.344
391378.815	NaN	-3.293	1.663	9.348	1505.495	1504.029	1509.890	3.863	0.427	-6.168	-5.895	-0.153	8.344
391379.791	NaN	-3.293	1.652	9.359	1503.297	1504.029	1510.623	3.985	0.641	-6.183	-5.971	-0.153	8.344
391380.768	NaN	-3.293	1.652	9.359	1504.762	1504.029	1511.355	3.985	0.870	-6.183	-5.971	-0.153	8.344
391381.744	NaN	-3.293	1.663	9.348	1506.960	1504.762	1509.158	3.924	1.023	-6.122	-5.971	-0.153	8.344
391382.721	NaN	-3.283	1.663	9.359	1506.227	1504.029	1510.623	4.031	0.962	-5.878	-6.048	-0.230	8.268
391383.698	NaN	-3.283	1.663	9.359	1505.495	1503.297	1510.623	4.137	0.931	-5.908	-5.971	-0.306	8.344
391384.674	NaN	-3.283	1.663	9.359	1505.495	1504.029	1510.623	3.954	1.084	-6.000	-6.048	-0.230	8.268
391385.651	NaN	-3.293	1.652	9.348	1505.495	1504.029	1509.890	3.847	1.084	-6.137	-5.895	-0.153	8.115
391386.627	NaN	-3.293	1.663	9.348	1506.960	1504.762	1510.623	4.031	0.901	-6.137	-5.818	-0.230	8.344
391387.604	NaN	-3.293	1.663	9.359	1505.495	1504.762	1510.623	4.061	0.702	-6.015	-5.895	-0.230	8.268
391388.580	NaN	-3.283	1.652	9.370	1505.495	1504.029	1510.623	3.985	0.687	-6.076	-6.048	-0.153	8.421
391389.557	NaN	-3.293	1.641	9.370	1504.762	1504.029	1510.623	4.122	0.901	-5.969	-6.048	-0.153	8.498
391390.533	NaN	-3.293	1.641	9.380	1505.495	1504.029	1510.623	4.015	0.992	-5.969	-5.895	-0.230	8.191
391391.510	NaN	-3.293	1.641	9.380	1506.227	1504.029	1511.355	4.015	1.130	-5.939	-6.048	-0.230	8.421
391392.487	NaN	-3.304	1.641	9.370	1505.495	1503.297	1510.623	3.908	1.115	-6.061	-6.048	-0.230	8.421
391393.463	NaN	-3.293	1.652	9.370	1506.227	1503.297	1509.890	3.924	0.916	-6.168	-6.124	-0.230	8.191
391394.440	NaN	-3.304	1.641	9.359	1505.495	1504.029	1510.623	3.954	0.794	-6.214	-6.048	-0.077	8.191
391395.416	NaN	-3.293	1.652	9.370	1506.960	1504.029	1509.890	3.969	0.885	-6.153	-5.971	-0.230	8.268
391396.393	NaN	-3.293	1.652	9.359	1505.495	1504.762	1510.623	3.954	1.023	-6.137	-5.971	-0.077	8.268
391397.369	NaN	-3.293	1.663	9.359	1506.227	1503.297	1510.623	3.939	1.099	-6.061	-5.895	-0.230	8.498
391398.346	NaN	-3.293	1.663	9.359	1505.495	1504.762	1510.623	3.908	0.992	-6.122	-5.895	-0.077	8.344
391399.323	NaN	-3.304	1.663	9.359	1506.227	1504.762	1509.158	4.000	0.672	-6.153	-6.124	-0.153	8.268
391400.299	NaN	-3.293	1.652	9.359	1506.227	1504.762	1512.088	3.924	0.718	-6.031	-5.818	-0.077	8.344
391401.276	NaN	-3.304	1.641	9.359	1506.227	1504.762	1510.623	3.756	1.053	-6.137	-5.971	-0.153	8.268
391402.252	NaN	-3.315	1.641	9.348	1504.762	1504.029	1510.623	3.817	1.145	-6.107	-5.895	-0.230	8.268
391403.229	NaN	-3.326	1.652	9.337	1504.762	1504.029	1510.623	3.710	0.916	-5.954	-6.048	-0.077	8.115
391404.205	NaN	-3.315	1.652	9.348	1506.227	1504.762	1509.890	3.924	0.733	-6.092	-5.971	-0.230	8.344
391405.182	NaN	-3.315	1.652	9.370	1506.227	1503.297	1511.355	4.015	0.885	-6.183	-5.971	-0.077	8.268
391406.158	NaN	-3.315	1.652	9.370	1505.495	1504.029	1509.890	3.618	0.824	-6.076	-6.124	-0.077	8.421
391407.135	NaN	-3.304	1.663	9.370	1504.762	1503.297	1509.158	3.481	0.916	-5.985	-6.048	-0.077	8.115
391408.112	NaN	-3.315	1.652	9.359	1506.227	1504.762	1509.890	3.542	0.885	-6.076	-5.971	-0.153	8.344
391409.088	NaN	-3.315	1.652	9.359	1503.297	1504.762	1509.158	3.771	0.718	-6.244	-6.048	-0.306	8.268
391410.065	NaN	-3.304	1.652	9.370	1506.227	1504.029	1509.890	3.969	0.794	-6.198	-6.048	-0.230	8.268
391411.041	NaN	-3.304	1.641	9.370	1506.227	1504.029	1511.355	3.863	0.901	-6.229	-6.048	-0.153	8.344
391412.018	NaN	-3.304	1.641	9.370	1505.495	1504.029	1509.890	3.710	0.916	-6.107	-5.895	-0.306	8.191
391412.994	NaN	-3.304	1.641	9.370	1506.227	1503.297	1509.890	3.832	0.794	-6.122	-6.048	-0.230	8.115
391413.971	NaN	-3.315	1.630	9.380	1506.227	1502.564	1509.890	3.985	0.687	-6.092	-5.971	-0.153	8.421
391414.948	NaN	-3.304	1.641	9.380	1506.227	1504.762	1509.890	3.969	0.855	-6.031	-6.048	-0.230	8.344
391415.924	NaN	-3.304	1.641	9.370	1505.495	1504.029	1510.623	3.832	0.947	-6.046	-5.895	-0.306	8.268
391416.901	NaN	-3.304	1.652	9.348	1504.762	1503.297	1509.890	4.061	1.053	-6.290	-5.742	-0.153	8.421
391417.877	NaN	-3.293	1.652	9.359	1504.762	1503.297	1509.890	4.061	0.901	-6.214	-6.048	-0.230	8.268
391418.854	NaN	-3.304	1.641	9.348	1504.762	1503.297	1507.692	4.183	0.916	-6.107	-5.971	-0.230	8.344
391419.830	NaN	-3.304	1.641	9.348	1504.029	1504.029	1509.890	3.954	0.870	-5.985	-5.971	-0.153	8.344
391420.807	NaN	-3.304	1.652	9.370	1506.227	1503.297	1510.623	3.756	0.779	-6.122	-6.048	-0.153	8.191
391421.783	NaN	-3.315	1.652	9.370	1503.297	1503.297	1508.425	3.771	0.626	-6.061	-5.971	-0.153	8.268
391422.760	NaN	-3.293	1.663	9.370	1505.495	1504.029	1510.623	3.893	0.565	-6.107	-6.048	-0.153	8.421
391423.737	NaN	-3.293	1.652	9.370	1504.762	1503.297	1509.890	3.847	0.550	-6.137	-6.048	-0.230	8.115
391424.713	NaN	-3.304	1.641	9.370	1505.495	1504.029	1508.425	3.847	0.794	-6.031	-6.048	-0.153	8.268
391425.690	NaN	-3.304	1.641	9.370	1504.762	1502.564	1509.158	3.878	0.916	-5.954	-6.124	0.000	8.268
391426.666	NaN	-3.293	1.641	9.370	1505.495	1504.762	1510.623	3.817	0.855	-6.061	-5.895	-0.153	8.115
391427.643	NaN	-3.315	1.630	9.337	1504.762	1504.762	1509.890	4.061	0.809	-6.107	-5.971	-0.230	8.268
391428.619	NaN	-3.315	1.641	9.337	1505.495	1503.297	1509.890	4.031	0.947	-6.031	-6.201	-0.153	8.115
391429.596	NaN	-3.304	1.652	9.348	1504.762	1503.297	1508.425	3.939	1.008	-6.000	-5.971	-0.230	8.421
391430.573	NaN	-3.315	1.652	9.337	1504.762	1504.029	1509.158	3.756	0.992	-6.107	-5.971	-0.077	8.191
391431.549	NaN	-3.304	1.652	9.359	1505.495	1504.029	1510.623	3.695	0.870	-5.939	-5.895	-0.230	8.268
391432.526	NaN	-3.315	1.641	9.359	1505.495	1503.297	1509.890	3.679	0.885	-5.908	-6.048	-0.230	8.268
391433.502	NaN	-3.304	1.630	9.370	1504.762	1504.029	1509.158	3.557	0.824	-5.878	-5.895	-0.077	8.344
391434.479	NaN	-3.315	1.641	9.370	1504.762	1504.029	1508.425	3.618	0.885	-5.924	-5.971	-0.230	8.421
391435.455	NaN	-3.315	1.641	9.380	1504.762	1503.297	1509.158	3.649	0.855	-6.000	-5.895	-0.153	8.344
391436.432	NaN	-3.315	1.652	9.391	1504.029	1503.297	1509.158	3.725	0.702	-5.954	-5.895	-0.153	8.344
391437.408	NaN	-3.315	1.663	9.391	1506.227	1504.029	1510.623	3.893	0.702	-6.076	-6.048	-0.306	8.344
391438.385	NaN	-3.304	1.674	9.380	1505.495	1504.029	1509.890	3.924	0.916	-6.183	-5.971	-0.153	8.421
391439.362	NaN	-3.315	1.663	9.380	1504.762	1503.297	1509.890	3.908	0.931	-6.092	-6.048	-0.153	8.268
391440.338	NaN	-3.304	1.685	9.380	1506.227	1504.762	1511.355	3.725	0.809	-6.046	-5.971	-0.230	8.421
391441.315	NaN	-3.315	1.674	9.359	1504.762	1504.029	1509.890	3.863	0.779	-5.802	-5.971	-0.153	8.344
391442.291	NaN	-3.293	1.685	9.359	1505.495	1503.297	1509.158	3.939	0.763	-5.832	-6.048	-0.230	8.268
391443.268	NaN	-3.293	1.674	9.359	1504.029	1504.029	1509.158	3.985	0.885	-5.954	-6.048	-0.230	8.268
391444.244	NaN	-3.293	1.685	9.359	1505.495	1504.029	1509.890	3.908	0.733	-6.031	-5.895	-0.230	8.344
391445.221	NaN	-3.293	1.685	9.359	1506.227	1503.297	1510.623	3.832	0.718	-6.122	-5.971	-0.306	8.344
391446.198	NaN	-3.293	1.663	9.348	1506.227	1504.029	1509.158	3.710	0.840	-6.137	-5.971	-0.230	8.191
391447.174	NaN	-3.293	1.663	9.348	1504.762	1503.297	1509.890	3.603	0.885	-5.878	-5.895	-0.230	8.421
391448.151	NaN	-3.304	1.663	9.348	1506.227	1503.297	1509.158	4.061	0.779	-6.000	-6.048	-0.077	8.115
391449.127	NaN	-3.293	1.663	9.359	1506.227	1504.029	1510.623	4.260	0.763	-6.061	-5.971	-0.230	8.268
391450.104	NaN	-3.293	1.674	9.359	1504.762	1504.762	1509.890	4.000	0.779	-5.985	-5.895	-0.153	8.268
391451.080	NaN	-3.304	1.663	9.370	1505.495	1504.029	1509.890	3.847	0.855	-6.031	-6.048	-0.230	8.344
391452.057	NaN	-3.304	1.663	9.370	1505.495	1504.029	1509.890	3.740	0.870	-6.015	-5.971	-0.230	8.268
391453.033	NaN	-3.304	1.663	9.370	1505.495	1504.762	1509.890	3.817	0.931	-6.092	-5.895	-0.153	8.421
391454.010	NaN	-3.293	1.663	9.380	1506.227	1504.029	1510.623	3.817	0.931	-6.153	-6.124	0.000	8.268
391454.987	NaN	-3.293	1.652	9.370	1505.495	1504.029	1510.623	3.771	0.855	-5.893	-5.895	-0.306	8.268
391455.963	NaN	-3.283	1.652	9.370	1504.762	1504.762	1510.623	3.695	0.718	-5.878	-5.971	-0.306	8.268
391456.940	NaN	-3.283	1.641	9.359	1504.029	1504.029	1509.158	3.557	0.748	-6.229	-6.048	-0.153	8.268
391457.916	NaN	-3.283	1.663	9.370	1506.960	1504.762	1509.890	3.664	0.794	-6.168	-5.971	-0.077	8.191
391458.893	NaN	-3.283	1.652	9.359	1506.227	1504.029	1509.890	3.893	0.840	-6.031	-5.971	-0.153	8.268
391459.869	NaN	-3.283	1.663	9.370	1505.495	1504.029	1509.890	3.908	0.794	-5.893	-5.895	-0.077	8.344
391460.846	NaN	-3.283	1.641	9.370	1505.495	1504.029	1510.623	3.786	0.748	-5.969	-5.971	-0.153	8.268
391461.823	NaN	-3.304	1.641	9.370	1504.762	1503.297	1510.623	3.634	0.748	-6.046	-6.048	-0.153	8.191
391462.799	NaN	-3.283	1.652	9.370	1505.495	1504.762	1510.623	3.695	0.779	-6.198	-5.971	-0.153	8.421
391463.776	NaN	-3.283	1.652	9.348	1504.762	1504.762	1509.890	4.137	0.824	-6.168	-6.048	-0.153	8.344
391464.752	NaN	-3.283	1.652	9.359	1505.495	1504.029	1509.890	4.305	0.794	-5.954	-5.895	-0.077	8.344
391465.729	NaN	-3.283	1.641	9.359	1506.227	1504.029	1509.890	3.954	0.794	-5.771	-5.971	-0.153	8.421
391466.705	NaN	-3.293	1.652	9.370	1506.227	1504.762	1509.890	3.710	0.687	-5.954	-5.971	-0.153	8.344
391467.682	NaN	-3.293	1.663	9.380	1506.227	1503.297	1510.623	3.679	0.748	-6.122	-5.971	-0.153	8.268
391468.658	NaN	-3.293	1.663	9.380	1505.495	1504.762	1509.890	3.710	0.763	-6.092	-5.895	-0.153	8.421
391469.635	NaN	-3.293	1.663	9.380	1505.495	1503.297	1509.158	3.725	0.763	-6.061	-6.048	-0.153	8.191
391470.612	NaN	-3.304	1.663	9.370	1505.495	1504.029	1510.623	3.893	0.641	-6.183	-5.971	-0.153	8.268
391471.588	NaN	-3.304	1.652	9.359	1504.762	1503.297	1508.425	4.000	0.763	-6.122	-5.971	-0.230	8.268
391472.565	NaN	-3.283	1.663	9.359	1505.495	1504.029	1510.623	3.924	0.565	-5.985	-6.048	-0.230	8.268
391473.541	NaN	-3.293	1.663	9.348	1505.495	1504.029	1510.623	3.817	0.550	-5.908	-5.971	-0.230	8.421
391474.518	NaN	-3.293	1.663	9.348	1504.762	1503.297	1509.890	4.000	0.855	-6.061	-5.971	-0.153	8.191
391475.494	NaN	-3.283	1.674	9.348	1506.227	1504.029	1510.623	3.863	1.008	-5.969	-5.971	-0.230	8.268
391476.471	NaN	-3.293	1.652	9.348	1505.495	1503.297	1510.623	3.618	0.855	-5.924	-6.048	-0.153	8.344
391477.448	NaN	-3.293	1.652	9.348	1504.762	1504.029	1510.623	3.588	0.870	-5.908	-5.971	-0.153	8.191
391478.424	NaN	-3.293	1.641	9.348	1505.495	1503.297	1509.158	3.710	0.824	-5.756	-6.048	-0.230	8.191
391479.401	NaN	-3.293	1.641	9.348	1504.762	1501.832	1508.425	3.878	0.855	-5.847	-5.971	-0.306	8.268
391480.377	NaN	-3.293	1.641	9.359	1506.227	1504.762	1509.890	4.122	0.718	-6.137	-5.971	-0.230	8.421
391481.354	NaN	-3.315	1.641	9.348	1507.692	1503.297	1509.890	4.076	0.733	-6.122	-5.971	-0.153	8.268
391482.330	NaN	-3.304	1.641	9.359	1504.029	1503.297	1509.890	3.878	0.580	-6.092	-5.818	-0.153	8.268
391483.307	NaN	-3.293	1.652	9.359	1504.762	1502.564	1509.158	3.740	0.504	-6.046	-5.971	-0.153	8.344
391484.283	NaN	-3.293	1.663	9.348	1505.495	1502.564	1510.623	3.603	0.595	-5.939	-5.971	-0.153	8.344
391485.260	NaN	-3.304	1.641	9.337	1504.762	1504.029	1509.890	3.908	0.748	-6.000	-5.971	-0.306	8.268
391486.237	NaN	-3.304	1.630	9.337	1505.495	1503.297	1509.158	3.939	0.702	-6.061	-6.048	-0.230	8.268
391487.213	NaN	-3.283	1.652	9.337	1505.495	1504.029	1511.355	3.832	0.733	-6.000	-6.048	-0.153	8.268
391488.190	NaN	-3.293	1.652	9.348	1504.029	1504.029	1509.890	3.863	0.672	-5.954	-6.048	-0.230	8.115
391489.166	NaN	-3.283	1.652	9.359	1505.495	1503.297	1509.890	3.878	0.718	-5.969	-6.048	-0.153	8.268
391490.143	NaN	-3.293	1.652	9.359	1505.495	1504.762	1510.623	3.939	0.763	-6.214	-5.895	-0.306	8.191
391491.119	NaN	-3.293	1.663	9.359	1506.227	1504.762	1510.623	3.786	0.702	-6.275	-6.048	-0.153	8.498
391492.096	NaN	-3.283	1.652	9.370	1505.495	1504.029	1510.623	3.527	0.595	-6.137	-5.818	-0.306	8.191
391493.073	NaN	-3.293	1.652	9.370	1505.495	1504.762	1509.158	3.573	0.870	-5.954	-5.895	-0.230	8.268
391494.049	NaN	-3.293	1.663	9.370	1505.495	1504.762	1511.355	3.817	0.916	-6.168	-5.818	-0.153	8.344
391495.026	NaN	-3.293	1.663	9.359	1506.960	1504.029	1510.623	4.122	0.687	-6.427	-5.971	-0.153	8.344
391496.002	NaN	-3.304	1.652	9.359	1505.495	1503.297	1510.623	4.244	0.656	-6.290	-5.895	-0.230	8.191
391496.979	NaN	-3.304	1.652	9.348	1506.227	1504.029	1510.623	3.969	0.870	-6.244	-6.124	-0.230	8.344
391497.955	NaN	-3.304	1.663	9.359	1505.495	1504.762	1509.158	3.679	0.870	-6.031	-6.048	-0.153	8.191
