Timestamp	PC Timestamp	Low Noise Accelerometer X	Low Noise Accelerometer Y	Low Noise Accelerometer Z	Int A12	Int A13	Int A14	Gyroscope X	Gyroscope Y	Gyroscope Z	Wide Range Accelerometer X	Wide Range Accelerometer Y	Wide Range Accelerometer Z
421180.573	NaN	-3.250	1.293	9.413	1505.495	1504.029	1510.623	-10.229	-1.405	11.695	-5.895	-0.536	8.344
421181.549	NaN	-3.228	1.304	9.402	1505.495	1504.762	1509.890	-10.229	-1.481	11.542	-5.895	-0.612	8.191
421182.526	NaN	-3.217	1.293	9.413	1505.495	1503.297	1509.890	-10.137	-1.573	11.435	-5.742	-0.612	8.421
421183.502	NaN	-3.217	1.293	9.402	1505.495	1504.762	1510.623	-10.031	-1.557	11.481	-5.895	-0.689	8.268
421184.479	NaN	-3.228	1.304	9.391	1505.495	1503.297	1511.355	-10.015	-1.389	11.481	-5.971	-0.536	8.421
421185.455	NaN	-3.228	1.304	9.380	1505.495	1503.297	1510.623	-10.076	-1.344	11.511	-5.895	-0.536	8.421
421186.432	NaN	-3.228	1.293	9.391	1504.762	1503.297	1509.890	-10.229	-1.344	11.511	-5.818	-0.612	8.344
421187.408	NaN	-3.228	1.315	9.391	1505.495	1503.297	1509.158	-10.137	-1.328	11.557	-5.895	-0.612	8.191
421188.385	NaN	-3.228	1.304	9.391	1504.762	1504.029	1509.890	-10.183	-1.313	11.817	-5.895	-0.612	8.115
421189.362	NaN	-3.239	1.293	9.391	1505.495	1504.029	1509.890	-10.076	-1.328	11.588	-5.971	-0.536	8.344
421190.338	NaN	-3.228	1.304	9.402	1506.227	1504.029	1510.623	-9.924	-1.328	11.435	-5.971	-0.536	8.344
421191.315	NaN	-3.217	1.293	9.402	1506.227	1504.029	1509.890	-10.031	-1.344	11.435	-5.895	-0.689	8.421
421192.291	NaN	-3.207	1.293	9.413	1505.495	1504.029	1510.623	-10.397	-1.328	11.557	-5.971	-0.536	8.344
421193.268	NaN	-3.217	1.283	9.413	1505.495	1503.297	1511.355	-10.489	-1.359	11.573	-5.818	-0.536	8.268
421194.244	NaN	-3.207	1.283	9.413	1506.227	1504.029	1509.158	-10.107	-1.252	11.496	-5.895	-0.612	8.344
421195.221	NaN	-3.207	1.293	9.413	1505.495	1504.029	1510.623	-10.015	-1.374	11.466	-5.818	-0.459	8.115
421196.198	NaN	-3.207	1.283	9.402	1503.297	1504.029	1510.623	-10.076	-1.466	11.389	-6.048	-0.459	8.268
421197.174	NaN	-3.228	1.283	9.402	1504.762	1503.297	1510.623	-10.107	-1.374	11.252	-5.895	-0.612	8.344
421198.151	NaN	-3.228	1.272	9.391	1505.495	1504.029	1509.158	-10.061	-1.282	11.252	-5.818	-0.536	8.344
421199.127	NaN	-3.239	1.283	9.402	1506.227	1504.029	1510.623	-9.969	-1.206	11.450	-5.971	-0.689	8.268
421200.104	NaN	-3.217	1.293	9.413	1504.762	1504.029	1510.623	-9.985	-1.145	11.511	-5.971	-0.689	8.268
421201.080	NaN	-3.217	1.293	9.424	1505.495	1503.297	1510.623	-9.939	-1.221	11.298	-5.971	-0.383	8.268
421202.057	NaN	-3.228	1.293	9.424	1505.495	1504.029	1509.158	-10.244	-1.313	11.282	-5.971	-0.536	8.421
421203.033	NaN	-3.239	1.293	9.402	1504.762	1503.297	1509.158	-10.305	-1.282	11.252	-5.971	-0.612	8.268
421204.010	NaN	-3.239	1.315	9.413	1506.227	1503.297	1511.355	-10.321	-1.267	11.542	-5.895	-0.536	8.421
421204.987	NaN	-3.239	1.315	9.413	1505.495	1503.297	1509.890	-10.443	-1.344	11.710	-5.818	-0.612	8.344
421205.963	NaN	-3.239	1.304	9.413	1504.762	1503.297	1510.623	-10.076	-1.344	11.542	-5.895	-0.612	8.268
421206.940	NaN	-3.239	1.293	9.413	1504.029	1504.029	1510.623	-9.969	-1.374	11.420	-5.895	-0.612	8.498
421207.916	NaN	-3.239	1.304	9.424	1506.960	1504.029	1510.623	-10.076	-1.374	11.344	-5.895	-0.536	8.268
421208.893	NaN	-3.228	1.304	9.424	1505.495	1504.029	1509.890	-10.092	-1.405	11.496	-5.818	-0.612	8.268
421209.869	NaN	-3.239	1.293	9.413	1504.029	1504.029	1510.623	-10.061	-1.405	11.603	-5.818	-0.536	8.421
421210.846	NaN	-3.217	1.315	9.424	1504.762	1503.297	1510.623	-10.153	-1.359	11.588	-5.971	-0.383	8.344
421211.823	NaN	-3.228	1.315	9.413	1504.762	1504.029	1509.158	-10.153	-1.313	11.405	-5.818	-0.536	8.344
421212.799	NaN	-3.228	1.315	9.413	1505.495	1504.762	1510.623	-10.107	-1.237	11.389	-5.895	-0.612	8.268
421213.776	NaN	-3.228	1.304	9.413	1504.762	1504.029	1509.158	-10.183	-1.145	11.634	-6.048	-0.689	8.344
421214.752	NaN	-3.217	1.315	9.435	1505.495	1504.029	1510.623	-10.183	-1.267	11.511	-5.895	-0.612	8.421
421215.729	NaN	-3.207	1.315	9.424	1505.495	1503.297	1510.623	-10.244	-1.359	11.389	-5.818	-0.536	8.344
421216.705	NaN	-3.207	1.304	9.424	1506.227	1504.029	1512.088	-10.076	-1.206	11.435	-5.971	-0.612	8.421
421217.682	NaN	-3.207	1.315	9.424	1504.762	1504.762	1510.623	-10.076	-1.176	11.481	-5.895	-0.689	8.421
421218.658	NaN	-3.207	1.304	9.413	1506.227	1503.297	1510.623	-10.183	-1.298	11.435	-5.818	-0.536	8.421
421219.635	NaN	-3.207	1.315	9.402	1505.495	1504.762	1509.158	-10.122	-1.374	11.405	-5.895	-0.536	8.421
421220.612	NaN	-3.217	1.304	9.402	1505.495	1504.029	1509.158	-10.137	-1.282	11.466	-5.895	-0.536	8.344
421221.588	NaN	-3.228	1.304	9.402	1504.762	1504.029	1509.158	-9.939	-1.282	11.252	-5.818	-0.459	8.268
421222.565	NaN	-3.228	1.304	9.391	1504.762	1503.297	1509.890	-9.908	-1.191	11.221	-5.895	-0.612	8.421
421223.541	NaN	-3.228	1.304	9.380	1504.762	1504.029	1509.890	-9.969	-1.191	11.573	-5.971	-0.612	8.344
421224.518	NaN	-3.217	1.304	9.391	1504.029	1504.029	1509.890	-10.153	-1.405	11.573	-5.895	-0.612	8.421
421225.494	NaN	-3.228	1.293	9.380	1505.495	1504.029	1510.623	-10.107	-1.313	11.313	-5.971	-0.612	8.344
421226.471	NaN	-3.228	1.304	9.380	1506.227	1504.762	1510.623	-10.122	-1.069	11.328	-5.971	-0.612	8.344
421227.448	NaN	-3.228	1.293	9.391	1504.762	1504.029	1510.623	-10.122	-1.023	11.466	-5.895	-0.536	8.268
421228.424	NaN	-3.217	1.304	9.391	1506.227	1504.029	1510.623	-10.260	-1.252	11.496	-5.971	-0.536	8.268
421229.401	NaN	-3.228	1.293	9.402	1504.762	1504.029	1510.623	-10.290	-1.298	11.313	-5.818	-0.612	8.421
421230.377	NaN	-3.217	1.293	9.380	1505.495	1504.762	1509.158	-10.153	-1.221	11.237	-5.895	-0.536	8.268
421231.354	NaN	-3.217	1.293	9.380	1505.495	1504.029	1511.355	-10.290	-1.221	11.435	-5.971	-0.612	8.421
421232.330	NaN	-3.228	1.293	9.380	1504.762	1504.029	1509.890	-10.198	-1.145	11.527	-5.895	-0.459	8.191
421233.307	NaN	-3.228	1.293	9.391	1504.762	1502.564	1509.890	-10.015	-1.191	11.435	-5.971	-0.459	8.268
421234.283	NaN	-3.228	1.293	9.402	1504.029	1503.297	1509.890	-10.076	-1.313	11.282	-5.971	-0.459	8.191
421235.260	NaN	-3.217	1.293	9.413	1505.495	1504.029	1510.623	-10.290	-1.359	11.221	-5.895	-0.536	8.498
421236.237	NaN	-3.217	1.293	9.402	1504.762	1504.029	1511.355	-10.198	-1.237	11.298	-5.971	-0.536	8.344
421237.213	NaN	-3.217	1.293	9.413	1504.762	1502.564	1511.355	-9.954	-1.145	11.359	-5.895	-0.689	8.344
421238.190	NaN	-3.217	1.293	9.402	1505.495	1504.029	1510.623	-9.832	-1.206	11.496	-5.895	-0.459	8.191
421239.166	NaN	-3.217	1.304	9.391	1505.495	1504.762	1511.355	-10.015	-1.344	11.481	-6.048	-0.612	8.115
421240.143	NaN	-3.207	1.293	9.402	1505.495	1504.762	1511.355	-9.954	-1.221	11.435	-6.048	-0.536	8.344
421241.119	NaN	-3.217	1.315	9.391	1505.495	1504.029	1509.890	-9.817	-1.344	11.435	-5.971	-0.536	8.421
421242.096	NaN	-3.228	1.293	9.402	1504.762	1504.029	1509.890	-9.832	-1.374	11.557	-5.971	-0.536	8.344
421243.073	NaN	-3.228	1.293	9.402	1504.762	1504.029	1508.425	-10.107	-1.282	11.389	-5.971	-0.459	8.421
421244.049	NaN	-3.207	1.293	9.402	1505.495	1504.029	1510.623	-10.076	-1.237	11.176	-5.971	-0.536	8.268
421245.026	NaN	-3.207	1.293	9.402	1504.762	1504.029	1511.355	-10.046	-1.191	11.374	-5.895	-0.536	8.421
421246.002	NaN	-3.217	1.293	9.402	1504.762	1504.029	1512.088	-9.863	-1.130	11.389	-5.895	-0.612	8.344
421246.979	NaN	-3.217	1.304	9.391	1505.495	1504.029	1510.623	-9.908	-1.267	11.221	-5.971	-0.459	8.344
421247.955	NaN	-3.217	1.304	9.391	1504.762	1504.762	1509.890	-9.954	-1.374	11.191	-5.818	-0.383	8.344
421248.932	NaN	-3.217	1.315	9.402	1504.762	1504.762	1509.158	-9.985	-1.405	11.176	-5.971	-0.459	8.268
421249.908	NaN	-3.217	1.304	9.391	1505.495	1503.297	1509.890	-10.122	-1.420	11.481	-5.971	-0.612	8.191
421250.885	NaN	-3.217	1.304	9.391	1504.762	1503.297	1509.890	-10.046	-1.252	11.496	-5.971	-0.536	8.421
421251.862	NaN	-3.207	1.293	9.391	1505.495	1503.297	1510.623	-9.893	-1.267	11.359	-5.895	-0.536	8.344
421256.744	NaN	-3.239	1.293	9.402	1505.495	1503.297	1509.890	-10.015	-1.252	11.206	-5.895	-0.612	8.344
421257.721	NaN	-3.228	1.293	9.402	1506.227	1504.029	1511.355	-9.924	-1.374	11.282	-5.971	-0.612	8.498
421258.698	NaN	-3.239	1.293	9.391	1504.762	1503.297	1509.158	-9.740	-1.313	11.359	-6.048	-0.536	8.498
421259.674	NaN	-3.239	1.304	9.391	1504.029	1503.297	1508.425	-10.000	-1.206	11.344	-5.971	-0.612	8.498
421260.651	NaN	-3.217	1.304	9.391	1505.495	1503.297	1510.623	-10.107	-1.115	11.267	-5.818	-0.689	8.191
421261.627	NaN	-3.217	1.315	9.391	1505.495	1504.029	1509.890	-10.061	-1.160	11.237	-5.895	-0.459	8.344
421262.604	NaN	-3.217	1.304	9.391	1505.495	1504.762	1510.623	-10.046	-1.115	11.450	-5.895	-0.536	8.268
421263.580	NaN	-3.217	1.315	9.391	1505.495	1503.297	1510.623	-10.229	-1.191	11.557	-5.971	-0.536	8.421
421264.557	NaN	-3.207	1.304	9.391	1505.495	1504.029	1510.623	-10.122	-1.176	11.435	-5.818	-0.536	8.268
421265.533	NaN	-3.217	1.304	9.391	1505.495	1504.029	1509.890	-10.061	-1.038	11.450	-5.818	-0.612	8.344
421266.510	NaN	-3.207	1.304	9.391	1505.495	1504.762	1511.355	-9.863	-0.992	11.313	-5.971	-0.612	8.421
421267.487	NaN	-3.207	1.304	9.391	1505.495	1504.029	1511.355	-9.786	-1.160	11.206	-5.818	-0.612	8.421
421268.463	NaN	-3.217	1.304	9.402	1506.227	1504.029	1509.158	-9.908	-1.237	11.267	-5.895	-0.536	8.344
421269.440	NaN	-3.217	1.315	9.402	1504.762	1505.495	1509.158	-9.924	-1.252	11.420	-5.742	-0.459	8.421
421270.416	NaN	-3.228	1.304	9.402	1504.762	1503.297	1509.158	-9.893	-1.344	11.328	-5.895	-0.536	8.344
421271.393	NaN	-3.228	1.315	9.413	1506.227	1504.029	1512.088	-10.015	-1.389	11.252	-5.895	-0.612	8.115
421272.369	NaN	-3.228	1.315	9.413	1504.762	1504.029	1512.088	-10.015	-1.374	11.344	-5.895	-0.536	8.344
421273.346	NaN	-3.239	1.315	9.413	1504.762	1504.762	1510.623	-10.076	-1.206	11.267	-5.895	-0.536	8.344
421274.323	NaN	-3.228	1.304	9.413	1504.762	1504.762	1510.623	-10.198	-1.328	11.359	-5.895	-0.536	8.421
421275.299	NaN	-3.217	1.304	9.413	1505.495	1504.029	1511.355	-10.015	-1.481	11.328	-5.818	-0.536	8.421
421276.276	NaN	-3.228	1.304	9.413	1506.227	1504.762	1510.623	-9.802	-1.328	11.115	-5.971	-0.689	8.421
421277.252	NaN	-3.217	1.315	9.402	1504.762	1504.029	1511.355	-9.924	-1.237	11.160	-5.895	-0.612	8.344
421278.229	NaN	-3.217	1.304	9.402	1505.495	1503.297	1510.623	-9.878	-1.328	11.405	-5.742	-0.536	8.344
421279.205	NaN	-3.217	1.304	9.402	1506.227	1504.762	1508.425	-9.725	-1.389	11.420	-5.971	-0.612	8.344
421280.182	NaN	-3.217	1.304	9.402	1504.762	1504.029	1510.623	-9.740	-1.267	11.405	-5.818	-0.689	8.344
421281.158	NaN	-3.217	1.304	9.413	1504.762	1503.297	1511.355	-10.031	-1.191	11.252	-5.818	-0.536	8.268
421282.135	NaN	-3.217	1.293	9.413	1505.495	1504.029	1511.355	-10.183	-1.221	11.206	-5.818	-0.612	8.344
421283.112	NaN	-3.217	1.293	9.413	1504.762	1504.762	1512.088	-10.046	-1.191	11.282	-5.895	-0.612	8.498
421284.088	NaN	-3.217	1.283	9.424	1504.029	1503.297	1510.623	-10.046	-1.206	11.282	-5.895	-0.612	8.421
421285.065	NaN	-3.196	1.293	9.424	1504.762	1503.297	1509.890	-9.878	-1.145	11.313	-5.895	-0.459	8.268
421286.041	NaN	-3.207	1.304	9.424	1505.495	1504.029	1512.088	-9.969	-1.099	11.389	-5.895	-0.689	8.344
421287.018	NaN	-3.217	1.304	9.413	1504.762	1503.297	1509.158	-10.061	-1.053	11.344	-5.895	-0.459	8.268
421287.994	NaN	-3.228	1.304	9.413	1504.762	1504.029	1510.623	-9.954	-1.145	11.206	-5.818	-0.536	8.191
421288.971	NaN	-3.217	1.304	9.424	1505.495	1504.029	1512.088	-9.985	-1.267	11.115	-5.895	-0.612	8.344
421289.948	NaN	-3.217	1.315	9.435	1504.762	1504.762	1511.355	-10.137	-1.160	11.160	-5.895	-0.612	8.191
421290.924	NaN	-3.217	1.315	9.435	1504.762	1504.762	1510.623	-10.092	-1.206	11.115	-5.971	-0.536	8.344
421291.901	NaN	-3.217	1.304	9.424	1504.029	1504.029	1511.355	-10.122	-1.298	11.252	-5.818	-0.612	8.191
421292.877	NaN	-3.228	1.304	9.413	1505.495	1504.029	1510.623	-10.107	-1.359	11.298	-5.895	-0.383	8.344
421293.854	NaN	-3.217	1.304	9.413	1505.495	1504.762	1508.425	-10.061	-1.237	11.237	-5.818	-0.459	8.421
421294.830	NaN	-3.228	1.293	9.413	1506.227	1504.029	1509.890	-10.031	-1.206	11.145	-5.971	-0.612	8.498
421295.807	NaN	-3.217	1.293	9.413	1503.297	1503.297	1509.890	-9.908	-1.252	11.130	-5.818	-0.612	8.344
421296.783	NaN	-3.217	1.304	9.413	1504.762	1501.832	1509.158	-9.863	-1.267	11.267	-5.971	-0.536	8.268
421297.760	NaN	-3.228	1.293	9.413	1504.029	1504.029	1509.158	-9.878	-1.206	11.496	-5.971	-0.536	8.421
421298.737	NaN	-3.217	1.315	9.402	1504.762	1503.297	1510.623	-9.969	-1.023	11.221	-5.742	-0.689	8.268
421299.713	NaN	-3.228	1.315	9.402	1505.495	1504.029	1509.890	-10.031	-1.115	11.206	-5.895	-0.536	8.344
421300.690	NaN	-3.228	1.315	9.402	1504.762	1503.297	1508.425	-10.061	-1.221	11.405	-6.048	-0.612	8.344
421301.666	NaN	-3.239	1.315	9.391	1504.762	1503.297	1510.623	-10.168	-1.221	11.405	-6.048	-0.536	8.344
421302.643	NaN	-3.239	1.304	9.391	1504.762	1504.029	1509.158	-10.031	-1.237	11.359	-5.895	-0.612	8.498
421303.619	NaN	-3.239	1.315	9.391	1504.762	1504.029	1509.890	-10.107	-1.344	11.282	-5.971	-0.689	8.268
421304.596	NaN	-3.239	1.315	9.391	1504.762	1503.297	1510.623	-9.985	-1.252	11.267	-5.895	-0.536	8.344
421305.573	NaN	-3.239	1.304	9.391	1502.564	1504.029	1509.158	-9.679	-1.099	11.008	-5.818	-0.536	8.268
421306.549	NaN	-3.228	1.315	9.380	1505.495	1504.029	1510.623	-9.832	-1.176	10.947	-5.895	-0.459	8.191
421307.526	NaN	-3.228	1.293	9.391	1504.762	1504.029	1509.890	-10.031	-1.221	11.191	-5.971	-0.536	8.268
421308.502	NaN	-3.228	1.293	9.391	1504.762	1501.832	1509.890	-10.031	-1.099	11.176	-5.895	-0.536	8.268
421309.479	NaN	-3.217	1.293	9.402	1504.762	1504.762	1511.355	-10.000	-1.069	11.252	-5.971	-0.459	8.421
421310.455	NaN	-3.228	1.283	9.402	1504.762	1503.297	1509.158	-9.817	-1.053	11.191	-5.895	-0.612	8.344
421311.432	NaN	-3.228	1.293	9.402	1505.495	1503.297	1509.158	-9.740	-1.084	11.176	-5.818	-0.459	8.498
421312.408	NaN	-3.228	1.293	9.391	1504.762	1502.564	1509.158	-9.771	-1.084	11.053	-5.895	-0.459	8.344
421313.385	NaN	-3.207	1.293	9.391	1504.762	1503.297	1509.158	-9.893	-1.206	11.130	-5.895	-0.689	8.498
421314.362	NaN	-3.228	1.293	9.391	1505.495	1503.297	1510.623	-10.015	-1.053	11.084	-5.971	-0.536	8.344
421315.338	NaN	-3.228	1.293	9.391	1501.099	1503.297	1509.890	-9.802	-1.038	10.962	-5.742	-0.459	8.421
421316.315	NaN	-3.217	1.304	9.402	1506.227	1504.762	1511.355	-9.817	-1.145	11.282	-5.818	-0.766	8.344
421317.291	NaN	-3.217	1.293	9.391	1503.297	1503.297	1509.890	-9.893	-1.191	11.221	-5.971	-0.536	8.344
421318.268	NaN	-3.217	1.304	9.402	1504.029	1504.762	1510.623	-9.878	-1.160	11.237	-5.818	-0.612	8.344
421319.244	NaN	-3.217	1.293	9.391	1505.495	1503.297	1509.158	-9.878	-1.069	11.313	-5.895	-0.536	8.421
421320.221	NaN	-3.217	1.304	9.391	1505.495	1502.564	1509.158	-9.832	-1.084	11.420	-5.895	-0.536	8.191
421321.198	NaN	-3.207	1.304	9.402	1504.762	1502.564	1509.890	-9.969	-1.130	11.298	-5.895	-0.536	8.344
421322.174	NaN	-3.207	1.315	9.402	1504.029	1504.029	1511.355	-10.015	-1.191	11.282	-5.895	-0.536	8.268
421323.151	NaN	-3.217	1.304	9.391	1504.029	1504.029	1509.158	-10.122	-1.160	11.115	-5.971	-0.536	8.421
421324.127	NaN	-3.228	1.315	9.391	1505.495	1504.029	1511.355	-10.031	-1.160	11.130	-5.895	-0.689	8.421
421325.104	NaN	-3.217	1.304	9.391	1505.495	1504.762	1510.623	-9.832	-1.069	11.191	-5.895	-0.536	8.421
421326.080	NaN	-3.217	1.293	9.391	1504.762	1503.297	1509.158	-9.817	-1.176	11.206	-5.818	-0.689	8.344
421327.057	NaN	-3.207	1.304	9.402	1504.029	1504.029	1509.890	-9.878	-1.206	11.221	-6.048	-0.612	8.421
421328.033	NaN	-3.207	1.293	9.402	1504.762	1504.029	1509.158	-9.969	-1.053	11.221	-5.971	-0.536	8.344
421329.010	NaN	-3.207	1.304	9.402	1505.495	1504.029	1510.623	-10.305	-1.176	11.328	-5.818	-0.536	8.344
421329.987	NaN	-3.196	1.304	9.391	1505.495	1503.297	1509.890	-10.214	-1.359	11.237	-5.971	-0.459	8.344
421330.963	NaN	-3.185	1.304	9.391	1506.227	1504.762	1509.890	-9.985	-1.344	11.221	-5.895	-0.306	8.344
421331.940	NaN	-3.196	1.293	9.391	1505.495	1504.029	1509.890	-9.786	-1.206	11.237	-5.895	-0.536	8.344
421332.916	NaN	-3.207	1.293	9.391	1504.762	1504.029	1510.623	-9.664	-1.145	11.252	-5.971	-0.612	8.268
421333.893	NaN	-3.217	1.304	9.402	1505.495	1504.029	1510.623	-10.015	-1.099	11.267	-5.895	-0.612	8.344
421334.869	NaN	-3.228	1.304	9.402	1505.495	1504.029	1510.623	-10.076	-1.237	11.191	-5.895	-0.536	8.268
421335.846	NaN	-3.228	1.293	9.402	1505.495	1504.029	1510.623	-9.954	-1.298	11.069	-5.818	-0.612	8.421
421336.823	NaN	-3.239	1.304	9.391	1504.762	1504.762	1509.890	-9.802	-1.191	11.115	-5.895	-0.612	8.268
421337.799	NaN	-3.228	1.315	9.380	1505.495	1504.029	1510.623	-9.878	-1.328	11.221	-5.895	-0.459	8.344
421338.776	NaN	-3.228	1.315	9.380	1505.495	1504.029	1510.623	-9.908	-1.359	11.237	-5.971	-0.536	8.344
421339.752	NaN	-3.217	1.315	9.380	1504.762	1504.029	1510.623	-9.908	-1.344	11.145	-5.971	-0.689	8.344
421340.729	NaN	-3.207	1.304	9.380	1505.495	1504.029	1509.890	-9.679	-1.099	10.962	-5.971	-0.459	8.344
421341.705	NaN	-3.217	1.304	9.370	1505.495	1503.297	1509.158	-9.756	-1.084	11.115	-5.818	-0.536	8.421
421342.682	NaN	-3.207	1.315	9.380	1505.495	1504.029	1510.623	-9.893	-1.176	11.298	-5.971	-0.612	8.268
421343.658	NaN	-3.207	1.315	9.380	1505.495	1503.297	1511.355	-9.969	-1.359	11.008	-6.048	-0.536	8.268
421344.635	NaN	-3.217	1.315	9.391	1504.762	1504.762	1510.623	-9.740	-1.374	10.840	-5.895	-0.689	8.268
421345.612	NaN	-3.228	1.304	9.380	1504.762	1504.029	1509.158	-9.878	-1.084	11.023	-5.971	-0.459	8.344
421346.588	NaN	-3.217	1.304	9.391	1504.762	1504.029	1511.355	-10.046	-0.962	11.099	-5.818	-0.689	8.421
421347.565	NaN	-3.228	1.304	9.402	1506.227	1502.564	1509.890	-9.908	-1.099	11.191	-5.818	-0.536	8.421
421348.541	NaN	-3.217	1.315	9.402	1505.495	1504.029	1511.355	-9.832	-1.206	11.023	-5.895	-0.459	8.268
421349.518	NaN	-3.228	1.315	9.413	1504.762	1504.029	1510.623	-9.786	-1.267	10.916	-5.818	-0.612	8.191
421350.494	NaN	-3.228	1.293	9.413	1505.495	1504.029	1510.623	-9.664	-1.252	11.130	-5.971	-0.689	8.344
421351.471	NaN	-3.228	1.304	9.424	1505.495	1504.762	1510.623	-9.695	-1.267	11.328	-5.895	-0.536	8.268
421352.448	NaN	-3.228	1.293	9.413	1504.762	1504.029	1511.355	-9.771	-1.069	11.099	-6.048	-0.612	8.344
421353.424	NaN	-3.228	1.304	9.413	1504.762	1504.029	1509.890	-9.756	-0.977	10.931	-5.971	-0.612	8.268
421354.401	NaN	-3.228	1.293	9.413	1505.495	1503.297	1509.890	-9.664	-1.069	10.870	-5.742	-0.612	8.344
421355.377	NaN	-3.228	1.304	9.402	1504.762	1503.297	1509.158	-9.771	-1.176	10.962	-5.895	-0.612	8.268
421356.354	NaN	-3.228	1.304	9.402	1504.762	1503.297	1510.623	-10.076	-1.160	11.008	-5.971	-0.612	8.344
421357.330	NaN	-3.217	1.315	9.402	1505.495	1504.029	1510.623	-10.092	-1.053	11.115	-5.895	-0.536	8.268
421358.307	NaN	-3.239	1.315	9.402	1505.495	1504.029	1512.088	-9.924	-1.023	11.237	-5.665	-0.689	8.344
421359.283	NaN	-3.239	1.304	9.402	1504.762	1502.564	1509.158	-9.863	-1.160	11.206	-5.895	-0.536	8.191
421360.260	NaN	-3.228	1.315	9.391	1504.762	1504.762	1511.355	-9.954	-1.084	10.992	-5.895	-0.612	8.421
421361.237	NaN	-3.239	1.304	9.391	1504.762	1504.029	1511.355	-9.924	-1.115	10.916	-5.895	-0.612	8.191
421362.213	NaN	-3.228	1.304	9.402	1504.029	1502.564	1509.158	-10.168	-1.069	11.008	-5.818	-0.459	8.344
421363.190	NaN	-3.239	1.304	9.391	1506.227	1503.297	1510.623	-10.198	-1.053	11.084	-5.818	-0.612	8.268
421364.166	NaN	-3.228	1.304	9.402	1505.495	1504.029	1509.890	-10.092	-0.992	11.130	-5.971	-0.536	8.268
421365.143	NaN	-3.228	1.315	9.413	1504.762	1503.297	1511.355	-9.664	-1.023	11.130	-5.818	-0.536	8.268
421366.119	NaN	-3.239	1.315	9.424	1504.762	1504.029	1509.890	-9.466	-1.084	10.901	-5.895	-0.612	8.191
421367.096	NaN	-3.239	1.304	9.424	1505.495	1504.029	1509.158	-9.756	-1.176	10.870	-5.971	-0.612	8.268
421368.073	NaN	-3.250	1.293	9.424	1504.029	1504.029	1509.890	-9.969	-1.359	10.885	-5.971	-0.459	8.344
421369.049	NaN	-3.239	1.283	9.424	1505.495	1504.029	1509.890	-9.817	-1.237	11.099	-5.971	-0.383	8.421
421370.026	NaN	-3.228	1.293	9.413	1504.762	1504.762	1509.890	-9.740	-1.130	11.023	-5.895	-0.536	8.344
421371.002	NaN	-3.217	1.293	9.424	1506.227	1503.297	1509.158	-9.679	-1.099	10.931	-5.971	-0.536	8.191
421371.979	NaN	-3.228	1.293	9.424	1504.762	1504.762	1509.158	-9.878	-1.069	10.931	-5.971	-0.612	8.344
421372.955	NaN	-3.239	1.293	9.424	1505.495	1504.029	1510.623	-9.985	-1.206	10.748	-5.971	-0.459	8.344
421373.932	NaN	-3.239	1.293	9.424	1505.495	1504.029	1509.158	-10.107	-1.282	10.977	-5.895	-0.612	8.268
421374.908	NaN	-3.239	1.304	9.424	1506.227	1504.029	1509.890	-10.107	-1.328	11.053	-5.971	-0.612	8.268
421375.885	NaN	-3.239	1.293	9.413	1504.029	1504.762	1509.890	-10.076	-1.221	11.008	-5.818	-0.612	8.344
421376.862	NaN	-3.228	1.304	9.402	1504.762	1504.029	1511.355	-10.092	-1.053	10.901	-5.971	-0.459	8.498
421377.838	NaN	-3.228	1.304	9.402	1506.227	1504.762	1510.623	-9.908	-1.176	10.809	-5.895	-0.612	8.344
421378.815	NaN	-3.217	1.304	9.402	1505.495	1504.029	1510.623	-9.924	-1.313	10.992	-5.895	-0.459	8.421
421379.791	NaN	-3.228	1.304	9.391	1505.495	1504.029	1510.623	-9.969	-1.313	11.053	-6.048	-0.612	8.421
421380.768	NaN	-3.228	1.304	9.402	1505.495	1501.832	1508.425	-9.527	-1.252	11.038	-5.895	-0.612	8.268
421381.744	NaN	-3.228	1.315	9.413	1505.495	1503.297	1509.158	-9.786	-1.145	10.977	-5.895	-0.612	8.421
421382.721	NaN	-3.217	1.315	9.424	1506.960	1503.297	1511.355	-9.924	-0.977	10.992	-5.818	-0.536	8.191
421383.698	NaN	-3.228	1.315	9.413	1505.495	1503.297	1509.890	-9.817	-0.901	11.069	-5.895	-0.689	8.344
421384.674	NaN	-3.207	1.315	9.402	1504.762	1503.297	1508.425	-9.771	-1.099	11.130	-5.895	-0.459	8.191
421385.651	NaN	-3.228	1.304	9.402	1506.960	1503.297	1509.890	-9.771	-1.313	11.099	-5.895	-0.689	8.191
421386.627	NaN	-3.228	1.315	9.391	1506.227	1504.029	1510.623	-9.771	-1.298	10.977	-5.895	-0.536	8.421
421387.604	NaN	-3.217	1.304	9.402	1505.495	1504.762	1510.623	-9.725	-1.298	10.947	-5.818	-0.536	8.344
421388.580	NaN	-3.228	1.315	9.402	1505.495	1504.029	1509.890	-9.725	-1.053	11.008	-5.895	-0.612	8.191
421389.557	NaN	-3.228	1.315	9.413	1504.762	1503.297	1509.890	-9.740	-0.885	11.191	-5.971	-0.536	8.268
421390.533	NaN	-3.228	1.293	9.413	1506.227	1503.297	1510.623	-9.832	-0.901	11.115	-5.971	-0.536	8.421
421391.510	NaN	-3.228	1.293	9.413	1505.495	1504.762	1511.355	-9.634	-1.084	10.916	-5.971	-0.536	8.268
421392.487	NaN	-3.228	1.293	9.413	1504.762	1504.762	1509.890	-9.725	-1.191	11.084	-5.971	-0.612	8.421
421393.463	NaN	-3.217	1.293	9.424	1504.762	1504.029	1509.158	-9.817	-1.115	10.992	-5.895	-0.612	8.344
421394.440	NaN	-3.217	1.304	9.413	1504.029	1504.762	1510.623	-9.695	-1.069	10.947	-5.971	-0.612	8.191
421395.416	NaN	-3.228	1.293	9.402	1505.495	1504.762	1509.890	-9.618	-1.145	10.809	-5.971	-0.612	8.344
421396.393	NaN	-3.228	1.304	9.402	1504.762	1504.029	1510.623	-9.542	-1.038	10.885	-5.895	-0.612	8.268
421397.369	NaN	-3.217	1.293	9.402	1506.227	1503.297	1511.355	-9.557	-1.053	10.992	-5.971	-0.612	8.268
421398.346	NaN	-3.228	1.304	9.391	1504.762	1504.029	1509.158	-9.786	-1.099	10.992	-6.048	-0.689	8.421
421399.323	NaN	-3.228	1.293	9.380	1504.762	1504.029	1510.623	-9.939	-0.977	11.053	-6.048	-0.766	8.421
421400.299	NaN	-3.217	1.315	9.380	1506.227	1504.029	1511.355	-9.878	-0.977	11.069	-5.818	-0.536	8.344
421401.276	NaN	-3.228	1.315	9.391	1505.495	1504.029	1510.623	-9.664	-1.176	10.916	-5.895	-0.536	8.498
421402.252	NaN	-3.228	1.315	9.391	1504.762	1504.029	1509.890	-9.664	-1.267	10.977	-5.971	-0.612	8.344
421403.229	NaN	-3.228	1.293	9.380	1505.495	1504.029	1509.890	-9.695	-1.145	11.145	-5.742	-0.536	8.421
421404.205	NaN	-3.239	1.304	9.380	1504.762	1504.029	1509.158	-9.557	-1.130	11.084	-5.818	-0.612	8.421
421405.182	NaN	-3.228	1.293	9.391	1505.495	1504.029	1510.623	-9.573	-0.977	11.237	-5.895	-0.536	8.344
421406.158	NaN	-3.228	1.304	9.402	1506.227	1503.297	1509.158	-9.649	-0.855	11.267	-5.895	-0.536	8.268
421407.135	NaN	-3.239	1.304	9.391	1504.762	1504.029	1509.890	-9.542	-1.023	11.008	-5.971	-0.612	8.268
421408.112	NaN	-3.250	1.304	9.391	1504.029	1504.029	1509.158	-9.542	-1.115	10.901	-5.895	-0.536	8.344
421409.088	NaN	-3.239	1.304	9.402	1505.495	1503.297	1509.158	-9.634	-1.130	10.962	-5.895	-0.612	8.421
421410.065	NaN	-3.250	1.304	9.402	1506.227	1503.297	1509.890	-9.573	-1.099	10.901	-5.971	-0.536	8.344
421411.041	NaN	-3.228	1.304	9.402	1504.029	1502.564	1509.158	-9.557	-1.115	10.962	-6.124	-0.536	8.191
421412.018	NaN	-3.228	1.315	9.413	1504.029	1504.029	1508.425	-9.618	-1.008	11.099	-5.971	-0.536	8.421
421412.994	NaN	-3.228	1.304	9.413	1504.762	1502.564	1509.890	-9.740	-0.947	10.977	-5.895	-0.536	8.344
421413.971	NaN	-3.217	1.315	9.413	1505.495	1504.029	1511.355	-9.817	-0.916	10.840	-5.742	-0.459	8.344
421414.948	NaN	-3.239	1.293	9.391	1505.495	1503.297	1510.623	-9.954	-1.099	10.748	-5.895	-0.459	8.421
421415.924	NaN	-3.228	1.315	9.402	1505.495	1503.297	1509.890	-10.076	-1.206	10.840	-6.048	-0.459	8.191
421416.901	NaN	-3.239	1.304	9.402	1505.495	1504.029	1509.890	-9.817	-1.099	11.008	-5.895	-0.459	8.421
421417.877	NaN	-3.228	1.304	9.402	1504.762	1502.564	1509.890	-9.542	-1.053	11.008	-5.895	-0.612	8.421
421418.854	NaN	-3.217	1.304	9.402	1505.495	1504.029	1510.623	-9.618	-1.038	11.099	-5.971	-0.612	8.344
421419.830	NaN	-3.217	1.304	9.402	1506.227	1503.297	1511.355	-9.710	-1.069	11.053	-5.818	-0.383	8.191
421420.807	NaN	-3.217	1.304	9.402	1504.029	1501.832	1509.158	-9.542	-1.099	11.221	-5.818	-0.536	8.191
421421.783	NaN	-3.228	1.293	9.402	1506.227	1503.297	1509.890	-9.664	-0.931	11.008	-5.818	-0.612	8.268
421422.760	NaN	-3.228	1.293	9.402	1505.495	1502.564	1509.890	-10.076	-0.870	10.809	-5.818	-0.459	8.421
421423.737	NaN	-3.217	1.315	9.413	1506.227	1503.297	1510.623	-10.000	-1.130	10.733	-5.895	-0.536	8.268
421424.713	NaN	-3.217	1.315	9.402	1505.495	1504.762	1510.623	-9.832	-1.176	10.595	-5.895	-0.536	8.268
421425.690	NaN	-3.207	1.315	9.402	1504.762	1504.029	1509.890	-9.634	-1.053	10.855	-5.971	-0.536	8.344
421426.666	NaN	-3.217	1.315	9.391	1505.495	1504.762	1509.158	-9.542	-1.267	11.023	-5.895	-0.536	8.268
421427.643	NaN	-3.228	1.315	9.391	1504.762	1503.297	1509.158	-9.618	-1.328	10.992	-5.895	-0.536	8.191
421428.619	NaN	-3.207	1.315	9.391	1504.762	1504.029	1509.890	-9.618	-1.176	10.977	-5.971	-0.459	8.268
421429.596	NaN	-3.207	1.315	9.380	1505.495	1503.297	1509.890	-9.557	-1.206	11.069	-5.818	-0.536	8.344
421430.573	NaN	-3.207	1.304	9.380	1504.762	1503.297	1508.425	-9.496	-1.282	10.931	-5.895	-0.536	8.191
421431.549	NaN	-3.207	1.315	9.359	1506.227	1504.762	1509.158	-9.634	-1.099	10.855	-5.895	-0.689	8.344
421432.526	NaN	-3.207	1.304	9.359	1504.762	1504.762	1510.623	-9.618	-0.916	10.763	-6.048	-0.536	8.421
421433.502	NaN	-3.228	1.304	9.370	1505.495	1504.029	1510.623	-9.664	-1.069	10.626	-5.895	-0.612	8.344
421434.479	NaN	-3.217	1.304	9.370	1505.495	1504.029	1509.890	-9.924	-1.160	10.718	-5.971	-0.536	8.268
421435.455	NaN	-3.228	1.304	9.380	1505.495	1503.297	1509.890	-9.756	-1.115	10.840	-5.971	-0.536	8.498
421436.432	NaN	-3.228	1.293	9.391	1504.762	1503.297	1509.158	-9.756	-0.947	10.885	-5.895	-0.612	8.268
421437.408	NaN	-3.217	1.315	9.402	1504.029	1503.297	1509.158	-9.969	-1.008	10.901	-5.895	-0.459	8.268
421438.385	NaN	-3.217	1.293	9.402	1506.227	1503.297	1510.623	-9.786	-1.099	10.840	-5.818	-0.689	8.268
421439.362	NaN	-3.239	1.293	9.402	1504.762	1504.029	1511.355	-9.634	-1.282	10.916	-5.895	-0.536	8.268
421440.338	NaN	-3.228	1.293	9.402	1505.495	1504.762	1509.890	-9.557	-1.221	11.084	-5.971	-0.612	8.344
421441.315	NaN	-3.239	1.304	9.402	1504.762	1504.029	1510.623	-9.557	-0.977	11.145	-5.971	-0.689	8.344
421442.291	NaN	-3.239	1.304	9.402	1504.762	1503.297	1509.890	-9.420	-0.992	10.962	-5.895	-0.459	8.268
421443.268	NaN	-3.228	1.304	9.402	1504.762	1504.029	1509.158	-9.405	-1.267	10.977	-5.971	-0.536	8.344
421444.244	NaN	-3.239	1.293	9.402	1505.495	1504.029	1509.158	-9.511	-1.328	10.794	-5.971	-0.536	8.191
421445.221	NaN	-3.228	1.293	9.413	1506.227	1504.029	1510.623	-9.618	-1.069	10.779	-5.818	-0.459	8.344
421446.198	NaN	-3.217	1.293	9.413	1505.495	1504.029	1510.623	-9.588	-1.038	10.824	-5.971	-0.536	8.191
421447.174	NaN	-3.217	1.293	9.402	1505.495	1504.029	1511.355	-9.588	-1.130	10.733	-5.971	-0.612	8.344
421448.151	NaN	-3.228	1.293	9.391	1505.495	1503.297	1509.158	-9.649	-1.237	10.748	-5.971	-0.536	8.344
421449.127	NaN	-3.228	1.304	9.370	1506.227	1504.029	1509.890	-9.847	-1.160	10.656	-5.971	-0.536	8.421
421450.104	NaN	-3.228	1.304	9.380	1505.495	1503.297	1512.088	-10.046	-1.176	10.550	-5.742	-0.536	8.268
421451.080	NaN	-3.228	1.315	9.380	1505.495	1504.762	1510.623	-10.000	-0.992	10.489	-5.971	-0.536	8.344
421452.057	NaN	-3.228	1.304	9.370	1504.762	1504.029	1509.890	-9.756	-0.840	10.718	-5.895	-0.536	8.038
421453.033	NaN	-3.239	1.293	9.370	1505.495	1503.297	1510.623	-9.542	-1.038	10.962	-5.818	-0.612	8.421
421454.010	NaN	-3.228	1.293	9.380	1505.495	1504.762	1510.623	-9.634	-1.130	10.916	-5.971	-0.536	8.268
421454.987	NaN	-3.228	1.293	9.391	1504.762	1504.029	1509.158	-9.710	-1.084	10.748	-5.895	-0.536	8.268
421455.963	NaN	-3.228	1.283	9.391	1506.227	1503.297	1510.623	-9.496	-0.870	10.718	-5.895	-0.383	8.268
421456.940	NaN	-3.217	1.283	9.391	1505.495	1504.029	1509.890	-9.634	-1.053	10.748	-5.818	-0.536	8.421
421457.916	NaN	-3.217	1.283	9.391	1506.227	1504.029	1509.890	-9.802	-1.206	10.824	-5.895	-0.612	8.421
421458.893	NaN	-3.207	1.304	9.402	1505.495	1503.297	1509.890	-9.664	-1.267	10.840	-6.048	-0.612	8.268
421459.869	NaN	-3.207	1.304	9.402	1504.762	1504.762	1509.890	-9.496	-1.176	10.809	-5.742	-0.689	8.268
421460.846	NaN	-3.217	1.304	9.402	1505.495	1504.029	1510.623	-9.557	-1.099	10.824	-5.971	-0.459	8.268
421461.823	NaN	-3.228	1.293	9.413	1505.495	1502.564	1508.425	-9.618	-1.130	10.931	-5.971	-0.536	8.191
421462.799	NaN	-3.217	1.304	9.413	1504.762	1504.029	1509.890	-9.557	-1.099	10.885	-5.971	-0.689	8.421
421463.776	NaN	-3.239	1.304	9.402	1505.495	1503.297	1509.158	-9.282	-1.069	10.763	-5.971	-0.459	8.268
421464.752	3736848355.235	-3.228	1.315	9.413	1505.495	1504.762	1509.890	-9.374	-1.130	10.794	-5.971	-0.612	8.191
421465.729	NaN	-3.228	1.304	9.413	1504.762	1504.029	1509.158	-9.664	-1.023	10.763	-5.818	-0.689	8.268
421466.705	NaN	-3.239	1.293	9.413	1504.762	1504.029	1509.158	-9.588	-1.038	10.718	-5.895	-0.536	8.421
421467.682	NaN	-3.250	1.293	9.413	1504.029	1503.297	1509.158	-9.649	-1.130	10.809	-5.818	-0.536	8.268
421468.658	NaN	-3.239	1.293	9.413	1505.495	1502.564	1508.425	-9.725	-1.115	10.885	-5.895	-0.612	8.421
421469.635	NaN	-3.228	1.293	9.413	1504.762	1504.762	1511.355	-9.878	-0.977	10.977	-5.971	-0.612	8.498
421470.612	NaN	-3.239	1.293	9.391	1504.762	1504.762	1509.158	-9.908	-1.099	10.916	-5.895	-0.612	8.268
421471.588	NaN	-3.228	1.293	9.380	1505.495	1504.029	1510.623	-9.618	-1.206	10.672	-5.818	-0.612	8.344
421472.565	NaN	-3.228	1.283	9.380	1505.495	1503.297	1510.623	-9.511	-1.252	10.565	-5.971	-0.459	8.191
421473.541	NaN	-3.217	1.304	9.380	1505.495	1503.297	1511.355	-9.496	-1.084	10.702	-5.971	-0.536	8.421
421474.518	NaN	-3.217	1.304	9.380	1504.762	1504.762	1509.890	-9.695	-0.931	10.733	-5.971	-0.612	8.268
421475.494	NaN	-3.228	1.293	9.391	1505.495	1504.029	1510.623	-9.511	-0.947	10.641	-5.818	-0.612	8.268
421476.471	NaN	-3.217	1.304	9.391	1504.762	1504.762	1511.355	-9.481	-0.824	10.702	-5.895	-0.536	8.268
421477.448	NaN	-3.217	1.304	9.391	1506.227	1503.297	1509.890	-9.603	-0.840	10.687	-5.971	-0.536	8.344
421478.424	NaN	-3.217	1.304	9.391	1505.495	1503.297	1509.890	-9.786	-1.069	10.870	-5.895	-0.536	8.344
421479.401	NaN	-3.228	1.304	9.402	1505.495	1504.029	1510.623	-9.710	-1.298	10.901	-5.971	-0.536	8.268
421480.377	NaN	-3.228	1.304	9.391	1505.495	1504.029	1509.890	-9.603	-1.206	10.885	-5.895	-0.536	8.191
421481.354	NaN	-3.217	1.304	9.402	1505.495	1504.029	1511.355	-9.481	-1.206	10.840	-5.971	-0.536	8.344
421482.330	NaN	-3.217	1.315	9.402	1504.762	1504.762	1509.890	-9.542	-1.160	10.733	-6.048	-0.536	8.344
421483.307	NaN	-3.228	1.304	9.402	1503.297	1503.297	1509.158	-9.557	-1.176	10.763	-5.971	-0.536	8.268
421484.283	NaN	-3.239	1.304	9.391	1505.495	1503.297	1510.623	-9.435	-0.931	10.733	-5.818	-0.612	8.191
421485.260	NaN	-3.228	1.304	9.413	1506.227	1503.297	1510.623	-9.344	-0.962	10.733	-5.895	-0.536	8.344
421486.237	NaN	-3.228	1.304	9.413	1506.227	1504.029	1509.890	-9.405	-0.931	10.702	-5.971	-0.459	8.344
421487.213	NaN	-3.228	1.293	9.402	1505.495	1503.297	1510.623	-9.389	-0.855	10.672	-5.818	-0.612	8.421
421488.190	NaN	-3.239	1.293	9.391	1506.227	1503.297	1510.623	-9.527	-0.870	10.611	-5.742	-0.459	8.268
421489.166	NaN	-3.228	1.293	9.391	1504.762	1503.297	1509.158	-9.450	-1.023	10.489	-5.895	-0.536	8.344
421490.143	NaN	-3.228	1.304	9.391	1505.495	1504.762	1510.623	-9.511	-1.099	10.595	-6.048	-0.536	8.344
421491.119	NaN	-3.228	1.293	9.391	1505.495	1503.297	1511.355	-9.496	-1.099	10.672	-5.895	-0.536	8.344
421492.096	NaN	-3.207	1.293	9.391	1504.762	1503.297	1512.088	-9.511	-1.038	10.565	-5.971	-0.536	8.344
421493.073	NaN	-3.217	1.293	9.380	1505.495	1503.297	1509.890	-9.466	-0.977	10.473	-5.818	-0.689	8.268
421494.049	NaN	-3.196	1.293	9.391	1506.227	1504.029	1510.623	-9.511	-0.901	10.580	-5.895	-0.689	8.344
421495.026	NaN	-3.207	1.293	9.402	1505.495	1504.029	1510.623	-9.481	-0.992	10.748	-5.895	-0.612	8.421
421496.002	NaN	-3.207	1.304	9.391	1505.495	1504.762	1509.890	-9.344	-1.053	10.855	-5.742	-0.536	8.268
421496.979	NaN	-3.207	1.293	9.402	1505.495	1504.029	1509.890	-9.588	-1.115	10.382	-5.895	-0.536	8.344
421497.955	NaN	-3.228	1.283	9.391	1505.495	1504.029	1509.158	-9.496	-1.130	10.443	-5.971	-0.459	8.344
421498.932	NaN	-3.217	1.293	9.391	1505.495	1504.029	1510.623	-9.603	-1.008	10.626	-5.971	-0.459	8.344
421499.908	NaN	-3.217	1.293	9.391	1506.227	1504.762	1510.623	-9.695	-0.916	10.550	-5.895	-0.536	8.344
421500.885	NaN	-3.217	1.304	9.391	1505.495	1504.029	1510.623	-9.588	-0.901	10.718	-5.971	-0.689	8.344
421501.862	NaN	-3.217	1.304	9.391	1505.495	1503.297	1510.623	-9.405	-0.947	10.870	-5.895	-0.536	8.191
421502.838	NaN	-3.228	1.315	9.380	1504.762	1504.762	1511.355	-9.496	-1.221	10.748	-5.895	-0.612	8.191
421503.815	NaN	-3.239	1.304	9.391	1504.762	1504.029	1509.158	-9.496	-1.282	10.580	-5.818	-0.536	8.344
421504.791	NaN	-3.228	1.315	9.402	1504.762	1504.029	1510.623	-9.557	-1.221	10.489	-5.818	-0.383	8.268
421505.768	NaN	-3.228	1.315	9.402	1505.495	1504.029	1511.355	-9.557	-1.069	10.412	-5.895	-0.536	8.344
421506.744	NaN	-3.228	1.304	9.402	1505.495	1502.564	1510.623	-9.573	-0.870	10.397	-5.895	-0.536	8.421
421507.721	NaN	-3.228	1.326	9.402	1505.495	1504.029	1512.088	-9.542	-1.023	10.733	-5.895	-0.536	8.344
421508.698	NaN	-3.228	1.315	9.402	1505.495	1503.297	1509.890	-9.664	-1.038	10.840	-5.895	-0.689	8.344
421509.674	NaN	-3.228	1.315	9.402	1504.029	1503.297	1509.890	-9.588	-0.855	10.580	-5.971	-0.536	8.421
421510.651	NaN	-3.217	1.315	9.402	1505.495	1504.029	1510.623	-9.573	-0.931	10.504	-5.895	-0.536	8.344
421511.627	NaN	-3.228	1.304	9.402	1506.227	1504.029	1511.355	-9.481	-1.084	10.580	-5.971	-0.536	8.344
421512.604	NaN	-3.207	1.315	9.402	1505.495	1504.029	1511.355	-9.374	-0.931	10.656	-5.895	-0.536	8.344
421513.580	NaN	-3.217	1.315	9.402	1505.495	1504.029	1511.355	-9.252	-1.008	10.611	-5.818	-0.536	8.421
421514.557	NaN	-3.217	1.304	9.402	1504.762	1504.029	1509.890	-9.466	-1.038	10.489	-5.818	-0.766	8.268
421515.533	NaN	-3.217	1.293	9.391	1506.227	1503.297	1508.425	-9.359	-0.870	10.641	-5.971	-0.612	8.498
421516.510	NaN	-3.217	1.293	9.391	1504.762	1503.297	1509.158	-9.237	-1.069	10.687	-5.895	-0.612	8.421
421517.487	NaN	-3.207	1.293	9.413	1504.762	1503.297	1511.355	-9.634	-1.145	10.626	-5.818	-0.612	8.498
421518.463	NaN	-3.207	1.293	9.402	1504.762	1504.029	1512.088	-9.725	-1.099	10.672	-5.971	-0.612	8.344
421519.440	NaN	-3.217	1.293	9.391	1505.495	1504.029	1509.158	-9.511	-0.992	10.595	-6.048	-0.612	8.344
421520.416	NaN	-3.217	1.293	9.380	1506.227	1504.029	1509.890	-9.344	-0.855	10.595	-5.971	-0.689	8.421
421521.393	NaN	-3.217	1.304	9.391	1504.762	1504.029	1510.623	-9.466	-0.855	10.489	-5.971	-0.459	8.344
421522.369	NaN	-3.228	1.293	9.402	1504.762	1504.762	1511.355	-9.588	-0.992	10.687	-5.818	-0.536	8.191
421523.346	NaN	-3.228	1.283	9.391	1504.762	1504.762	1511.355	-9.466	-1.069	10.855	-5.818	-0.536	8.268
421524.323	NaN	-3.239	1.283	9.391	1505.495	1504.029	1510.623	-9.466	-0.901	10.779	-5.665	-0.459	8.268
421525.299	NaN	-3.239	1.304	9.402	1505.495	1504.762	1510.623	-9.527	-0.885	10.672	-5.971	-0.536	8.268
421526.276	NaN	-3.228	1.304	9.391	1506.227	1504.029	1510.623	-9.298	-0.931	10.672	-5.895	-0.612	8.268
421527.252	NaN	-3.228	1.304	9.402	1505.495	1504.029	1510.623	-9.405	-1.206	10.702	-5.895	-0.689	8.268
421528.229	NaN	-3.228	1.304	9.413	1505.495	1504.762	1509.890	-9.771	-0.992	10.565	-5.895	-0.612	8.421
421529.205	NaN	-3.228	1.293	9.402	1505.495	1504.029	1509.890	-9.618	-0.840	10.366	-5.895	-0.612	8.421
421530.182	NaN	-3.217	1.293	9.413	1505.495	1504.762	1510.623	-9.328	-1.008	10.305	-6.048	-0.612	8.344
421531.158	NaN	-3.217	1.293	9.402	1504.762	1504.029	1510.623	-9.298	-1.206	10.489	-5.971	-0.689	8.268
421532.135	NaN	-3.207	1.293	9.413	1503.297	1503.297	1509.158	-9.481	-1.221	10.626	-5.971	-0.536	8.191
421533.112	NaN	-3.217	1.304	9.413	1505.495	1503.297	1509.158	-9.634	-1.130	10.626	-5.818	-0.536	8.268
421534.088	NaN	-3.217	1.293	9.402	1503.297	1503.297	1509.158	-9.557	-0.947	10.855	-5.818	-0.612	8.268
421535.065	NaN	-3.207	1.304	9.413	1504.762	1503.297	1509.890	-9.176	-0.885	10.779	-5.971	-0.689	8.421
421536.041	NaN	-3.228	1.283	9.402	1506.227	1503.297	1510.623	-9.359	-0.977	10.611	-5.971	-0.689	8.344
421537.018	NaN	-3.228	1.293	9.402	1504.762	1503.297	1510.623	-9.603	-1.115	10.290	-5.818	-0.612	8.268
421537.994	NaN	-3.228	1.283	9.391	1505.495	1504.029	1511.355	-9.420	-1.160	9.954	-5.971	-0.536	8.421
421538.971	NaN	-3.217	1.293	9.391	1505.495	1504.029	1511.355	-9.496	-0.885	10.244	-5.895	-0.536	8.268
421539.948	NaN	-3.228	1.293	9.380	1504.029	1504.029	1509.158	-9.740	-0.733	10.611	-5.818	-0.459	8.268
421540.924	NaN	-3.228	1.304	9.370	1504.762	1504.762	1510.623	-9.511	-0.809	10.611	-5.971	-0.536	8.268
421541.901	NaN	-3.228	1.293	9.380	1505.495	1504.762	1509.890	-9.298	-0.840	10.489	-5.971	-0.612	8.344
421542.877	NaN	-3.228	1.304	9.380	1505.495	1505.495	1509.890	-9.649	-0.885	10.580	-5.895	-0.536	8.268
421543.854	NaN	-3.239	1.304	9.380	1504.762	1504.029	1510.623	-9.435	-0.809	10.656	-5.895	-0.536	8.344
421544.830	NaN	-3.250	1.304	9.391	1505.495	1504.029	1509.890	-9.420	-0.855	10.611	-5.971	-0.689	8.344
421545.807	NaN	-3.250	1.293	9.391	1504.029	1503.297	1509.158	-9.542	-0.947	10.489	-5.971	-0.536	8.421
421546.783	NaN	-3.250	1.293	9.380	1504.762	1504.029	1509.890	-9.664	-1.008	10.489	-5.895	-0.612	8.344
421547.760	NaN	-3.239	1.304	9.391	1505.495	1504.029	1509.158	-9.435	-1.038	10.718	-5.895	-0.536	8.421
421548.737	NaN	-3.239	1.304	9.380	1505.495	1504.029	1511.355	-9.435	-0.977	10.687	-5.818	-0.612	8.268
421549.713	NaN	-3.239	1.293	9.380	1504.762	1503.297	1509.890	-9.405	-0.840	10.550	-6.048	-0.536	8.268
421550.690	NaN	-3.217	1.304	9.380	1505.495	1503.297	1510.623	-9.496	-0.901	10.565	-5.895	-0.536	8.344
421551.666	NaN	-3.228	1.293	9.380	1505.495	1504.762	1510.623	-9.618	-1.023	10.565	-5.971	-0.536	8.344
421552.643	NaN	-3.217	1.293	9.380	1506.227	1504.029	1511.355	-9.542	-0.947	10.504	-5.971	-0.689	8.344
421553.619	NaN	-3.217	1.272	9.391	1505.495	1504.762	1509.890	-9.603	-0.733	10.641	-6.124	-0.612	8.498
421554.596	NaN	-3.207	1.293	9.402	1505.495	1503.297	1510.623	-9.527	-0.809	10.626	-5.971	-0.689	8.268
421555.573	NaN	-3.217	1.293	9.391	1504.762	1504.029	1508.425	-9.542	-1.038	10.611	-5.818	-0.689	8.268
421556.549	NaN	-3.207	1.304	9.391	1505.495	1504.762	1510.623	-9.496	-1.221	10.550	-5.895	-0.459	8.191
421557.526	NaN	-3.207	1.283	9.402	1504.762	1504.029	1509.890	-9.267	-1.252	10.611	-6.048	-0.536	8.344
421558.502	NaN	-3.196	1.293	9.391	1505.495	1504.029	1510.623	-9.252	-0.977	10.641	-5.971	-0.459	8.498
421559.479	NaN	-3.217	1.283	9.391	1505.495	1504.029	1510.623	-9.359	-0.870	10.504	-5.895	-0.459	8.344
421560.455	NaN	-3.228	1.283	9.402	1505.495	1503.297	1509.158	-9.496	-0.733	10.397	-5.895	-0.612	8.421
421561.432	NaN	-3.207	1.293	9.402	1505.495	1504.029	1509.890	-9.649	-0.748	10.412	-5.971	-0.612	8.344
421562.408	NaN	-3.217	1.293	9.402	1504.762	1503.297	1509.890	-9.603	-0.840	10.458	-5.895	-0.612	8.344
421563.385	NaN	-3.217	1.283	9.391	1504.762	1503.297	1511.355	-9.450	-0.947	10.427	-5.818	-0.612	8.421
421564.362	NaN	-3.228	1.283	9.391	1504.762	1504.029	1510.623	-9.359	-0.931	10.351	-6.048	-0.459	8.344
421565.338	NaN	-3.217	1.293	9.402	1505.495	1503.297	1509.890	-9.527	-1.008	10.382	-5.971	-0.459	8.344
421566.315	NaN	-3.217	1.293	9.413	1504.762	1504.029	1509.890	-9.725	-0.992	10.534	-6.048	-0.689	8.115
421567.291	NaN	-3.207	1.293	9.413	1504.762	1504.762	1510.623	-9.695	-0.931	10.626	-5.971	-0.536	8.268
421568.268	NaN	-3.217	1.293	9.402	1505.495	1504.029	1509.158	-9.527	-0.916	10.534	-5.818	-0.536	8.344
421569.244	NaN	-3.217	1.293	9.402	1505.495	1504.029	1509.890	-9.496	-0.794	10.275	-5.971	-0.536	8.268
421570.221	NaN	-3.217	1.283	9.402	1504.029	1504.029	1509.158	-9.374	-0.840	10.321	-5.895	-0.612	8.268
421571.198	NaN	-3.207	1.283	9.413	1504.762	1503.297	1510.623	-9.328	-0.962	10.397	-5.818	-0.689	8.344
421572.174	NaN	-3.217	1.293	9.402	1504.762	1503.297	1511.355	-9.313	-1.038	10.489	-5.895	-0.459	8.191
421573.151	NaN	-3.239	1.283	9.402	1504.762	1504.029	1510.623	-9.374	-0.992	10.702	-5.818	-0.612	8.268
421574.127	NaN	-3.228	1.293	9.402	1504.762	1504.029	1511.355	-9.359	-0.779	10.580	-6.048	-0.612	8.268
421575.104	NaN	-3.217	1.293	9.402	1505.495	1504.762	1510.623	-9.557	-0.763	10.412	-5.971	-0.536	8.344
421576.080	NaN	-3.228	1.304	9.402	1504.029	1504.029	1509.890	-9.634	-0.779	10.382	-5.895	-0.536	8.344
421577.057	NaN	-3.239	1.293	9.391	1504.762	1504.029	1509.158	-9.466	-0.794	10.336	-5.971	-0.383	8.344
421578.033	NaN	-3.228	1.304	9.391	1504.762	1504.029	1509.890	-9.038	-0.809	10.351	-5.895	-0.536	8.268
421579.010	NaN	-3.207	1.326	9.402	1506.960	1504.029	1510.623	-9.115	-0.947	10.458	-5.895	-0.459	8.268
421579.987	NaN	-3.207	1.315	9.413	1506.227	1504.029	1509.158	-9.450	-0.824	10.565	-5.971	-0.459	8.498
421580.963	NaN	-3.207	1.315	9.402	1504.762	1503.297	1510.623	-9.481	-0.779	10.305	-5.971	-0.766	8.344
421581.940	NaN	-3.207	1.293	9.413	1505.495	1504.029	1510.623	-9.557	-0.947	10.244	-5.971	-0.612	8.421
421582.916	NaN	-3.228	1.293	9.413	1504.762	1504.762	1510.623	-9.466	-1.023	10.351	-6.048	-0.536	8.268
421583.893	NaN	-3.217	1.293	9.413	1505.495	1504.762	1510.623	-9.542	-1.008	10.305	-5.818	-0.612	8.421
421584.869	NaN	-3.217	1.293	9.402	1505.495	1503.297	1510.623	-9.344	-0.992	10.321	-5.895	-0.536	8.498
421585.846	NaN	-3.228	1.293	9.413	1505.495	1504.029	1510.623	-9.160	-0.855	10.412	-5.818	-0.536	8.498
421586.823	NaN	-3.239	1.283	9.413	1505.495	1503.297	1509.890	-9.313	-0.809	10.504	-5.895	-0.383	8.344
421587.799	NaN	-3.228	1.293	9.413	1504.029	1502.564	1509.158	-9.389	-0.962	10.382	-5.895	-0.612	8.344
421588.776	NaN	-3.207	1.304	9.413	1505.495	1503.297	1508.425	-9.405	-1.069	10.351	-6.048	-0.536	8.344
421589.752	3736848355.395	-3.207	1.293	9.402	1505.495	1503.297	1510.623	-9.405	-1.069	10.489	-5.971	-0.612	8.498
421590.729	NaN	-3.217	1.293	9.402	1504.029	1503.297	1509.890	-9.389	-1.160	10.473	-5.895	-0.536	8.344
421591.705	NaN	-3.217	1.293	9.402	1505.495	1504.029	1511.355	-9.389	-1.053	10.397	-5.895	-0.612	8.421
421592.682	NaN	-3.217	1.293	9.413	1504.762	1503.297	1510.623	-9.282	-1.053	10.565	-5.971	-0.612	8.191
421593.658	NaN	-3.207	1.293	9.413	1505.495	1503.297	1509.890	-9.298	-1.069	10.504	-5.971	-0.536	8.344
421594.635	NaN	-3.207	1.293	9.413	1504.762	1504.029	1509.158	-9.420	-0.870	10.458	-5.895	-0.459	8.421
421595.612	NaN	-3.228	1.293	9.402	1504.029	1504.029	1509.890	-9.328	-0.870	10.458	-5.742	-0.536	8.344
421596.588	NaN	-3.217	1.304	9.402	1505.495	1504.762	1510.623	-9.435	-0.901	10.534	-5.818	-0.536	8.344
421597.565	NaN	-3.217	1.304	9.402	1505.495	1504.029	1509.890	-9.603	-0.947	10.366	-5.971	-0.612	8.191
421598.541	NaN	-3.207	1.304	9.402	1504.762	1504.029	1509.890	-9.664	-0.977	10.382	-5.895	-0.536	8.344
421599.518	NaN	-3.207	1.293	9.391	1504.762	1504.029	1509.890	-9.527	-1.023	10.366	-6.048	-0.536	8.421
421600.494	NaN	-3.207	1.304	9.391	1505.495	1504.029	1512.088	-9.420	-1.008	10.305	-5.971	-0.459	8.344
421601.471	NaN	-3.207	1.304	9.391	1505.495	1504.029	1510.623	-9.496	-0.870	10.198	-5.589	-0.459	8.268
421602.448	NaN	-3.217	1.304	9.402	1505.495	1503.297	1509.890	-9.420	-0.824	10.321	-5.971	-0.612	8.344
421603.424	NaN	-3.217	1.304	9.391	1504.762	1502.564	1510.623	-9.191	-0.840	10.504	-5.971	-0.612	8.268
421604.401	NaN	-3.217	1.293	9.391	1506.227	1504.029	1511.355	-9.298	-0.718	10.305	-6.048	-0.459	8.421
421605.377	NaN	-3.217	1.304	9.391	1505.495	1504.762	1512.088	-9.573	-0.794	10.214	-6.048	-0.612	8.344
421606.354	NaN	-3.217	1.315	9.402	1505.495	1504.029	1509.158	-9.450	-0.931	10.198	-5.971	-0.612	8.421
421607.330	NaN	-3.207	1.315	9.402	1504.762	1504.762	1509.158	-9.679	-0.870	10.229	-5.818	-0.612	8.344
421608.307	NaN	-3.217	1.326	9.402	1505.495	1504.029	1509.158	-9.618	-0.809	10.397	-5.742	-0.536	8.191
421620.026	NaN	-3.207	1.304	9.413	1504.762	1504.029	1509.890	-9.466	-0.962	10.244	-5.895	-0.612	8.344
421621.002	NaN	-3.196	1.304	9.413	1506.227	1504.029	1509.890	-9.328	-1.069	10.214	-5.818	-0.612	8.344
421621.979	NaN	-3.207	1.304	9.413	1506.227	1504.762	1510.623	-9.344	-0.992	10.153	-5.895	-0.536	8.421
421622.955	NaN	-3.228	1.304	9.413	1504.762	1504.762	1509.890	-9.466	-0.977	10.260	-5.818	-0.612	8.344
421623.932	NaN	-3.217	1.304	9.413	1505.495	1504.762	1509.890	-9.557	-0.824	10.489	-5.895	-0.612	8.344
421624.908	NaN	-3.228	1.304	9.413	1504.762	1505.495	1509.890	-9.634	-0.779	10.397	-5.971	-0.536	8.344
421625.885	NaN	-3.228	1.293	9.413	1505.495	1503.297	1509.890	-9.496	-0.947	10.137	-5.895	-0.459	8.268
421626.862	NaN	-3.228	1.293	9.413	1504.029	1503.297	1510.623	-9.344	-0.901	10.031	-5.895	-0.459	8.344
421627.838	NaN	-3.217	1.293	9.391	1505.495	1504.762	1509.890	-9.450	-0.794	10.198	-5.818	-0.612	8.498
421628.815	NaN	-3.228	1.304	9.402	1505.495	1504.762	1511.355	-9.466	-0.916	10.366	-5.971	-0.689	8.268
421629.791	NaN	-3.217	1.304	9.402	1505.495	1503.297	1511.355	-9.298	-0.931	10.305	-5.818	-0.612	8.344
421630.768	NaN	-3.217	1.304	9.391	1505.495	1504.029	1509.890	-9.344	-0.931	10.290	-5.818	-0.536	8.344
421631.744	NaN	-3.228	1.304	9.380	1505.495	1504.029	1509.158	-9.359	-0.931	10.214	-5.971	-0.536	8.498
421632.721	NaN	-3.207	1.315	9.380	1505.495	1504.029	1510.623	-9.420	-0.885	10.305	-5.818	-0.689	8.268
421633.698	NaN	-3.217	1.304	9.380	1506.227	1504.029	1510.623	-9.237	-0.901	10.458	-5.895	-0.689	8.421
421634.674	NaN	-3.207	1.293	9.380	1506.227	1503.297	1510.623	-9.328	-0.794	10.412	-5.895	-0.536	8.498
421635.651	NaN	-3.217	1.293	9.380	1505.495	1504.029	1509.890	-9.466	-0.733	10.290	-5.818	-0.612	8.115
421636.627	NaN	-3.228	1.304	9.391	1504.029	1504.762	1511.355	-9.420	-0.824	10.275	-5.971	-0.536	8.421
421637.604	NaN	-3.217	1.304	9.380	1506.227	1504.029	1511.355	-9.359	-0.947	10.153	-5.895	-0.536	8.421
421638.580	NaN	-3.228	1.304	9.380	1506.227	1504.029	1509.158	-9.344	-0.840	10.107	-5.971	-0.536	8.344
421639.557	NaN	-3.228	1.293	9.391	1504.762	1503.297	1510.623	-9.176	-0.901	10.336	-5.895	-0.536	8.344
421640.533	NaN	-3.228	1.283	9.380	1505.495	1504.029	1510.623	-9.176	-0.718	10.366	-6.048	-0.689	8.498
421641.510	NaN	-3.217	1.293	9.380	1505.495	1504.762	1512.088	-9.344	-0.702	10.153	-5.971	-0.459	8.268
421642.487	NaN	-3.217	1.304	9.380	1506.227	1504.029	1510.623	-9.374	-0.733	9.954	-5.971	-0.612	8.421
421643.463	NaN	-3.228	1.293	9.391	1506.227	1504.029	1510.623	-9.221	-0.794	10.122	-5.895	-0.459	8.498
421644.440	NaN	-3.228	1.293	9.391	1504.029	1503.297	1509.890	-9.267	-0.855	10.290	-5.895	-0.536	8.421
421645.416	NaN	-3.239	1.283	9.402	1504.029	1504.029	1509.158	-9.435	-0.748	10.290	-5.895	-0.536	8.268
421646.393	NaN	-3.228	1.315	9.402	1505.495	1504.762	1510.623	-9.557	-0.763	10.260	-5.895	-0.612	8.344
421647.369	NaN	-3.228	1.304	9.402	1504.762	1504.029	1511.355	-9.267	-0.702	10.336	-5.971	-0.536	8.268
421648.346	NaN	-3.228	1.304	9.402	1504.029	1503.297	1509.890	-9.206	-0.733	10.351	-5.895	-0.612	8.421
421649.323	NaN	-3.228	1.304	9.413	1504.762	1502.564	1509.158	-9.206	-0.901	10.198	-5.971	-0.536	8.268
421650.299	NaN	-3.207	1.304	9.413	1504.762	1504.029	1510.623	-9.176	-1.008	10.122	-5.818	-0.459	8.344
421651.276	NaN	-3.207	1.293	9.413	1504.029	1504.762	1510.623	-9.176	-1.084	10.137	-5.895	-0.612	8.344
421652.252	NaN	-3.207	1.304	9.424	1505.495	1504.762	1511.355	-9.252	-0.779	10.275	-5.971	-0.536	8.421
421653.229	NaN	-3.196	1.304	9.424	1504.762	1503.297	1510.623	-9.420	-0.718	10.260	-5.895	-0.612	8.268
421654.205	NaN	-3.207	1.293	9.413	1505.495	1503.297	1509.890	-9.252	-0.748	10.214	-5.971	-0.459	8.421
421655.182	NaN	-3.217	1.293	9.413	1505.495	1504.029	1510.623	-9.511	-0.855	10.092	-5.895	-0.536	8.421
421656.158	NaN	-3.228	1.293	9.402	1504.762	1504.029	1510.623	-9.542	-0.947	10.046	-5.971	-0.536	8.191
421657.135	NaN	-3.228	1.293	9.402	1503.297	1503.297	1509.158	-9.496	-0.901	10.244	-5.971	-0.612	8.421
421658.112	NaN	-3.217	1.304	9.391	1504.762	1504.029	1511.355	-9.420	-0.824	10.244	-5.895	-0.459	8.268
421659.088	NaN	-3.217	1.293	9.391	1504.762	1502.564	1509.890	-9.496	-0.824	10.305	-5.895	-0.612	8.268
421660.065	NaN	-3.217	1.304	9.402	1504.762	1503.297	1508.425	-9.405	-0.733	10.198	-5.895	-0.612	8.344
421661.041	NaN	-3.207	1.315	9.402	1505.495	1504.029	1511.355	-9.130	-0.718	10.031	-5.971	-0.612	8.344
421662.018	NaN	-3.207	1.315	9.413	1504.762	1503.297	1509.890	-9.130	-0.611	10.137	-5.971	-0.536	8.268
421662.994	NaN	-3.217	1.304	9.402	1504.029	1502.564	1509.158	-9.267	-0.534	10.244	-5.818	-0.536	8.421
421663.971	NaN	-3.207	1.315	9.391	1504.762	1502.564	1510.623	-9.298	-0.611	10.183	-6.124	-0.612	8.421
421664.948	NaN	-3.207	1.315	9.402	1504.762	1504.029	1510.623	-9.191	-0.672	10.076	-5.818	-0.459	8.268
421665.924	NaN	-3.207	1.315	9.413	1505.495	1504.029	1509.890	-9.282	-0.870	10.031	-5.895	-0.459	8.268
421666.901	NaN	-3.217	1.304	9.424	1504.762	1503.297	1509.158	-9.374	-0.870	10.198	-5.818	-0.612	8.268
421667.877	NaN	-3.217	1.304	9.413	1505.495	1504.029	1510.623	-9.450	-0.809	10.229	-5.818	-0.459	8.268
421668.854	NaN	-3.217	1.293	9.413	1505.495	1503.297	1509.158	-9.466	-0.809	10.092	-5.971	-0.612	8.268
421669.830	NaN	-3.228	1.304	9.402	1504.762	1503.297	1507.692	-9.282	-0.916	10.107	-5.895	-0.612	8.191
421670.807	NaN	-3.228	1.304	9.391	1505.495	1503.297	1510.623	-9.221	-0.779	10.107	-5.895	-0.536	8.268
421671.783	NaN	-3.228	1.304	9.402	1503.297	1504.029	1510.623	-9.313	-0.641	10.015	-5.971	-0.612	8.268
421672.760	NaN	-3.217	1.304	9.413	1504.762	1504.029	1510.623	-9.420	-0.763	10.000	-6.048	-0.612	8.344
421673.737	NaN	-3.217	1.293	9.413	1506.227	1504.029	1509.890	-9.374	-0.748	9.954	-5.818	-0.536	8.268
421674.713	NaN	-3.228	1.293	9.424	1504.029	1502.564	1507.692	-9.389	-0.641	10.183	-5.971	-0.459	8.344
421675.690	NaN	-3.217	1.315	9.435	1504.762	1503.297	1509.890	-9.191	-0.611	10.244	-5.818	-0.612	8.344
421676.666	NaN	-3.217	1.304	9.435	1504.762	1503.297	1509.890	-9.145	-0.779	10.198	-5.818	-0.459	8.191
421677.643	NaN	-3.207	1.315	9.424	1506.227	1504.762	1510.623	-9.405	-0.748	10.290	-5.895	-0.536	8.344
421678.619	NaN	-3.228	1.304	9.402	1505.495	1504.029	1509.890	-9.359	-0.656	10.275	-5.971	-0.612	8.191
421679.596	NaN	-3.217	1.293	9.413	1505.495	1502.564	1509.158	-9.221	-0.672	10.183	-5.895	-0.536	8.344
421680.573	NaN	-3.217	1.283	9.402	1505.495	1504.029	1510.623	-9.206	-0.733	10.122	-5.818	-0.536	8.268
421681.549	NaN	-3.217	1.293	9.413	1504.762	1503.297	1510.623	-9.313	-0.672	10.137	-5.895	-0.459	8.344
421682.526	NaN	-3.207	1.304	9.413	1504.762	1504.029	1511.355	-9.420	-0.656	10.153	-5.895	-0.536	8.268
421683.502	NaN	-3.207	1.304	9.402	1506.227	1504.762	1509.890	-9.221	-0.641	10.031	-5.895	-0.459	8.421
421684.479	NaN	-3.217	1.293	9.391	1504.762	1502.564	1508.425	-8.916	-0.565	9.847	-5.971	-0.612	8.344
421685.455	NaN	-3.207	1.304	9.391	1504.762	1503.297	1509.890	-9.084	-0.550	10.046	-5.818	-0.536	8.268
421686.432	NaN	-3.217	1.304	9.391	1504.762	1502.564	1509.158	-9.389	-0.565	10.153	-5.971	-0.612	8.344
421687.408	NaN	-3.207	1.326	9.391	1505.495	1503.297	1510.623	-9.252	-0.824	10.031	-5.818	-0.612	8.498
421688.385	NaN	-3.207	1.315	9.391	1505.495	1504.029	1509.890	-9.221	-0.962	10.031	-5.818	-0.536	8.498
421689.362	NaN	-3.207	1.315	9.391	1506.227	1503.297	1509.890	-9.313	-0.901	9.969	-5.895	-0.536	8.344
421690.338	NaN	-3.217	1.293	9.370	1505.495	1504.029	1510.623	-9.252	-0.718	10.076	-6.048	-0.536	8.268
421691.315	NaN	-3.228	1.283	9.370	1504.762	1504.762	1508.425	-9.130	-0.656	9.969	-5.895	-0.612	8.268
421692.291	NaN	-3.217	1.293	9.380	1505.495	1504.762	1510.623	-9.206	-0.702	9.924	-5.895	-0.612	8.344
421693.268	NaN	-3.217	1.283	9.380	1505.495	1504.029	1509.890	-9.374	-0.748	9.893	-5.971	-0.689	8.268
421694.244	NaN	-3.207	1.283	9.380	1504.762	1502.564	1509.158	-9.267	-0.763	9.939	-5.818	-0.612	8.268
421695.221	NaN	-3.207	1.283	9.380	1506.227	1504.029	1510.623	-8.931	-0.779	10.229	-5.971	-0.612	8.421
421696.198	NaN	-3.217	1.293	9.370	1505.495	1504.029	1510.623	-9.084	-0.641	10.305	-5.818	-0.459	8.191
421697.174	NaN	-3.207	1.304	9.380	1505.495	1504.029	1509.890	-9.298	-0.672	10.229	-5.895	-0.536	8.344
421698.151	NaN	-3.217	1.304	9.380	1506.227	1503.297	1509.158	-9.328	-0.718	10.107	-5.971	-0.536	8.268
421699.127	NaN	-3.217	1.304	9.391	1506.227	1504.762	1509.158	-9.008	-0.733	9.985	-5.895	-0.536	8.421
421700.104	NaN	-3.228	1.304	9.391	1504.029	1503.297	1509.890	-9.084	-0.656	10.183	-6.048	-0.459	8.421
421701.080	NaN	-3.228	1.315	9.391	1503.297	1503.297	1509.158	-9.328	-0.794	10.061	-5.971	-0.612	8.344
421702.057	NaN	-3.217	1.315	9.402	1505.495	1503.297	1509.890	-9.496	-0.794	9.969	-6.048	-0.612	8.344
421703.033	NaN	-3.228	1.304	9.402	1504.762	1502.564	1509.158	-9.374	-0.733	10.046	-5.818	-0.459	8.421
421704.010	NaN	-3.207	1.315	9.413	1504.762	1503.297	1510.623	-9.282	-0.779	10.107	-5.895	-0.612	8.115
421704.987	NaN	-3.207	1.326	9.413	1505.495	1504.762	1510.623	-9.176	-0.702	10.229	-5.742	-0.612	8.344
421705.963	NaN	-3.228	1.315	9.413	1504.762	1504.029	1510.623	-9.130	-0.641	10.183	-5.971	-0.612	8.268
421706.940	NaN	-3.228	1.304	9.424	1504.029	1503.297	1509.158	-9.084	-0.672	10.046	-5.895	-0.536	8.268
421707.916	NaN	-3.228	1.315	9.413	1505.495	1504.029	1510.623	-9.115	-0.687	10.107	-5.971	-0.536	8.268
421708.893	NaN	-3.228	1.304	9.424	1505.495	1504.029	1511.355	-8.992	-0.534	10.168	-5.818	-0.536	8.268
421709.869	NaN	-3.239	1.315	9.413	1505.495	1504.029	1510.623	-9.115	-0.565	10.107	-5.895	-0.536	8.344
421710.846	NaN	-3.228	1.315	9.402	1504.029	1504.762	1510.623	-9.252	-0.733	10.076	-5.895	-0.612	8.268
421711.823	NaN	-3.228	1.304	9.402	1504.762	1504.762	1509.890	-9.206	-0.794	10.046	-5.895	-0.536	8.344
421712.799	NaN	-3.228	1.293	9.413	1505.495	1504.762	1510.623	-9.237	-0.733	10.107	-5.895	-0.459	8.421
421713.776	NaN	-3.228	1.293	9.402	1505.495	1504.029	1509.890	-9.420	-0.763	10.153	-5.895	-0.612	8.421
421714.752	NaN	-3.217	1.293	9.413	1504.762	1504.029	1512.821	-9.298	-0.870	9.985	-5.971	-0.612	8.344
421715.729	NaN	-3.207	1.293	9.402	1504.762	1503.297	1509.158	-9.298	-0.855	9.954	-5.895	-0.459	8.344
421716.705	NaN	-3.217	1.304	9.380	1504.029	1503.297	1509.158	-9.282	-0.840	9.985	-5.895	-0.612	8.344
421717.682	NaN	-3.207	1.304	9.402	1504.762	1505.495	1511.355	-9.221	-0.794	10.061	-6.048	-0.536	8.421
421718.658	NaN	-3.207	1.315	9.413	1505.495	1504.029	1509.890	-9.267	-0.656	10.153	-5.895	-0.459	8.421
421719.635	NaN	-3.217	1.304	9.413	1504.762	1504.029	1509.890	-9.206	-0.672	10.122	-5.971	-0.536	8.344
421720.612	NaN	-3.228	1.293	9.402	1505.495	1503.297	1509.158	-9.115	-0.641	9.985	-5.971	-0.536	8.268
421721.588	NaN	-3.228	1.283	9.402	1504.762	1503.297	1510.623	-9.298	-0.870	9.939	-5.895	-0.536	8.344
421722.565	NaN	-3.217	1.304	9.402	1505.495	1503.297	1509.890	-9.344	-0.840	10.122	-5.971	-0.536	8.268
421723.541	3736848355.509	-3.228	1.293	9.391	1505.495	1504.029	1512.088	-9.191	-0.763	10.137	-5.818	-0.536	8.344
421724.518	NaN	-3.228	1.283	9.402	1504.029	1503.297	1509.890	-8.824	-0.718	9.924	-5.971	-0.689	8.344
421725.494	NaN	-3.228	1.283	9.402	1506.227	1504.029	1510.623	-8.702	-0.611	9.847	-5.895	-0.536	8.421
421726.471	NaN	-3.217	1.283	9.402	1505.495	1504.762	1510.623	-9.130	-0.519	9.939	-5.742	-0.612	8.268
421727.448	NaN	-3.207	1.283	9.402	1504.762	1504.029	1511.355	-9.191	-0.687	10.168	-5.971	-0.612	8.268
421728.424	NaN	-3.207	1.293	9.424	1505.495	1504.029	1509.890	-9.191	-0.840	10.122	-5.895	-0.612	8.421
421729.401	NaN	-3.207	1.293	9.413	1504.762	1504.029	1510.623	-9.206	-0.794	9.924	-5.895	-0.536	8.344
421730.377	NaN	-3.207	1.304	9.413	1505.495	1504.029	1510.623	-9.206	-0.519	9.863	-6.048	-0.536	8.421
421731.354	NaN	-3.228	1.293	9.413	1504.762	1503.297	1509.158	-9.176	-0.580	9.969	-5.895	-0.612	8.268
421732.330	NaN	-3.207	1.326	9.413	1504.762	1504.029	1509.890	-9.282	-0.733	9.954	-5.971	-0.459	8.344
421733.307	NaN	-3.217	1.315	9.402	1505.495	1503.297	1511.355	-9.359	-0.748	10.046	-6.048	-0.536	8.344
421734.283	NaN	-3.217	1.315	9.413	1505.495	1503.297	1510.623	-9.359	-0.702	10.046	-5.818	-0.536	8.191
421735.260	NaN	-3.196	1.315	9.402	1504.762	1504.029	1510.623	-9.298	-0.702	9.893	-5.895	-0.612	8.268
421736.237	NaN	-3.196	1.326	9.391	1504.762	1504.029	1510.623	-9.252	-0.763	10.015	-5.818	-0.689	8.268
421737.213	NaN	-3.207	1.315	9.391	1504.762	1504.029	1509.158	-9.053	-0.626	10.000	-5.971	-0.536	8.421
421738.190	NaN	-3.207	1.315	9.402	1504.762	1503.297	1509.158	-9.206	-0.641	10.092	-5.971	-0.536	8.421
421739.166	NaN	-3.196	1.304	9.402	1505.495	1504.029	1510.623	-9.206	-0.733	10.183	-5.818	-0.536	8.268
421740.143	NaN	-3.196	1.304	9.402	1505.495	1504.029	1510.623	-9.344	-0.580	10.031	-5.818	-0.536	8.421
421741.119	NaN	-3.207	1.293	9.413	1504.762	1504.029	1510.623	-9.313	-0.595	9.893	-5.971	-0.536	8.421
421742.096	NaN	-3.196	1.293	9.402	1504.762	1503.297	1509.890	-8.931	-0.519	9.939	-5.971	-0.612	8.421
421743.073	NaN	-3.217	1.293	9.391	1504.029	1503.297	1510.623	-8.916	-0.473	10.244	-5.818	-0.689	8.268
421744.049	NaN	-3.207	1.293	9.402	1505.495	1504.029	1510.623	-9.099	-0.534	10.183	-5.971	-0.536	8.421
421745.026	NaN	-3.207	1.293	9.402	1506.227	1503.297	1510.623	-9.267	-0.672	10.122	-5.971	-0.536	8.268
421746.002	NaN	-3.217	1.293	9.402	1504.762	1504.762	1511.355	-9.237	-0.641	9.939	-5.895	-0.612	8.191
421746.979	NaN	-3.207	1.293	9.402	1504.762	1503.297	1509.890	-9.206	-0.641	9.893	-5.971	-0.459	8.268
421747.955	NaN	-3.217	1.293	9.402	1506.960	1504.029	1511.355	-8.977	-0.565	9.756	-6.048	-0.536	8.268
421748.932	NaN	-3.207	1.293	9.413	1505.495	1504.029	1510.623	-9.176	-0.626	9.847	-5.895	-0.536	8.344
421749.908	NaN	-3.207	1.304	9.413	1505.495	1503.297	1509.890	-9.145	-0.779	9.969	-5.895	-0.459	8.421
421750.885	NaN	-3.217	1.293	9.413	1505.495	1503.297	1510.623	-9.115	-0.794	10.046	-5.895	-0.536	8.421
421751.862	NaN	-3.228	1.283	9.424	1505.495	1504.029	1510.623	-9.237	-0.763	10.198	-5.971	-0.536	8.421
421752.838	NaN	-3.207	1.293	9.413	1506.960	1504.762	1511.355	-9.145	-0.779	10.015	-5.895	-0.612	8.344
421753.815	NaN	-3.217	1.304	9.413	1505.495	1504.762	1509.158	-9.069	-0.763	9.725	-5.971	-0.536	8.268
421754.791	NaN	-3.217	1.304	9.402	1505.495	1504.029	1509.890	-9.130	-0.580	9.725	-5.895	-0.612	8.344
421755.768	NaN	-3.217	1.315	9.413	1504.762	1503.297	1509.890	-9.176	-0.687	9.969	-5.971	-0.612	8.344
421756.744	NaN	-3.228	1.304	9.402	1505.495	1505.495	1509.890	-9.145	-0.931	10.137	-5.971	-0.536	8.191
421757.721	NaN	-3.228	1.315	9.402	1504.762	1504.029	1510.623	-9.206	-0.870	9.969	-5.818	-0.383	8.344
421758.698	NaN	-3.239	1.293	9.402	1505.495	1504.029	1510.623	-9.221	-0.763	10.031	-5.895	-0.536	8.268
421759.674	NaN	-3.250	1.293	9.402	1505.495	1502.564	1509.890	-9.130	-0.641	10.000	-5.971	-0.612	8.191
421760.651	NaN	-3.228	1.304	9.413	1504.762	1504.029	1510.623	-9.130	-0.443	10.015	-5.818	-0.612	8.344
421761.627	NaN	-3.228	1.304	9.402	1506.227	1504.029	1509.890	-8.885	-0.427	9.969	-6.048	-0.612	8.268
421762.604	NaN	-3.239	1.293	9.402	1506.227	1504.029	1510.623	-8.947	-0.412	9.710	-5.971	-0.536	8.344
421763.580	NaN	-3.239	1.293	9.402	1504.762	1503.297	1510.623	-8.947	-0.550	9.771	-5.895	-0.536	8.268
421764.557	NaN	-3.228	1.293	9.402	1504.762	1503.297	1511.355	-9.023	-0.733	9.878	-5.895	-0.536	8.268
421765.533	NaN	-3.228	1.293	9.402	1504.762	1504.029	1510.623	-9.069	-0.779	9.725	-6.048	-0.612	8.344
421766.510	NaN	-3.228	1.283	9.402	1504.029	1503.297	1510.623	-9.344	-0.763	9.908	-5.895	-0.612	8.268
421767.487	NaN	-3.217	1.304	9.402	1504.029	1504.029	1511.355	-9.176	-0.702	9.985	-6.048	-0.612	8.344
421768.463	NaN	-3.217	1.304	9.402	1504.762	1504.029	1509.158	-9.023	-0.687	9.847	-5.818	-0.536	8.344
421769.440	NaN	-3.228	1.293	9.391	1506.227	1504.029	1510.623	-9.237	-0.580	10.000	-5.895	-0.536	8.268
421770.416	NaN	-3.217	1.304	9.391	1505.495	1503.297	1510.623	-9.359	-0.489	9.664	-6.048	-0.536	8.344
421771.393	NaN	-3.207	1.315	9.402	1505.495	1504.029	1510.623	-9.160	-0.641	9.679	-5.818	-0.536	8.344
421772.369	NaN	-3.217	1.304	9.413	1505.495	1504.029	1510.623	-8.702	-0.794	9.863	-5.818	-0.612	8.268
421773.346	NaN	-3.207	1.315	9.413	1505.495	1504.029	1509.890	-8.870	-0.733	10.137	-5.971	-0.536	8.421
421774.323	NaN	-3.217	1.304	9.413	1505.495	1504.029	1510.623	-8.931	-0.565	10.046	-5.895	-0.536	8.268
421775.299	NaN	-3.228	1.304	9.402	1504.029	1503.297	1509.158	-8.916	-0.504	9.969	-5.895	-0.612	8.344
421776.276	NaN	-3.217	1.304	9.424	1505.495	1504.029	1510.623	-9.130	-0.565	10.046	-5.971	-0.612	8.421
421777.252	NaN	-3.207	1.315	9.424	1506.227	1504.029	1510.623	-9.237	-0.580	9.985	-5.971	-0.689	8.268
421778.229	NaN	-3.217	1.293	9.413	1504.762	1504.029	1509.158	-9.145	-0.489	9.908	-6.124	-0.689	8.344
421779.205	NaN	-3.217	1.293	9.402	1505.495	1504.029	1510.623	-9.023	-0.595	9.725	-5.895	-0.459	8.498
421780.182	NaN	-3.217	1.293	9.413	1504.029	1504.029	1509.158	-9.160	-0.687	9.756	-5.895	-0.536	8.344
421781.158	NaN	-3.217	1.293	9.402	1504.762	1504.029	1508.425	-8.992	-0.672	9.847	-5.895	-0.536	8.344
421782.135	NaN	-3.228	1.304	9.402	1505.495	1504.029	1509.158	-8.824	-0.763	9.924	-5.971	-0.536	8.268
421783.112	NaN	-3.228	1.293	9.402	1504.762	1504.029	1509.890	-8.977	-0.656	10.153	-5.895	-0.612	8.191
421784.088	NaN	-3.228	1.304	9.391	1505.495	1504.762	1510.623	-9.267	-0.672	10.046	-5.895	-0.536	8.344
421785.065	NaN	-3.217	1.315	9.391	1506.227	1503.297	1510.623	-9.099	-0.763	10.000	-5.895	-0.689	8.268
421786.041	NaN	-3.228	1.304	9.402	1506.227	1504.029	1509.890	-9.069	-0.687	9.863	-5.895	-0.612	8.268
421787.018	NaN	-3.239	1.304	9.402	1504.029	1502.564	1509.890	-8.901	-0.565	9.893	-5.895	-0.612	8.498
421787.994	NaN	-3.228	1.304	9.391	1504.762	1503.297	1509.158	-8.916	-0.427	9.740	-5.895	-0.536	8.268
421788.971	NaN	-3.228	1.304	9.402	1505.495	1504.762	1510.623	-9.145	-0.519	9.573	-5.818	-0.612	8.268
421789.948	NaN	-3.228	1.304	9.402	1505.495	1504.029	1509.890	-8.977	-0.534	9.634	-5.895	-0.536	8.421
421790.924	NaN	-3.217	1.304	9.402	1504.029	1502.564	1508.425	-9.084	-0.504	9.679	-5.895	-0.459	8.268
421791.901	NaN	-3.217	1.304	9.413	1503.297	1503.297	1509.158	-8.992	-0.519	9.893	-5.818	-0.536	8.421
421792.877	NaN	-3.217	1.315	9.402	1504.029	1504.029	1509.890	-8.702	-0.641	9.954	-5.971	-0.459	8.115
421793.854	NaN	-3.217	1.304	9.402	1504.762	1504.029	1510.623	-8.809	-0.611	10.061	-5.895	-0.612	8.268
421794.830	NaN	-3.239	1.293	9.391	1505.495	1504.029	1509.158	-8.962	-0.595	9.969	-5.971	-0.459	8.421
421795.807	NaN	-3.239	1.283	9.391	1504.029	1503.297	1509.158	-9.130	-0.611	9.847	-5.971	-0.536	8.268
421796.783	NaN	-3.228	1.293	9.391	1506.227	1504.029	1509.890	-9.084	-0.763	9.817	-5.818	-0.459	8.421
421797.760	NaN	-3.228	1.304	9.402	1505.495	1504.029	1511.355	-8.916	-0.641	9.954	-5.895	-0.536	8.268
421798.737	NaN	-3.239	1.293	9.402	1504.762	1504.029	1509.890	-8.885	-0.519	9.878	-5.818	-0.459	8.344
421799.713	NaN	-3.217	1.304	9.413	1505.495	1503.297	1509.158	-9.069	-0.565	9.679	-5.895	-0.536	8.268
421800.690	NaN	-3.217	1.304	9.413	1505.495	1504.029	1509.890	-9.191	-0.672	10.015	-5.895	-0.536	8.344
421801.666	NaN	-3.228	1.293	9.402	1504.762	1503.297	1509.158	-9.145	-0.641	10.137	-5.895	-0.383	8.268
421802.643	NaN	-3.217	1.293	9.424	1505.495	1504.029	1509.890	-9.069	-0.489	9.802	-5.895	-0.612	8.268
421803.619	NaN	-3.228	1.283	9.424	1505.495	1503.297	1510.623	-9.084	-0.443	9.786	-5.818	-0.536	8.344
421804.596	NaN	-3.228	1.293	9.424	1505.495	1504.029	1509.158	-9.252	-0.550	9.817	-5.742	-0.459	8.344
421805.573	NaN	-3.228	1.283	9.413	1505.495	1502.564	1510.623	-9.023	-0.534	9.756	-5.895	-0.536	8.268
421806.549	NaN	-3.228	1.293	9.402	1505.495	1502.564	1509.158	-8.977	-0.641	9.832	-5.895	-0.459	8.344
421807.526	NaN	-3.217	1.293	9.402	1505.495	1504.029	1510.623	-9.191	-0.672	9.588	-5.971	-0.536	8.344
421808.502	NaN	-3.228	1.293	9.402	1506.227	1503.297	1508.425	-9.084	-0.550	9.695	-5.895	-0.536	8.421
421809.479	NaN	-3.228	1.293	9.402	1504.762	1503.297	1509.158	-9.084	-0.489	9.832	-5.895	-0.536	8.344
421810.455	NaN	-3.239	1.304	9.402	1504.762	1504.762	1509.890	-9.038	-0.504	9.649	-5.818	-0.612	8.344
421811.432	NaN	-3.228	1.315	9.402	1505.495	1504.762	1509.158	-9.176	-0.489	9.618	-5.971	-0.612	8.268
421812.408	NaN	-3.217	1.304	9.402	1505.495	1503.297	1511.355	-9.221	-0.733	9.908	-5.971	-0.689	8.344
421813.385	NaN	-3.217	1.293	9.402	1506.227	1503.297	1511.355	-9.267	-0.794	9.786	-5.818	-0.612	8.268
421814.362	NaN	-3.217	1.293	9.402	1505.495	1504.029	1510.623	-9.084	-0.809	9.649	-5.818	-0.612	8.421
421815.338	NaN	-3.217	1.293	9.391	1505.495	1504.029	1511.355	-8.947	-0.763	9.725	-5.895	-0.612	8.268
421816.315	NaN	-3.239	1.293	9.380	1504.029	1503.297	1509.158	-8.977	-0.550	9.832	-5.818	-0.536	8.421
421817.291	NaN	-3.228	1.304	9.391	1504.762	1504.029	1510.623	-9.130	-0.595	9.817	-5.971	-0.612	8.421
421818.268	NaN	-3.228	1.304	9.402	1504.762	1504.762	1509.890	-9.191	-0.656	9.664	-5.971	-0.383	8.344
421819.244	NaN	-3.239	1.315	9.413	1506.227	1504.762	1509.890	-8.992	-0.718	9.832	-5.742	-0.612	8.268
421820.221	NaN	-3.228	1.304	9.424	1505.495	1504.762	1509.890	-8.916	-0.656	9.847	-5.895	-0.766	8.191
421821.198	NaN	-3.239	1.293	9.435	1504.762	1504.762	1510.623	-8.947	-0.565	9.756	-5.971	-0.536	8.191
421822.174	NaN	-3.239	1.304	9.435	1504.029	1504.762	1511.355	-8.824	-0.519	9.771	-5.742	-0.459	8.268
421823.151	NaN	-3.239	1.304	9.435	1504.029	1503.297	1509.890	-8.901	-0.641	9.649	-5.818	-0.689	8.191
421824.127	NaN	-3.228	1.315	9.446	1505.495	1504.029	1511.355	-9.084	-0.718	9.664	-5.971	-0.536	8.268
421825.104	NaN	-3.217	1.304	9.446	1506.227	1503.297	1509.158	-9.160	-0.580	9.756	-5.818	-0.612	8.421
421826.080	NaN	-3.228	1.304	9.435	1505.495	1504.029	1510.623	-9.160	-0.641	9.847	-5.818	-0.536	8.498
421827.057	NaN	-3.217	1.293	9.424	1504.762	1503.297	1509.158	-8.977	-0.595	9.863	-5.818	-0.612	8.421
421828.033	NaN	-3.228	1.293	9.413	1505.495	1504.029	1511.355	-8.840	-0.595	9.710	-5.971	-0.689	8.268
421829.010	NaN	-3.228	1.304	9.413	1505.495	1504.029	1511.355	-9.008	-0.580	9.725	-5.895	-0.612	8.268
421829.987	NaN	-3.228	1.293	9.402	1505.495	1503.297	1509.890	-9.023	-0.550	9.863	-5.895	-0.612	8.421
421830.963	NaN	-3.217	1.293	9.413	1505.495	1502.564	1509.890	-8.855	-0.626	9.817	-5.895	-0.536	8.344
421831.940	NaN	-3.228	1.283	9.402	1504.762	1504.029	1508.425	-8.916	-0.611	9.863	-5.895	-0.536	8.268
421832.916	NaN	-3.217	1.293	9.402	1506.227	1504.029	1509.158	-8.763	-0.763	9.802	-5.971	-0.536	8.268
421833.893	NaN	-3.217	1.293	9.402	1506.227	1504.029	1510.623	-8.885	-0.733	9.771	-5.895	-0.536	8.268
421834.869	NaN	-3.217	1.293	9.391	1504.762	1504.029	1509.890	-8.977	-0.656	9.863	-6.048	-0.459	8.421
421835.846	NaN	-3.207	1.293	9.391	1505.495	1503.297	1509.158	-9.038	-0.641	9.771	-5.895	-0.612	8.268
421836.823	NaN	-3.217	1.293	9.402	1504.029	1504.029	1509.890	-9.160	-0.595	9.664	-5.895	-0.612	8.268
421837.799	NaN	-3.217	1.315	9.402	1505.495	1504.762	1510.623	-8.855	-0.611	9.634	-5.895	-0.536	8.421
421838.776	NaN	-3.207	1.304	9.402	1505.495	1504.029	1511.355	-8.794	-0.580	9.832	-5.895	-0.536	8.344
421839.752	NaN	-3.196	1.315	9.413	1504.762	1503.297	1510.623	-8.931	-0.641	9.893	-5.895	-0.536	8.268
421840.729	NaN	-3.196	1.315	9.413	1504.029	1504.762	1509.158	-8.977	-0.733	10.000	-5.895	-0.459	8.344
421841.705	NaN	-3.217	1.315	9.402	1505.495	1504.029	1510.623	-8.870	-0.840	9.954	-6.048	-0.612	8.421
421842.682	NaN	-3.207	1.326	9.402	1504.762	1504.762	1510.623	-8.748	-0.748	9.664	-5.895	-0.536	8.268
421843.658	NaN	-3.196	1.326	9.424	1504.762	1504.762	1509.890	-8.702	-0.626	9.603	-5.818	-0.689	8.344
421844.635	NaN	-3.217	1.315	9.424	1505.495	1504.029	1511.355	-8.794	-0.473	9.649	-5.971	-0.459	8.344
421845.612	NaN	-3.228	1.304	9.424	1504.762	1501.832	1509.890	-8.947	-0.489	9.740	-5.818	-0.612	8.421
421846.588	NaN	-3.217	1.304	9.424	1504.029	1503.297	1509.890	-9.053	-0.427	9.893	-5.895	-0.612	8.344
421847.565	NaN	-3.228	1.293	9.413	1504.762	1504.029	1509.158	-9.038	-0.550	9.969	-5.818	-0.536	8.421
421848.541	NaN	-3.217	1.315	9.424	1505.495	1504.029	1510.623	-8.931	-0.595	9.908	-5.895	-0.689	8.421
421849.518	NaN	-3.239	1.293	9.413	1503.297	1503.297	1510.623	-8.718	-0.580	9.817	-5.895	-0.612	8.344
421850.494	NaN	-3.239	1.293	9.391	1505.495	1504.029	1510.623	-8.626	-0.504	9.924	-5.971	-0.536	8.344
421851.471	NaN	-3.228	1.293	9.402	1505.495	1504.762	1510.623	-8.840	-0.427	9.817	-5.895	-0.612	8.268
421852.448	NaN	-3.228	1.293	9.402	1504.762	1504.762	1511.355	-9.023	-0.534	9.679	-5.971	-0.612	8.344
421853.424	NaN	-3.228	1.304	9.402	1505.495	1504.029	1509.890	-9.069	-0.504	9.664	-5.971	-0.536	8.344
421854.401	NaN	-3.228	1.283	9.402	1505.495	1502.564	1509.890	-9.053	-0.336	9.649	-5.818	-0.612	8.498
421855.377	NaN	-3.239	1.293	9.391	1505.495	1504.029	1511.355	-8.901	-0.290	9.527	-5.895	-0.536	8.268
421856.354	NaN	-3.228	1.293	9.402	1505.495	1504.762	1510.623	-8.748	-0.290	9.542	-5.895	-0.459	8.421
421857.330	NaN	-3.239	1.293	9.402	1506.227	1504.029	1509.158	-8.977	-0.565	9.557	-6.048	-0.536	8.421
421858.307	NaN	-3.228	1.293	9.402	1504.029	1502.564	1509.158	-9.023	-0.763	9.557	-5.895	-0.612	8.344
421859.283	NaN	-3.228	1.293	9.391	1505.495	1503.297	1511.355	-8.840	-0.550	9.664	-5.895	-0.612	8.115
421860.260	NaN	-3.228	1.293	9.391	1505.495	1502.564	1509.158	-8.916	-0.534	9.679	-5.971	-0.459	8.344
421861.237	NaN	-3.217	1.304	9.391	1504.029	1503.297	1509.158	-8.840	-0.427	9.466	-5.895	-0.689	8.344
421862.213	NaN	-3.207	1.315	9.402	1504.762	1504.029	1510.623	-8.687	-0.458	9.527	-5.971	-0.536	8.421
421863.190	3736848355.621	-3.217	1.293	9.402	1504.762	1504.029	1510.623	-8.779	-0.412	9.557	-5.818	-0.536	8.421
421864.166	NaN	-3.228	1.293	9.391	1505.495	1504.029	1509.158	-9.023	-0.321	9.603	-5.895	-0.536	8.268
421865.143	NaN	-3.217	1.283	9.391	1504.762	1503.297	1508.425	-9.038	-0.397	9.756	-5.971	-0.383	8.344
421866.119	NaN	-3.196	1.283	9.402	1505.495	1504.029	1510.623	-8.962	-0.397	9.618	-6.048	-0.612	8.344
421867.096	NaN	-3.207	1.283	9.413	1504.762	1504.029	1508.425	-8.916	-0.489	9.603	-5.742	-0.612	8.421
421868.073	NaN	-3.207	1.283	9.391	1504.762	1503.297	1510.623	-8.794	-0.580	9.679	-5.971	-0.612	8.421
421869.049	NaN	-3.207	1.304	9.402	1504.762	1504.029	1511.355	-8.855	-0.550	9.664	-5.895	-0.689	8.421
421870.026	NaN	-3.207	1.304	9.391	1505.495	1504.029	1511.355	-8.718	-0.580	9.771	-5.895	-0.612	8.344
421871.002	NaN	-3.217	1.315	9.380	1504.762	1504.762	1509.158	-8.763	-0.595	9.756	-5.971	-0.612	8.421
421871.979	NaN	-3.217	1.304	9.391	1504.762	1504.762	1510.623	-8.855	-0.672	9.588	-5.971	-0.536	8.191
421872.955	NaN	-3.217	1.304	9.391	1506.227	1503.297	1509.890	-8.794	-0.656	9.573	-5.895	-0.536	8.344
421873.932	NaN	-3.217	1.304	9.402	1505.495	1503.297	1511.355	-8.824	-0.641	9.649	-5.895	-0.536	8.268
421874.908	NaN	-3.228	1.304	9.402	1505.495	1503.297	1509.890	-8.885	-0.534	9.664	-5.895	-0.612	8.344
421875.885	NaN	-3.217	1.283	9.402	1503.297	1503.297	1509.890	-9.023	-0.550	9.740	-6.048	-0.536	8.268
421876.862	NaN	-3.207	1.304	9.402	1504.762	1504.029	1511.355	-9.038	-0.519	9.557	-5.895	-0.536	8.191
421877.838	NaN	-3.217	1.293	9.391	1505.495	1504.762	1509.890	-8.870	-0.336	9.603	-5.971	-0.612	8.268
421878.815	NaN	-3.217	1.293	9.391	1506.227	1504.029	1509.890	-8.656	-0.458	9.863	-5.895	-0.612	8.191
421879.791	NaN	-3.217	1.283	9.391	1504.029	1504.029	1509.890	-8.656	-0.534	9.740	-5.895	-0.689	8.344
421880.768	NaN	-3.228	1.283	9.402	1505.495	1502.564	1509.158	-8.626	-0.534	9.863	-5.818	-0.612	8.191
421881.744	NaN	-3.228	1.293	9.402	1504.762	1502.564	1509.890	-8.748	-0.489	9.771	-5.895	-0.536	8.344
421882.721	NaN	-3.228	1.304	9.402	1506.227	1504.029	1512.088	-8.763	-0.534	9.557	-5.895	-0.689	8.344
421883.698	NaN	-3.239	1.304	9.402	1504.762	1503.297	1510.623	-8.885	-0.443	9.435	-5.895	-0.689	8.268
421884.674	NaN	-3.228	1.293	9.413	1504.762	1504.029	1510.623	-8.977	-0.397	9.557	-5.895	-0.536	8.421
421885.651	NaN	-3.228	1.283	9.413	1504.029	1503.297	1509.890	-8.809	-0.427	9.695	-5.895	-0.536	8.268
421886.627	NaN	-3.217	1.293	9.413	1504.762	1503.297	1509.158	-8.687	-0.580	9.725	-5.971	-0.689	8.344
421887.604	NaN	-3.207	1.293	9.413	1504.762	1504.029	1511.355	-8.947	-0.702	9.695	-5.818	-0.689	8.268
421888.580	NaN	-3.217	1.304	9.413	1505.495	1504.762	1510.623	-8.718	-0.550	9.435	-5.971	-0.536	8.344
421889.557	NaN	-3.217	1.304	9.413	1504.762	1503.297	1509.890	-8.733	-0.458	9.374	-5.895	-0.536	8.268
421890.533	NaN	-3.228	1.304	9.413	1505.495	1504.762	1508.425	-8.885	-0.443	9.557	-5.818	-0.612	8.344
421891.510	NaN	-3.239	1.293	9.402	1504.762	1503.297	1509.890	-8.748	-0.641	9.511	-5.895	-0.689	8.268
421892.487	NaN	-3.228	1.304	9.402	1506.227	1503.297	1510.623	-8.641	-0.534	9.573	-5.818	-0.612	8.344
421893.463	NaN	-3.228	1.293	9.402	1504.762	1504.029	1511.355	-8.840	-0.519	9.466	-5.971	-0.612	8.191
421894.440	NaN	-3.207	1.293	9.391	1504.762	1502.564	1509.890	-8.809	-0.672	9.557	-5.818	-0.536	8.344
421895.416	NaN	-3.217	1.293	9.391	1505.495	1503.297	1511.355	-8.748	-0.443	9.634	-5.971	-0.536	8.191
421896.393	NaN	-3.228	1.293	9.380	1504.762	1503.297	1508.425	-8.687	-0.458	9.679	-5.971	-0.459	8.268
421897.369	NaN	-3.217	1.304	9.391	1505.495	1503.297	1509.158	-8.641	-0.641	9.863	-5.895	-0.612	8.498
421898.346	NaN	-3.217	1.304	9.380	1505.495	1503.297	1510.623	-8.779	-0.504	9.893	-5.971	-0.612	8.268
421899.323	NaN	-3.239	1.293	9.370	1504.762	1503.297	1509.890	-8.794	-0.550	9.710	-5.971	-0.766	8.191
421900.299	NaN	-3.217	1.304	9.370	1505.495	1504.762	1509.890	-8.794	-0.656	9.511	-5.895	-0.536	8.344
421901.276	NaN	-3.217	1.293	9.380	1505.495	1503.297	1509.890	-8.656	-0.702	9.389	-5.818	-0.612	8.344
421902.252	NaN	-3.207	1.304	9.391	1505.495	1504.029	1511.355	-8.611	-0.519	9.344	-5.818	-0.536	8.344
421903.229	NaN	-3.207	1.283	9.380	1505.495	1502.564	1510.623	-8.885	-0.458	9.496	-5.895	-0.459	8.421
421904.205	NaN	-3.217	1.293	9.391	1506.227	1503.297	1509.890	-9.115	-0.565	9.496	-5.895	-0.612	8.421
421905.182	NaN	-3.217	1.293	9.402	1505.495	1504.029	1512.088	-8.809	-0.504	9.771	-6.048	-0.459	8.421
421906.158	NaN	-3.228	1.293	9.402	1505.495	1504.029	1509.890	-8.672	-0.550	9.725	-5.971	-0.536	8.191
421907.135	NaN	-3.217	1.293	9.413	1504.029	1504.029	1509.158	-8.641	-0.641	9.710	-5.818	-0.536	8.421
421908.112	NaN	-3.217	1.304	9.424	1504.762	1504.029	1511.355	-8.611	-0.626	9.603	-6.048	-0.459	8.268
421909.088	NaN	-3.207	1.293	9.402	1505.495	1505.495	1510.623	-8.718	-0.641	9.466	-5.895	-0.536	8.268
421910.065	NaN	-3.196	1.304	9.402	1505.495	1504.029	1509.890	-8.733	-0.458	9.557	-5.971	-0.536	8.268
421911.041	NaN	-3.207	1.315	9.391	1505.495	1504.029	1510.623	-8.748	-0.351	9.542	-5.895	-0.612	8.115
421912.018	NaN	-3.217	1.315	9.391	1504.762	1504.029	1509.890	-8.718	-0.382	9.664	-5.895	-0.536	8.421
421912.994	NaN	-3.217	1.315	9.402	1504.029	1503.297	1509.158	-8.763	-0.412	9.344	-5.971	-0.536	8.421
421913.971	NaN	-3.217	1.315	9.402	1504.762	1504.029	1511.355	-8.595	-0.366	9.359	-5.818	-0.612	8.344
421914.948	NaN	-3.217	1.304	9.402	1504.762	1504.762	1511.355	-8.641	-0.458	9.328	-5.818	-0.459	8.421
421915.924	NaN	-3.207	1.315	9.413	1505.495	1503.297	1509.890	-8.366	-0.611	9.374	-5.895	-0.536	8.268
421916.901	NaN	-3.217	1.304	9.402	1505.495	1503.297	1509.890	-8.580	-0.580	9.527	-5.895	-0.612	8.191
421917.877	NaN	-3.217	1.315	9.402	1505.495	1504.029	1511.355	-8.748	-0.565	9.695	-5.895	-0.536	8.268
421918.854	NaN	-3.217	1.304	9.391	1504.762	1502.564	1509.158	-8.824	-0.473	9.847	-5.971	-0.612	8.191
421919.830	NaN	-3.217	1.304	9.402	1504.029	1504.029	1509.158	-8.840	-0.519	9.863	-5.971	-0.536	8.191
421920.807	NaN	-3.217	1.304	9.413	1504.762	1504.029	1510.623	-8.626	-0.656	9.695	-5.818	-0.536	8.268
421921.783	NaN	-3.228	1.293	9.402	1505.495	1502.564	1509.890	-8.458	-0.641	9.466	-5.971	-0.536	8.344
421922.760	NaN	-3.217	1.283	9.413	1505.495	1504.762	1510.623	-8.580	-0.458	9.313	-5.895	-0.536	8.421
421923.737	NaN	-3.217	1.293	9.424	1504.762	1504.762	1509.890	-8.687	-0.351	9.496	-5.818	-0.612	8.344
421924.713	NaN	-3.217	1.304	9.424	1505.495	1504.029	1509.890	-8.718	-0.412	9.679	-5.895	-0.612	8.344
421925.690	NaN	-3.228	1.293	9.413	1505.495	1503.297	1510.623	-8.840	-0.397	9.618	-5.818	-0.536	8.268
421926.666	NaN	-3.217	1.283	9.413	1505.495	1504.762	1509.890	-8.840	-0.534	9.588	-5.895	-0.459	8.344
421927.643	NaN	-3.217	1.293	9.402	1505.495	1504.762	1510.623	-8.733	-0.412	9.511	-5.895	-0.536	8.344
421928.619	NaN	-3.228	1.293	9.391	1505.495	1504.029	1509.890	-8.809	-0.275	9.573	-5.895	-0.536	8.268
421929.596	NaN	-3.228	1.293	9.391	1504.762	1503.297	1509.158	-8.809	-0.443	9.603	-5.895	-0.536	8.344
421930.573	NaN	-3.228	1.293	9.391	1505.495	1502.564	1511.355	-8.794	-0.504	9.405	-5.818	-0.459	8.268
421931.549	NaN	-3.217	1.304	9.402	1506.960	1504.762	1510.623	-8.992	-0.473	9.450	-5.971	-0.536	8.421
421932.526	NaN	-3.217	1.304	9.402	1504.762	1504.762	1509.890	-8.947	-0.473	9.420	-5.971	-0.459	8.344
421933.502	NaN	-3.228	1.304	9.402	1504.762	1504.029	1510.623	-8.809	-0.641	9.496	-5.971	-0.459	8.344
421934.479	NaN	-3.228	1.293	9.413	1504.762	1503.297	1509.890	-8.656	-0.626	9.450	-5.818	-0.612	8.268
421935.455	NaN	-3.239	1.304	9.424	1506.227	1503.297	1509.890	-8.779	-0.595	9.664	-5.971	-0.459	8.268
421936.432	NaN	-3.228	1.315	9.413	1504.029	1503.297	1509.890	-8.687	-0.443	9.725	-5.971	-0.536	8.344
421937.408	NaN	-3.228	1.304	9.413	1505.495	1504.762	1510.623	-8.763	-0.275	9.573	-5.818	-0.459	8.421
421938.385	NaN	-3.228	1.304	9.402	1504.762	1504.762	1510.623	-8.962	-0.565	9.221	-5.895	-0.689	8.421
421939.362	NaN	-3.239	1.293	9.402	1506.227	1503.297	1509.890	-8.794	-0.473	9.191	-5.971	-0.459	8.421
421940.338	NaN	-3.228	1.304	9.402	1506.960	1504.029	1510.623	-8.733	-0.489	9.496	-5.895	-0.612	8.498
421941.315	NaN	-3.217	1.304	9.402	1506.227	1504.762	1509.890	-8.779	-0.351	9.450	-5.895	-0.612	8.344
421942.291	NaN	-3.207	1.304	9.402	1504.762	1504.029	1511.355	-8.687	-0.382	9.420	-5.818	-0.536	8.421
421943.268	NaN	-3.217	1.293	9.402	1506.227	1504.029	1510.623	-8.733	-0.443	9.450	-5.895	-0.689	8.268
421944.244	NaN	-3.228	1.293	9.402	1504.762	1503.297	1509.158	-8.656	-0.382	9.450	-5.818	-0.459	8.498
421945.221	NaN	-3.217	1.326	9.402	1504.762	1504.029	1509.890	-8.718	-0.565	9.176	-6.048	-0.612	8.344
421946.198	NaN	-3.228	1.315	9.402	1505.495	1504.029	1509.890	-8.809	-0.534	9.328	-5.895	-0.689	8.191
421947.174	NaN	-3.239	1.315	9.402	1504.762	1502.564	1509.890	-8.824	-0.534	9.511	-5.971	-0.536	8.268
421948.151	NaN	-3.239	1.304	9.402	1504.762	1504.029	1509.890	-8.809	-0.534	9.603	-5.895	-0.459	8.191
421949.127	NaN	-3.239	1.304	9.391	1505.495	1504.029	1510.623	-8.962	-0.580	9.450	-6.048	-0.612	8.268
421950.104	NaN	-3.239	1.304	9.413	1506.227	1504.029	1510.623	-8.718	-0.611	9.420	-5.818	-0.689	8.344
421951.080	NaN	-3.239	1.304	9.413	1506.227	1504.029	1509.158	-8.656	-0.519	9.634	-5.971	-0.536	8.268
421952.057	NaN	-3.228	1.304	9.413	1505.495	1503.297	1509.890	-8.580	-0.443	9.481	-5.895	-0.536	8.421
421953.033	NaN	-3.239	1.293	9.413	1505.495	1503.297	1511.355	-8.733	-0.458	9.374	-5.971	-0.612	8.344
421954.010	NaN	-3.217	1.293	9.402	1504.762	1503.297	1510.623	-8.595	-0.397	9.313	-5.971	-0.612	8.344
421954.987	NaN	-3.207	1.304	9.413	1504.029	1504.029	1509.890	-8.443	-0.397	9.450	-5.895	-0.766	8.421
421955.963	NaN	-3.217	1.293	9.413	1505.495	1504.762	1509.158	-8.718	-0.382	9.359	-5.971	-0.536	8.344
421956.940	NaN	-3.217	1.293	9.402	1505.495	1504.029	1510.623	-8.870	-0.382	9.420	-5.971	-0.536	8.268
421957.916	NaN	-3.228	1.304	9.402	1504.762	1504.029	1511.355	-8.824	-0.382	9.496	-5.971	-0.689	8.421
421958.893	NaN	-3.217	1.304	9.402	1504.762	1504.762	1510.623	-8.824	-0.397	9.328	-5.895	-0.536	8.344
421959.869	3736848355.745	-3.217	1.293	9.402	1505.495	1503.297	1509.158	-8.672	-0.519	9.405	-5.895	-0.689	8.344
421960.846	NaN	-3.228	1.283	9.402	1504.762	1504.029	1509.158	-8.672	-0.550	9.527	-5.971	-0.459	8.344
421961.823	NaN	-3.217	1.293	9.413	1504.762	1503.297	1509.158	-8.748	-0.443	9.389	-6.048	-0.536	8.421
421962.799	NaN	-3.228	1.283	9.413	1506.227	1504.029	1510.623	-8.565	-0.214	9.344	-5.818	-0.536	8.268
421963.776	NaN	-3.228	1.293	9.402	1504.762	1502.564	1509.158	-8.489	-0.366	9.420	-5.818	-0.689	8.421
421964.752	NaN	-3.207	1.304	9.413	1504.762	1503.297	1509.158	-8.519	-0.595	9.313	-5.818	-0.536	8.344
421965.729	NaN	-3.217	1.304	9.402	1505.495	1504.762	1509.890	-8.672	-0.702	9.298	-5.818	-0.689	8.498
421966.705	NaN	-3.239	1.304	9.402	1505.495	1503.297	1509.890	-8.794	-0.473	9.328	-5.895	-0.459	8.268
421967.682	NaN	-3.239	1.304	9.402	1504.029	1503.297	1509.890	-8.748	-0.366	9.435	-5.971	-0.536	8.344
421968.658	NaN	-3.228	1.304	9.402	1504.762	1504.762	1512.088	-8.901	-0.458	9.618	-5.971	-0.612	8.421
421969.635	NaN	-3.228	1.293	9.380	1505.495	1504.762	1509.158	-8.794	-0.580	9.466	-5.895	-0.612	8.191
421970.612	NaN	-3.228	1.293	9.370	1505.495	1504.029	1510.623	-8.473	-0.641	9.420	-5.895	-0.459	8.344
421971.588	NaN	-3.228	1.293	9.380	1504.762	1503.297	1509.158	-8.412	-0.489	9.695	-5.818	-0.459	8.268
421972.565	NaN	-3.207	1.326	9.380	1504.762	1503.297	1510.623	-8.504	-0.382	9.618	-5.971	-0.612	8.344
421973.541	NaN	-3.207	1.315	9.380	1504.029	1504.762	1511.355	-8.534	-0.519	9.191	-5.971	-0.383	8.344
421974.518	NaN	-3.228	1.315	9.391	1505.495	1504.029	1510.623	-8.840	-0.397	9.206	-5.895	-0.612	8.344
421975.494	NaN	-3.239	1.304	9.391	1505.495	1504.029	1511.355	-8.824	-0.519	9.328	-5.971	-0.612	8.268
421976.471	NaN	-3.228	1.304	9.391	1506.227	1504.029	1511.355	-8.718	-0.626	9.374	-5.971	-0.612	8.344
421977.448	NaN	-3.228	1.304	9.391	1504.762	1504.762	1510.623	-8.611	-0.626	9.511	-5.971	-0.612	8.344
421978.424	NaN	-3.228	1.304	9.380	1506.227	1504.029	1510.623	-8.611	-0.595	9.511	-5.971	-0.536	8.421
421979.401	NaN	-3.217	1.304	9.391	1504.762	1503.297	1510.623	-8.824	-0.534	9.466	-5.971	-0.612	8.344
421980.377	NaN	-3.228	1.304	9.391	1505.495	1504.029	1510.623	-8.824	-0.458	9.496	-6.048	-0.459	8.191
421981.354	NaN	-3.217	1.304	9.391	1504.762	1504.762	1510.623	-8.687	-0.473	9.435	-6.048	-0.536	8.344
421982.330	NaN	-3.217	1.315	9.391	1505.495	1504.029	1509.890	-8.687	-0.412	9.374	-5.895	-0.536	8.344
421983.307	NaN	-3.228	1.315	9.380	1505.495	1504.029	1509.890	-8.733	-0.305	9.282	-5.818	-0.536	8.268
421984.283	NaN	-3.217	1.293	9.370	1506.227	1503.297	1509.890	-8.641	-0.290	9.298	-5.818	-0.536	8.268
421985.260	NaN	-3.207	1.293	9.380	1505.495	1504.029	1512.088	-8.580	-0.336	9.344	-5.895	-0.383	8.344
421986.237	NaN	-3.196	1.293	9.380	1506.227	1504.762	1509.890	-8.504	-0.397	9.252	-5.971	-0.536	8.344
421987.213	NaN	-3.207	1.293	9.380	1505.495	1504.762	1509.890	-8.519	-0.382	9.282	-5.895	-0.459	8.344
421988.190	NaN	-3.196	1.283	9.391	1504.762	1504.029	1510.623	-8.702	-0.412	9.435	-5.818	-0.612	8.268
421989.166	NaN	-3.207	1.293	9.380	1505.495	1504.762	1509.158	-8.901	-0.473	9.389	-5.895	-0.689	8.421
421990.143	NaN	-3.217	1.293	9.391	1506.227	1504.029	1510.623	-8.824	-0.489	9.344	-5.742	-0.536	8.344
421991.119	NaN	-3.217	1.293	9.391	1505.495	1504.029	1510.623	-8.550	-0.443	9.328	-5.895	-0.612	8.344
421992.096	NaN	-3.228	1.304	9.391	1505.495	1504.029	1509.890	-8.595	-0.336	9.328	-6.048	-0.536	8.421
421993.073	NaN	-3.239	1.304	9.391	1504.762	1503.297	1510.623	-8.763	-0.290	9.267	-5.818	-0.536	8.191
421994.049	NaN	-3.228	1.315	9.391	1506.227	1504.029	1511.355	-8.763	-0.305	9.359	-5.971	-0.536	8.421
421995.026	NaN	-3.228	1.304	9.391	1505.495	1503.297	1511.355	-8.427	-0.412	9.450	-5.818	-0.612	8.344
421996.002	NaN	-3.228	1.304	9.391	1504.029	1504.029	1509.890	-8.458	-0.534	9.282	-5.818	-0.612	8.268
421996.979	NaN	-3.228	1.293	9.391	1505.495	1502.564	1509.890	-8.412	-0.580	9.221	-6.048	-0.612	8.344
421997.955	NaN	-3.228	1.293	9.391	1504.762	1504.029	1509.890	-8.550	-0.489	9.221	-5.818	-0.612	8.344
421998.932	NaN	-3.228	1.293	9.402	1506.960	1504.029	1510.623	-8.565	-0.458	9.115	-5.971	-0.536	8.268
421999.908	NaN	-3.228	1.315	9.402	1505.495	1504.762	1510.623	-8.504	-0.458	9.115	-5.971	-0.536	8.344
422000.885	NaN	-3.217	1.315	9.413	1505.495	1504.029	1510.623	-8.382	-0.351	9.344	-5.818	-0.612	8.344
422001.862	NaN	-3.217	1.315	9.413	1505.495	1504.029	1510.623	-8.550	-0.290	9.435	-5.895	-0.689	8.421
422002.838	NaN	-3.217	1.315	9.413	1506.227	1503.297	1511.355	-8.656	-0.473	9.420	-5.818	-0.459	8.344
422003.815	NaN	-3.217	1.315	9.413	1505.495	1504.029	1510.623	-8.687	-0.504	9.389	-5.818	-0.689	8.268
422004.791	NaN	-3.217	1.304	9.424	1505.495	1504.029	1511.355	-8.550	-0.366	9.466	-5.895	-0.612	8.191
422005.768	NaN	-3.207	1.315	9.413	1506.227	1503.297	1509.158	-8.412	-0.397	9.573	-5.818	-0.536	8.344
422006.744	NaN	-3.217	1.304	9.402	1506.227	1504.029	1510.623	-8.443	-0.458	9.359	-5.971	-0.612	8.498
422007.721	NaN	-3.217	1.293	9.424	1505.495	1504.762	1511.355	-8.718	-0.366	9.069	-5.895	-0.689	8.421
422008.698	NaN	-3.217	1.304	9.413	1505.495	1504.029	1510.623	-8.641	-0.458	9.008	-5.895	-0.612	8.191
422009.674	NaN	-3.217	1.293	9.402	1506.227	1503.297	1509.158	-8.641	-0.504	9.191	-5.971	-0.536	8.344
422010.651	NaN	-3.217	1.293	9.402	1504.029	1503.297	1510.623	-8.656	-0.519	9.496	-5.971	-0.612	8.344
422011.627	NaN	-3.228	1.293	9.391	1506.227	1504.029	1510.623	-8.550	-0.458	9.450	-6.048	-0.536	8.421
422012.604	NaN	-3.217	1.304	9.391	1506.227	1504.029	1509.890	-8.427	-0.244	9.313	-5.895	-0.536	8.191
422013.580	NaN	-3.207	1.304	9.402	1505.495	1504.762	1509.890	-8.565	-0.260	9.420	-5.818	-0.612	8.268
422014.557	NaN	-3.196	1.304	9.413	1505.495	1504.029	1511.355	-8.580	-0.321	9.481	-5.971	-0.536	8.498
422015.533	NaN	-3.207	1.293	9.413	1505.495	1503.297	1509.890	-8.656	-0.366	9.374	-5.971	-0.612	8.191
422016.510	NaN	-3.207	1.293	9.413	1506.227	1505.495	1510.623	-8.427	-0.382	9.359	-5.895	-0.536	8.344
422017.487	NaN	-3.207	1.293	9.424	1505.495	1504.029	1509.890	-8.397	-0.275	9.344	-5.971	-0.612	8.344
422018.463	NaN	-3.207	1.293	9.424	1504.762	1504.762	1510.623	-8.626	-0.260	9.115	-5.971	-0.612	8.268
422019.440	NaN	-3.217	1.304	9.413	1504.762	1504.029	1511.355	-8.748	-0.198	9.282	-5.971	-0.536	8.421
422020.416	NaN	-3.228	1.315	9.413	1505.495	1504.029	1511.355	-8.580	-0.260	9.282	-5.971	-0.459	8.421
422021.393	NaN	-3.228	1.315	9.413	1503.297	1503.297	1509.158	-8.336	-0.580	9.069	-5.971	-0.536	8.421
422022.369	NaN	-3.217	1.315	9.413	1504.762	1502.564	1509.158	-8.427	-0.534	9.023	-5.895	-0.689	8.421
422023.346	NaN	-3.217	1.304	9.424	1505.495	1504.029	1510.623	-8.519	-0.412	9.282	-5.895	-0.612	8.344
422024.323	NaN	-3.217	1.304	9.435	1504.762	1503.297	1508.425	-8.763	-0.397	9.466	-5.818	-0.536	8.344
422025.299	NaN	-3.217	1.304	9.424	1505.495	1504.029	1510.623	-8.687	-0.458	9.267	-5.971	-0.612	8.344
422026.276	NaN	-3.217	1.304	9.424	1506.227	1504.029	1509.890	-8.672	-0.321	9.130	-5.971	-0.536	8.421
422027.252	NaN	-3.217	1.315	9.424	1504.762	1504.762	1510.623	-8.305	-0.305	9.160	-5.971	-0.536	8.268
422028.229	NaN	-3.228	1.315	9.413	1504.762	1504.762	1509.890	-8.336	-0.305	9.191	-5.971	-0.612	8.421
422029.205	NaN	-3.228	1.293	9.402	1506.227	1504.029	1510.623	-8.519	-0.290	9.359	-5.895	-0.689	8.421
422030.182	NaN	-3.217	1.304	9.402	1505.495	1504.762	1509.890	-8.656	-0.382	9.389	-5.818	-0.536	8.268
422031.158	NaN	-3.217	1.315	9.413	1504.762	1504.762	1510.623	-8.580	-0.473	9.405	-5.895	-0.612	8.191
422032.135	NaN	-3.228	1.315	9.413	1506.227	1504.029	1510.623	-8.580	-0.489	9.374	-5.895	-0.612	8.421
422033.112	NaN	-3.239	1.293	9.413	1504.762	1504.029	1510.623	-8.611	-0.412	9.298	-5.895	-0.536	8.268
422034.088	NaN	-3.228	1.304	9.424	1506.227	1504.029	1509.890	-8.779	-0.275	9.298	-5.895	-0.612	8.268
422035.065	NaN	-3.228	1.304	9.424	1504.762	1504.762	1511.355	-8.687	-0.473	9.282	-5.895	-0.612	8.268
422036.041	NaN	-3.228	1.304	9.424	1504.762	1504.029	1511.355	-8.534	-0.519	9.206	-5.895	-0.612	8.421
422037.018	NaN	-3.239	1.293	9.424	1506.227	1503.297	1509.890	-8.412	-0.290	9.160	-5.971	-0.536	8.268
422037.994	NaN	-3.239	1.283	9.424	1506.227	1504.029	1509.890	-8.321	-0.137	9.099	-6.048	-0.459	8.344
422038.971	NaN	-3.228	1.293	9.435	1505.495	1504.762	1511.355	-8.351	-0.122	9.206	-6.048	-0.689	8.421
422039.948	NaN	-3.217	1.283	9.424	1506.227	1504.029	1509.158	-8.458	-0.336	9.099	-5.971	-0.612	8.268
422040.924	NaN	-3.217	1.283	9.424	1505.495	1504.029	1510.623	-8.290	-0.412	9.115	-5.818	-0.536	8.191
422041.901	NaN	-3.228	1.293	9.424	1505.495	1503.297	1509.158	-8.504	-0.336	9.115	-5.895	-0.612	8.344
422042.877	NaN	-3.228	1.293	9.424	1507.692	1504.762	1510.623	-8.962	-0.183	9.176	-5.895	-0.536	8.344
422043.854	NaN	-3.217	1.293	9.413	1505.495	1504.762	1509.890	-8.885	-0.305	9.191	-5.895	-0.536	8.421
422044.830	NaN	-3.217	1.283	9.413	1505.495	1504.029	1509.890	-8.718	-0.321	9.176	-5.895	-0.536	8.268
422045.807	NaN	-3.217	1.293	9.413	1504.762	1504.762	1510.623	-8.534	-0.351	9.282	-5.895	-0.612	8.344
422046.783	NaN	-3.217	1.293	9.402	1503.297	1503.297	1509.890	-8.275	-0.427	9.237	-5.818	-0.536	8.268
422047.760	NaN	-3.217	1.304	9.402	1504.762	1504.762	1511.355	-8.443	-0.427	9.191	-5.971	-0.536	8.268
422048.737	NaN	-3.228	1.293	9.413	1505.495	1504.029	1509.890	-8.626	-0.351	9.069	-5.971	-0.459	8.421
422049.713	NaN	-3.217	1.304	9.413	1504.762	1503.297	1509.890	-8.702	-0.183	8.885	-5.971	-0.612	8.191
422050.690	NaN	-3.207	1.283	9.402	1505.495	1504.029	1510.623	-8.519	-0.198	9.008	-5.971	-0.612	8.344
422051.666	NaN	-3.207	1.293	9.402	1505.495	1504.029	1509.890	-8.244	-0.122	9.160	-6.048	-0.612	8.344
422052.643	NaN	-3.207	1.293	9.402	1506.227	1504.029	1509.890	-8.321	-0.183	9.252	-5.971	-0.612	8.344
422053.619	NaN	-3.217	1.293	9.402	1504.762	1504.029	1510.623	-8.321	-0.366	9.344	-5.818	-0.766	8.268
422054.596	NaN	-3.217	1.304	9.402	1505.495	1503.297	1511.355	-8.412	-0.336	9.176	-5.895	-0.536	8.191
422055.573	NaN	-3.228	1.304	9.413	1505.495	1503.297	1509.158	-8.351	-0.290	9.115	-5.971	-0.459	8.344
422056.549	NaN	-3.217	1.304	9.413	1505.495	1504.762	1511.355	-8.595	-0.275	9.313	-6.124	-0.612	8.574
422057.526	NaN	-3.217	1.304	9.391	1504.762	1503.297	1510.623	-8.489	-0.427	9.298	-5.818	-0.536	8.574
422058.502	NaN	-3.207	1.315	9.402	1505.495	1503.297	1510.623	-8.229	-0.305	9.099	-5.818	-0.612	8.268
422059.479	NaN	-3.217	1.304	9.402	1505.495	1504.029	1509.890	-8.305	-0.153	8.992	-6.048	-0.689	8.421
422060.455	NaN	-3.228	1.304	9.402	1504.762	1503.297	1508.425	-8.427	-0.168	8.977	-5.971	-0.536	8.344
422061.432	NaN	-3.217	1.315	9.402	1506.227	1504.762	1510.623	-8.641	-0.229	9.053	-5.971	-0.536	8.191
422062.408	NaN	-3.228	1.315	9.402	1504.762	1504.029	1509.890	-8.702	-0.183	9.221	-5.818	-0.536	8.344
422063.385	NaN	-3.228	1.315	9.402	1504.762	1504.029	1509.890	-8.718	-0.229	9.176	-5.818	-0.689	8.498
422064.362	NaN	-3.217	1.293	9.402	1504.029	1504.029	1509.158	-8.565	-0.305	9.084	-5.895	-0.536	8.191
422065.338	NaN	-3.217	1.315	9.402	1505.495	1504.029	1510.623	-8.504	-0.366	9.115	-5.818	-0.612	8.421
422066.315	NaN	-3.228	1.304	9.413	1505.495	1503.297	1510.623	-8.580	-0.321	9.023	-5.971	-0.459	8.344
422067.291	NaN	-3.217	1.315	9.413	1504.762	1502.564	1509.890	-8.550	-0.198	9.069	-5.971	-0.612	8.268
422068.268	NaN	-3.217	1.304	9.413	1505.495	1502.564	1509.890	-8.458	-0.107	8.977	-5.818	-0.612	8.344
422069.244	NaN	-3.228	1.293	9.402	1503.297	1502.564	1509.158	-8.397	-0.214	9.069	-5.818	-0.612	8.421
422070.221	NaN	-3.217	1.304	9.402	1504.029	1503.297	1509.158	-8.427	-0.290	9.038	-5.971	-0.536	8.498
422071.198	NaN	-3.228	1.304	9.391	1504.762	1504.762	1509.158	-8.626	-0.275	8.947	-5.971	-0.459	8.268
422072.174	NaN	-3.228	1.304	9.402	1504.762	1503.297	1508.425	-8.550	-0.137	9.008	-5.895	-0.612	8.498
422073.151	NaN	-3.228	1.315	9.402	1505.495	1504.029	1509.890	-8.366	-0.229	9.130	-5.971	-0.689	8.344
422074.127	NaN	-3.228	1.304	9.402	1504.762	1503.297	1509.890	-8.275	-0.290	9.084	-5.818	-0.536	8.268
422075.104	NaN	-3.217	1.315	9.413	1504.762	1503.297	1509.158	-8.366	-0.214	9.008	-5.818	-0.612	8.191
422076.080	NaN	-3.228	1.304	9.402	1504.762	1503.297	1509.158	-8.427	-0.061	9.145	-5.971	-0.536	8.268
422077.057	NaN	-3.228	1.304	9.413	1504.762	1502.564	1509.158	-8.550	-0.046	9.115	-5.971	-0.536	8.344
422078.033	NaN	-3.217	1.293	9.413	1506.227	1503.297	1510.623	-8.489	-0.305	9.130	-5.971	-0.536	8.344
422079.010	NaN	-3.217	1.304	9.402	1504.762	1504.762	1509.890	-8.565	-0.397	9.176	-5.895	-0.612	8.268
422079.987	NaN	-3.207	1.304	9.402	1505.495	1504.029	1510.623	-8.733	-0.229	9.191	-5.818	-0.612	8.344
422080.963	NaN	-3.207	1.304	9.402	1504.762	1503.297	1510.623	-8.580	-0.122	9.130	-5.895	-0.612	8.344
422081.940	NaN	-3.207	1.304	9.413	1504.762	1504.029	1510.623	-8.397	-0.183	9.176	-5.971	-0.612	8.268
422082.916	NaN	-3.217	1.315	9.402	1504.762	1504.029	1509.158	-8.397	-0.321	9.130	-5.971	-0.612	8.344
422083.893	NaN	-3.217	1.304	9.413	1504.762	1503.297	1509.890	-8.260	-0.366	8.992	-5.895	-0.459	8.268
422084.869	NaN	-3.207	1.315	9.413	1504.762	1504.029	1511.355	-8.412	-0.305	9.145	-5.818	-0.612	8.421
422085.846	NaN	-3.207	1.304	9.402	1504.762	1503.297	1509.158	-8.443	-0.244	9.023	-5.971	-0.536	8.268
422086.823	NaN	-3.217	1.293	9.391	1504.762	1502.564	1509.890	-8.534	-0.137	8.885	-5.895	-0.536	8.191
422087.799	NaN	-3.196	1.304	9.402	1506.227	1503.297	1510.623	-8.519	-0.214	8.977	-5.895	-0.536	8.421
422088.776	NaN	-3.217	1.293	9.402	1504.762	1504.029	1508.425	-8.397	-0.244	9.115	-5.895	-0.536	8.344
422089.752	NaN	-3.207	1.315	9.424	1505.495	1504.762	1509.158	-8.290	-0.168	9.084	-5.971	-0.459	8.344
422090.729	NaN	-3.207	1.304	9.424	1505.495	1504.029	1509.890	-8.473	-0.290	9.038	-5.895	-0.536	8.344
422091.705	NaN	-3.217	1.304	9.424	1504.762	1504.029	1508.425	-8.794	-0.321	9.038	-5.971	-0.612	8.268
422092.682	NaN	-3.207	1.304	9.435	1504.762	1504.029	1511.355	-8.885	-0.290	8.931	-5.895	-0.459	8.498
422093.658	NaN	-3.228	1.293	9.424	1504.762	1503.297	1509.890	-8.641	-0.290	8.855	-5.971	-0.536	8.344
422094.635	NaN	-3.217	1.304	9.424	1504.029	1504.029	1510.623	-8.412	-0.412	8.916	-5.895	-0.612	8.268
422095.612	NaN	-3.217	1.293	9.413	1505.495	1504.029	1510.623	-8.137	-0.427	9.023	-5.971	-0.689	8.344
422096.588	NaN	-3.217	1.304	9.413	1506.227	1502.564	1508.425	-8.076	-0.183	9.069	-5.818	-0.536	8.421
422097.565	NaN	-3.217	1.304	9.413	1506.227	1504.029	1510.623	-8.260	0.000	8.885	-5.895	-0.689	8.421
422098.541	NaN	-3.207	1.293	9.413	1505.495	1504.029	1509.890	-8.321	-0.153	8.901	-5.971	-0.536	8.421
422099.518	NaN	-3.207	1.304	9.413	1505.495	1502.564	1509.890	-8.168	-0.321	8.962	-5.971	-0.612	8.421
422100.494	NaN	-3.207	1.304	9.391	1504.762	1504.029	1509.890	-8.031	-0.366	9.130	-5.971	-0.612	8.421
422101.471	NaN	-3.207	1.293	9.391	1504.762	1503.297	1509.890	-8.229	-0.260	9.023	-5.818	-0.612	8.268
422102.448	NaN	-3.207	1.304	9.391	1505.495	1503.297	1510.623	-8.412	-0.153	9.008	-5.818	-0.459	8.421
422103.424	NaN	-3.217	1.293	9.380	1504.762	1503.297	1510.623	-8.443	-0.107	9.008	-5.895	-0.612	8.344
422104.401	NaN	-3.228	1.293	9.380	1504.029	1503.297	1509.158	-8.336	-0.321	9.038	-5.971	-0.536	8.191
422105.377	NaN	-3.228	1.293	9.402	1505.495	1503.297	1509.158	-8.351	-0.443	9.206	-5.971	-0.459	8.344
422106.354	NaN	-3.228	1.304	9.402	1505.495	1504.029	1511.355	-8.168	-0.260	8.931	-5.818	-0.536	8.268
422107.330	NaN	-3.228	1.304	9.391	1505.495	1504.029	1509.890	-7.939	-0.168	9.023	-5.818	-0.459	8.191
422108.307	NaN	-3.228	1.304	9.391	1504.762	1504.029	1509.890	-8.061	-0.137	9.084	-5.818	-0.612	8.344
422109.283	NaN	-3.228	1.304	9.391	1504.029	1504.029	1510.623	-8.366	-0.153	9.130	-5.895	-0.612	8.115
422110.260	NaN	-3.217	1.315	9.391	1504.762	1504.762	1511.355	-8.458	-0.061	9.160	-5.971	-0.612	8.115
422111.237	NaN	-3.228	1.304	9.402	1506.227	1504.029	1511.355	-8.718	-0.015	9.008	-5.971	-0.536	8.268
422112.213	NaN	-3.228	1.293	9.402	1506.227	1504.029	1510.623	-8.489	-0.214	8.992	-5.971	-0.536	8.344
422113.190	NaN	-3.228	1.293	9.391	1505.495	1503.297	1511.355	-8.321	-0.229	8.901	-5.895	-0.536	8.344
422114.166	NaN	-3.217	1.304	9.391	1506.227	1503.297	1509.158	-8.153	-0.198	8.870	-5.818	-0.536	8.344
422115.143	NaN	-3.217	1.315	9.402	1504.762	1504.029	1509.890	-8.321	-0.275	8.840	-5.895	-0.459	8.421
422116.119	NaN	-3.207	1.315	9.413	1505.495	1504.762	1511.355	-8.351	-0.321	9.145	-5.895	-0.536	8.268
422117.096	NaN	-3.217	1.315	9.413	1505.495	1504.029	1510.623	-8.412	-0.214	8.977	-5.818	-0.612	8.421
422118.073	NaN	-3.217	1.293	9.402	1506.227	1503.297	1510.623	-8.382	-0.229	8.947	-5.895	-0.536	8.421
422119.049	NaN	-3.228	1.283	9.402	1505.495	1502.564	1508.425	-8.580	-0.427	8.977	-5.895	-0.612	8.344
422120.026	NaN	-3.228	1.293	9.413	1506.227	1502.564	1509.158	-8.489	-0.550	9.115	-5.895	-0.536	8.268
422121.002	NaN	-3.228	1.293	9.391	1505.495	1504.029	1509.890	-8.611	-0.260	8.824	-5.818	-0.536	8.421
422121.979	NaN	-3.239	1.304	9.391	1505.495	1503.297	1509.158	-8.382	-0.122	8.931	-6.048	-0.612	8.344
422122.955	NaN	-3.217	1.304	9.402	1506.227	1503.297	1509.890	-8.260	-0.183	8.992	-5.971	-0.612	8.344
422123.932	NaN	-3.228	1.293	9.402	1505.495	1504.029	1509.158	-8.183	-0.275	9.115	-5.818	-0.536	8.268
422124.908	NaN	-3.217	1.293	9.424	1504.029	1502.564	1509.158	-8.137	-0.214	8.977	-5.895	-0.536	8.421
422125.885	NaN	-3.217	1.293	9.424	1505.495	1504.762	1510.623	-8.366	-0.076	8.733	-5.895	-0.689	8.191
422126.862	3736848355.913	-3.217	1.293	9.424	1504.762	1503.297	1509.158	-8.733	-0.198	8.885	-5.971	-0.459	8.421
422127.838	NaN	-3.217	1.283	9.424	1506.227	1504.029	1511.355	-8.489	-0.397	8.962	-6.048	-0.536	8.344
422128.815	NaN	-3.228	1.272	9.413	1504.029	1504.029	1510.623	-8.275	-0.427	9.115	-5.971	-0.689	8.268
422129.791	NaN	-3.217	1.293	9.413	1504.762	1503.297	1509.890	-8.000	-0.382	9.115	-5.971	-0.612	8.498
422130.768	NaN	-3.228	1.293	9.413	1504.762	1504.762	1509.890	-8.107	-0.137	8.809	-5.895	-0.612	8.344
422131.744	NaN	-3.239	1.293	9.402	1504.762	1504.029	1509.158	-8.443	-0.107	8.718	-5.895	-0.536	8.421
422132.721	NaN	-3.228	1.304	9.402	1505.495	1504.029	1510.623	-8.504	-0.244	8.885	-5.818	-0.612	8.268
422133.698	NaN	-3.228	1.293	9.402	1505.495	1504.029	1509.890	-8.550	-0.153	9.069	-5.895	-0.612	8.344
422134.674	NaN	-3.228	1.293	9.402	1504.762	1503.297	1511.355	-8.412	-0.153	9.038	-5.971	-0.536	8.344
422135.651	NaN	-3.228	1.293	9.380	1504.762	1502.564	1510.623	-8.214	-0.153	9.038	-6.048	-0.612	8.268
422136.627	NaN	-3.217	1.293	9.391	1504.762	1503.297	1510.623	-8.305	-0.198	8.931	-5.971	-0.536	8.191
422137.604	NaN	-3.207	1.293	9.402	1504.762	1503.297	1510.623	-8.275	-0.244	8.687	-5.971	-0.612	8.421
422138.580	NaN	-3.217	1.293	9.402	1504.762	1504.029	1511.355	-8.168	-0.305	8.763	-5.895	-0.689	8.191
422139.557	NaN	-3.217	1.293	9.402	1504.762	1504.029	1509.890	-8.153	-0.290	9.084	-5.818	-0.612	8.268
422140.533	NaN	-3.217	1.293	9.402	1505.495	1503.297	1509.890	-8.183	-0.107	9.176	-5.895	-0.612	8.421
422141.510	NaN	-3.217	1.304	9.402	1505.495	1504.029	1510.623	-8.244	-0.092	8.779	-5.818	-0.612	8.421
422142.487	NaN	-3.217	1.293	9.413	1505.495	1504.029	1511.355	-8.397	-0.260	8.534	-5.971	-0.536	8.421
422143.463	NaN	-3.217	1.304	9.413	1505.495	1503.297	1510.623	-8.458	-0.260	8.748	-5.971	-0.689	8.344
422144.440	NaN	-3.228	1.293	9.402	1505.495	1503.297	1509.890	-8.412	-0.122	8.962	-5.818	-0.766	8.344
422145.416	NaN	-3.228	1.293	9.402	1504.762	1502.564	1508.425	-8.168	-0.122	9.084	-5.818	-0.459	8.344
422146.393	NaN	-3.217	1.315	9.413	1506.227	1504.029	1510.623	-8.061	-0.137	9.160	-5.818	-0.459	8.344
422147.369	NaN	-3.207	1.315	9.413	1504.762	1504.762	1509.890	-8.122	-0.122	8.885	-5.895	-0.459	8.268
422148.346	NaN	-3.207	1.304	9.413	1504.762	1503.297	1509.890	-8.382	-0.092	8.748	-5.895	-0.459	8.344
422149.323	NaN	-3.217	1.293	9.402	1505.495	1503.297	1509.890	-8.504	-0.168	8.809	-6.048	-0.536	8.344
422150.299	NaN	-3.217	1.293	9.402	1505.495	1504.029	1509.890	-8.443	-0.183	8.901	-5.895	-0.536	8.268
422151.276	NaN	-3.217	1.304	9.402	1506.227	1504.029	1510.623	-8.290	-0.107	9.023	-5.895	-0.459	8.421
422152.252	NaN	-3.217	1.315	9.391	1505.495	1504.029	1510.623	-8.000	-0.244	8.901	-5.971	-0.612	8.268
422153.229	NaN	-3.228	1.304	9.391	1505.495	1503.297	1510.623	-8.229	-0.290	8.794	-5.895	-0.612	8.421
422154.205	NaN	-3.228	1.304	9.391	1505.495	1504.029	1510.623	-8.458	-0.214	8.824	-5.895	-0.459	8.344
422155.182	NaN	-3.217	1.304	9.391	1506.227	1504.029	1511.355	-8.168	-0.092	8.931	-5.895	-0.689	8.268
422156.158	NaN	-3.217	1.293	9.402	1506.227	1503.297	1511.355	-8.107	0.015	8.870	-5.895	-0.536	8.268
422157.135	NaN	-3.217	1.304	9.402	1504.762	1504.029	1509.890	-7.908	0.122	8.763	-5.971	-0.459	8.268
422158.112	NaN	-3.228	1.293	9.402	1505.495	1504.029	1508.425	-8.137	0.092	8.779	-5.895	-0.612	8.191
422159.088	NaN	-3.217	1.304	9.391	1506.227	1504.029	1510.623	-8.321	-0.031	9.008	-5.742	-0.689	8.268
422160.065	NaN	-3.228	1.293	9.402	1504.762	1503.297	1508.425	-8.519	-0.137	9.038	-5.895	-0.612	8.191
422161.041	NaN	-3.228	1.293	9.413	1504.762	1502.564	1506.960	-8.351	-0.275	8.992	-5.818	-0.536	8.268
422162.018	NaN	-3.207	1.304	9.402	1504.762	1504.029	1510.623	-8.290	-0.214	8.916	-5.895	-0.459	8.191
422162.994	NaN	-3.228	1.293	9.402	1504.762	1502.564	1509.158	-8.382	-0.183	8.794	-5.971	-0.383	8.344
422163.971	NaN	-3.207	1.293	9.413	1504.762	1503.297	1509.158	-8.214	-0.168	8.779	-5.971	-0.536	8.344
422164.948	NaN	-3.217	1.293	9.402	1504.762	1503.297	1510.623	-8.351	-0.168	8.763	-5.895	-0.536	8.421
422165.924	NaN	-3.217	1.304	9.413	1505.495	1502.564	1509.890	-8.275	-0.214	9.038	-5.895	-0.536	8.191
422166.901	NaN	-3.217	1.315	9.413	1504.762	1503.297	1509.890	-7.954	-0.107	9.084	-5.971	-0.536	8.268
422167.877	NaN	-3.207	1.293	9.413	1505.495	1504.029	1509.890	-7.954	-0.229	9.038	-5.971	-0.536	8.344
422168.854	NaN	-3.207	1.304	9.402	1505.495	1504.029	1510.623	-8.031	-0.351	9.069	-5.895	-0.689	8.344
422169.830	NaN	-3.207	1.293	9.402	1504.762	1504.029	1510.623	-7.969	-0.290	8.992	-5.895	-0.536	8.268
422170.807	NaN	-3.207	1.293	9.380	1505.495	1504.029	1509.890	-8.198	-0.198	8.885	-5.895	-0.536	8.421
422171.783	NaN	-3.217	1.293	9.380	1505.495	1503.297	1510.623	-8.351	-0.153	8.931	-5.895	-0.689	8.344
422172.760	NaN	-3.217	1.304	9.391	1506.227	1504.029	1509.890	-8.351	-0.275	8.992	-5.971	-0.689	8.191
422173.737	NaN	-3.217	1.304	9.391	1504.762	1504.762	1510.623	-8.443	-0.260	8.931	-5.971	-0.459	8.344
422174.713	NaN	-3.207	1.304	9.391	1505.495	1504.029	1509.890	-8.183	-0.183	8.763	-5.895	-0.459	8.421
422175.690	NaN	-3.217	1.293	9.391	1504.762	1504.029	1509.890	-8.061	-0.092	8.809	-5.818	-0.689	8.344
422176.666	NaN	-3.228	1.304	9.391	1504.762	1503.297	1509.158	-8.076	-0.092	9.038	-5.971	-0.536	8.344
422177.643	NaN	-3.207	1.304	9.402	1505.495	1504.762	1510.623	-8.061	-0.122	8.870	-5.971	-0.536	8.344
422178.619	NaN	-3.207	1.315	9.402	1505.495	1504.029	1510.623	-8.305	-0.198	8.763	-5.818	-0.536	8.115
422179.596	NaN	-3.207	1.315	9.413	1505.495	1504.029	1510.623	-8.382	-0.046	8.763	-5.971	-0.612	8.344
422180.573	NaN	-3.207	1.315	9.402	1504.762	1504.029	1509.890	-8.366	-0.031	8.824	-5.895	-0.612	8.344
422181.549	NaN	-3.207	1.315	9.402	1506.227	1504.762	1510.623	-8.244	-0.321	8.763	-5.971	-0.612	8.344
422182.526	NaN	-3.217	1.315	9.391	1504.762	1504.029	1509.890	-7.939	-0.351	8.656	-5.895	-0.536	8.268
422183.502	NaN	-3.217	1.315	9.391	1506.227	1504.029	1509.890	-7.908	-0.137	8.794	-5.895	-0.612	8.268
422184.479	NaN	-3.217	1.304	9.402	1505.495	1503.297	1509.158	-8.061	0.046	8.870	-5.818	-0.536	8.344
422185.455	NaN	-3.228	1.293	9.402	1504.029	1503.297	1509.158	-8.198	-0.061	8.916	-5.818	-0.536	8.344
422186.432	NaN	-3.217	1.304	9.402	1505.495	1504.029	1510.623	-8.366	-0.260	8.901	-5.818	-0.383	8.344
422187.408	NaN	-3.228	1.304	9.413	1504.762	1504.029	1509.890	-8.260	-0.153	8.870	-5.742	-0.459	8.344
422188.385	NaN	-3.239	1.304	9.424	1504.029	1503.297	1509.890	-7.985	-0.198	8.779	-5.895	-0.536	8.191
422189.362	NaN	-3.239	1.293	9.424	1504.029	1504.762	1511.355	-8.183	-0.229	8.855	-5.895	-0.536	8.421
422190.338	NaN	-3.228	1.304	9.424	1506.960	1504.029	1510.623	-8.305	-0.137	8.748	-5.895	-0.536	8.268
422191.315	NaN	-3.228	1.283	9.413	1504.762	1503.297	1509.890	-8.183	-0.214	8.702	-5.895	-0.689	8.268
422192.291	NaN	-3.228	1.293	9.402	1505.495	1504.029	1508.425	-8.153	-0.061	8.931	-5.971	-0.536	8.421
422193.268	NaN	-3.228	1.293	9.402	1504.762	1504.029	1509.158	-8.244	-0.290	8.855	-5.818	-0.612	8.268
422194.244	NaN	-3.228	1.293	9.380	1505.495	1504.029	1510.623	-8.412	-0.305	8.748	-5.895	-0.536	8.268
422195.221	NaN	-3.228	1.304	9.402	1504.762	1504.029	1512.088	-8.382	-0.229	8.748	-5.971	-0.383	8.268
422196.198	NaN	-3.228	1.304	9.402	1505.495	1503.297	1509.158	-8.183	-0.183	8.931	-5.971	-0.612	8.344
422197.174	NaN	-3.228	1.304	9.391	1504.762	1502.564	1509.890	-7.954	-0.092	8.931	-5.895	-0.536	8.421
422198.151	NaN	-3.228	1.304	9.402	1504.029	1502.564	1509.890	-8.031	0.015	9.008	-5.895	-0.459	8.344
422199.127	NaN	-3.217	1.304	9.391	1504.762	1502.564	1509.890	-8.183	-0.092	9.008	-5.895	-0.612	8.344
422200.104	NaN	-3.207	1.304	9.402	1504.029	1504.029	1508.425	-8.076	-0.107	8.748	-5.818	-0.536	8.498
422201.080	NaN	-3.207	1.304	9.402	1505.495	1504.762	1509.890	-8.168	-0.153	8.779	-5.895	-0.536	8.574
422202.057	NaN	-3.207	1.304	9.402	1504.762	1502.564	1509.890	-8.198	-0.351	8.794	-6.048	-0.536	8.421
422203.033	NaN	-3.207	1.304	9.402	1504.762	1502.564	1508.425	-7.954	-0.260	8.702	-5.895	-0.459	8.421
422204.010	NaN	-3.207	1.304	9.402	1506.227	1504.762	1511.355	-7.832	-0.260	8.687	-5.895	-0.612	8.421
422204.987	NaN	-3.217	1.293	9.402	1504.762	1504.029	1512.088	-7.863	-0.183	8.794	-5.742	-0.459	8.498
422205.963	NaN	-3.228	1.293	9.402	1506.227	1503.297	1509.890	-8.137	-0.076	8.992	-5.895	-0.459	8.344
422206.940	NaN	-3.239	1.293	9.413	1506.227	1503.297	1511.355	-8.260	0.031	8.733	-5.895	-0.536	8.344
422207.916	NaN	-3.228	1.283	9.413	1504.762	1504.029	1509.890	-8.351	-0.061	8.672	-5.971	-0.612	8.268
422208.893	NaN	-3.217	1.283	9.424	1506.227	1504.029	1509.890	-8.305	0.015	8.947	-5.818	-0.536	8.421
422209.869	NaN	-3.217	1.272	9.413	1503.297	1503.297	1510.623	-8.351	0.076	8.733	-5.895	-0.612	8.191
422210.846	NaN	-3.228	1.283	9.413	1504.762	1503.297	1509.158	-8.412	-0.015	8.580	-5.818	-0.536	8.344
422211.823	NaN	-3.228	1.283	9.402	1503.297	1504.029	1509.158	-8.366	-0.153	8.718	-5.818	-0.536	8.421
422212.799	NaN	-3.217	1.293	9.391	1506.227	1504.029	1511.355	-8.153	-0.046	8.626	-5.818	-0.536	8.268
422213.776	NaN	-3.217	1.293	9.391	1505.495	1504.029	1510.623	-7.954	-0.107	8.443	-5.895	-0.766	8.268
422214.752	NaN	-3.217	1.304	9.391	1501.832	1504.029	1511.355	-8.015	-0.305	8.580	-5.971	-0.612	8.421
422215.729	NaN	-3.207	1.293	9.402	1504.029	1502.564	1510.623	-8.031	-0.443	8.611	-5.895	-0.536	8.421
422216.705	NaN	-3.217	1.304	9.402	1506.227	1504.029	1509.890	-8.031	-0.473	8.641	-5.818	-0.689	8.344
422217.682	NaN	-3.217	1.304	9.402	1505.495	1503.297	1511.355	-8.031	-0.229	8.702	-5.895	-0.612	8.344
422218.658	NaN	-3.228	1.293	9.402	1505.495	1503.297	1509.890	-8.031	-0.046	8.611	-5.971	-0.536	8.268
422219.635	NaN	-3.217	1.293	9.402	1505.495	1504.029	1512.088	-8.107	0.000	8.733	-5.818	-0.536	8.268
422220.612	NaN	-3.228	1.304	9.391	1504.762	1504.029	1511.355	-7.878	-0.153	8.779	-5.971	-0.612	8.344
422221.588	NaN	-3.207	1.304	9.402	1505.495	1504.029	1509.890	-7.893	-0.046	8.656	-5.971	-0.459	8.498
422222.565	NaN	-3.207	1.315	9.402	1505.495	1504.029	1512.088	-8.107	-0.031	8.580	-5.895	-0.689	8.268
422223.541	NaN	-3.217	1.304	9.391	1504.762	1503.297	1509.890	-8.107	-0.290	8.534	-5.971	-0.689	8.268
422224.518	NaN	-3.228	1.304	9.391	1504.029	1502.564	1508.425	-8.275	-0.122	8.855	-5.818	-0.612	8.268
422225.494	NaN	-3.239	1.304	9.402	1506.227	1504.029	1509.158	-8.168	0.000	8.779	-5.818	-0.612	8.268
422226.471	NaN	-3.228	1.315	9.391	1506.227	1504.762	1510.623	-8.168	-0.137	8.718	-5.971	-0.459	8.344
422227.448	NaN	-3.228	1.304	9.391	1505.495	1504.029	1510.623	-8.214	-0.107	8.702	-5.895	-0.612	8.421
422228.424	NaN	-3.228	1.315	9.391	1505.495	1504.029	1509.158	-8.092	-0.122	8.641	-5.818	-0.536	8.498
422229.401	NaN	-3.228	1.304	9.391	1505.495	1504.762	1509.890	-8.229	-0.076	8.611	-5.971	-0.459	8.421
422230.377	NaN	-3.207	1.304	9.380	1504.762	1504.762	1509.158	-8.198	-0.076	8.840	-5.895	-0.612	8.344
422231.354	NaN	-3.217	1.304	9.380	1506.227	1503.297	1509.158	-8.198	-0.260	9.053	-5.818	-0.459	8.268
422232.330	NaN	-3.217	1.315	9.380	1504.029	1503.297	1509.890	-8.198	-0.214	8.824	-5.818	-0.612	8.421
422233.307	NaN	-3.217	1.304	9.380	1504.762	1504.029	1509.158	-8.000	-0.153	8.565	-6.048	-0.689	8.268
422234.283	NaN	-3.228	1.315	9.391	1504.029	1503.297	1508.425	-8.168	-0.122	8.565	-5.971	-0.536	8.421
422235.260	NaN	-3.217	1.315	9.391	1505.495	1504.029	1510.623	-8.122	0.015	8.672	-5.895	-0.536	8.191
422236.237	NaN	-3.228	1.315	9.380	1505.495	1503.297	1509.158	-7.908	-0.031	8.656	-5.895	-0.689	8.344
422237.213	NaN	-3.228	1.315	9.402	1504.762	1502.564	1509.158	-7.878	-0.183	8.626	-5.895	-0.612	8.344
422238.190	NaN	-3.228	1.315	9.380	1504.762	1504.762	1509.890	-7.802	-0.397	8.397	-6.048	-0.612	8.191
422239.166	NaN	-3.217	1.315	9.380	1506.227	1504.029	1509.158	-7.924	-0.366	8.443	-5.895	-0.459	8.344
422240.143	NaN	-3.228	1.304	9.391	1504.762	1502.564	1509.890	-8.275	-0.198	8.718	-5.818	-0.612	8.421
422241.119	NaN	-3.217	1.293	9.402	1503.297	1502.564	1509.158	-8.107	-0.107	8.763	-5.971	-0.536	8.421
422242.096	NaN	-3.228	1.293	9.402	1505.495	1504.029	1511.355	-8.107	-0.214	8.809	-5.895	-0.459	8.268
422243.073	NaN	-3.228	1.293	9.402	1505.495	1503.297	1510.623	-7.893	-0.153	8.672	-5.971	-0.612	8.268
422244.049	NaN	-3.207	1.293	9.402	1504.762	1504.029	1509.158	-7.802	-0.046	8.580	-5.742	-0.536	8.344
422245.026	NaN	-3.207	1.304	9.402	1504.029	1503.297	1510.623	-8.000	-0.183	8.641	-6.048	-0.612	8.344
422246.002	NaN	-3.207	1.304	9.402	1506.227	1503.297	1510.623	-8.198	-0.321	8.580	-5.895	-0.612	8.421
422246.979	NaN	-3.217	1.293	9.402	1504.762	1503.297	1509.158	-8.153	-0.336	8.641	-5.895	-0.459	8.268
422247.955	NaN	-3.228	1.304	9.391	1504.762	1503.297	1509.158	-8.153	-0.153	8.824	-5.971	-0.536	8.268
422248.932	NaN	-3.228	1.304	9.391	1504.762	1503.297	1509.890	-8.290	-0.076	8.824	-5.971	-0.459	8.344
422249.908	NaN	-3.250	1.304	9.380	1505.495	1503.297	1509.158	-8.260	-0.107	8.550	-5.971	-0.612	8.344
422250.885	NaN	-3.250	1.293	9.391	1504.762	1503.297	1509.890	-8.092	-0.198	8.473	-5.971	-0.612	8.498
422251.862	NaN	-3.239	1.304	9.402	1506.227	1504.029	1510.623	-7.985	-0.183	8.534	-5.895	-0.536	8.344
422252.838	NaN	-3.228	1.293	9.391	1504.762	1502.564	1509.158	-7.756	-0.076	8.748	-5.971	-0.536	8.344
422253.815	NaN	-3.217	1.304	9.391	1504.762	1503.297	1509.890	-7.908	-0.260	8.763	-5.971	-0.612	8.268
422254.791	NaN	-3.228	1.293	9.370	1504.762	1504.762	1510.623	-8.244	-0.321	8.611	-5.971	-0.536	8.268
422255.768	NaN	-3.207	1.304	9.380	1504.762	1503.297	1509.158	-8.229	-0.031	8.519	-5.818	-0.536	8.268
422256.744	NaN	-3.217	1.304	9.391	1504.762	1504.762	1509.890	-8.107	0.000	8.473	-5.971	-0.612	8.344
422257.721	NaN	-3.207	1.315	9.413	1504.029	1505.495	1509.890	-7.847	0.031	8.595	-6.048	-0.459	8.421
422258.698	NaN	-3.217	1.293	9.413	1505.495	1504.029	1509.158	-7.863	-0.061	8.733	-6.048	-0.536	8.344
422259.674	NaN	-3.217	1.304	9.424	1505.495	1503.297	1510.623	-7.985	-0.260	8.718	-6.048	-0.536	8.344
422260.651	NaN	-3.228	1.304	9.413	1504.762	1503.297	1512.088	-8.092	-0.168	8.565	-5.665	-0.383	8.191
422261.627	NaN	-3.207	1.315	9.413	1506.960	1503.297	1509.890	-7.847	-0.046	8.519	-5.895	-0.612	8.268
422262.604	NaN	-3.207	1.304	9.402	1504.029	1504.029	1511.355	-7.710	-0.092	8.351	-5.971	-0.689	8.498
422263.580	NaN	-3.217	1.304	9.391	1504.762	1504.029	1509.890	-7.969	0.061	8.519	-6.048	-0.536	8.268
422264.557	NaN	-3.207	1.293	9.391	1506.227	1503.297	1509.890	-8.092	-0.092	8.611	-5.818	-0.612	8.344
422265.533	NaN	-3.217	1.293	9.391	1504.762	1503.297	1509.158	-8.000	-0.137	8.733	-6.048	-0.536	8.344
422266.510	NaN	-3.217	1.304	9.391	1505.495	1504.762	1509.890	-7.969	-0.076	8.687	-6.048	-0.612	8.421
422267.487	NaN	-3.217	1.304	9.380	1506.227	1504.029	1509.158	-8.000	-0.061	8.534	-5.895	-0.536	8.268
422268.463	NaN	-3.228	1.304	9.380	1504.762	1504.029	1509.158	-8.198	-0.122	8.473	-5.818	-0.536	8.344
422269.440	NaN	-3.217	1.304	9.391	1504.762	1502.564	1509.890	-8.275	-0.229	8.565	-5.895	-0.536	8.498
422270.416	NaN	-3.207	1.315	9.391	1504.762	1504.029	1510.623	-8.046	-0.214	8.473	-5.895	-0.612	8.268
422271.393	NaN	-3.217	1.293	9.391	1504.762	1503.297	1509.158	-7.863	-0.153	8.580	-5.895	-0.536	8.498
422272.369	NaN	-3.196	1.304	9.391	1504.762	1502.564	1510.623	-8.092	-0.046	8.641	-5.895	-0.612	8.421
422273.346	NaN	-3.196	1.315	9.402	1505.495	1503.297	1509.890	-8.275	-0.214	8.687	-5.895	-0.612	8.191
422274.323	NaN	-3.217	1.293	9.413	1504.029	1503.297	1509.890	-8.168	-0.183	8.611	-6.048	-0.536	8.344
422275.299	NaN	-3.207	1.304	9.413	1505.495	1504.762	1509.890	-8.183	-0.015	8.321	-6.048	-0.536	8.344
422276.276	NaN	-3.207	1.304	9.413	1504.762	1504.762	1510.623	-8.122	0.076	8.397	-5.971	-0.536	8.344
422277.252	NaN	-3.217	1.293	9.402	1504.762	1504.762	1511.355	-8.031	0.031	8.580	-5.971	-0.536	8.344
422278.229	NaN	-3.217	1.293	9.402	1504.762	1502.564	1509.158	-7.893	-0.076	8.779	-5.971	-0.612	8.421
422279.205	NaN	-3.228	1.304	9.391	1505.495	1503.297	1509.158	-7.878	-0.046	8.656	-6.048	-0.536	8.344
422280.182	NaN	-3.217	1.304	9.402	1504.762	1504.029	1510.623	-7.817	-0.107	8.473	-5.818	-0.459	8.268
422281.158	NaN	-3.228	1.293	9.391	1505.495	1503.297	1508.425	-8.168	0.000	8.534	-5.895	-0.612	8.421
422282.135	NaN	-3.217	1.304	9.391	1504.762	1504.762	1509.158	-8.260	0.076	8.626	-5.971	-0.689	8.268
422283.112	NaN	-3.217	1.293	9.380	1504.762	1504.029	1508.425	-7.985	-0.076	8.534	-5.971	-0.536	8.344
422284.088	NaN	-3.217	1.315	9.402	1506.227	1504.029	1509.890	-7.634	-0.183	8.443	-5.895	-0.536	8.115
422285.065	NaN	-3.217	1.315	9.402	1504.762	1504.029	1509.890	-7.832	0.015	8.534	-5.895	-0.459	8.344
422286.041	NaN	-3.217	1.315	9.402	1504.762	1504.029	1510.623	-8.153	-0.031	8.687	-5.971	-0.536	8.191
422287.018	NaN	-3.217	1.315	9.402	1504.762	1504.762	1509.158	-8.244	-0.183	8.794	-5.895	-0.536	8.421
422287.994	3736848356.080	-3.228	1.304	9.391	1504.762	1504.029	1509.158	-8.107	-0.198	8.580	-5.895	-0.612	8.344
422288.971	NaN	-3.228	1.304	9.380	1504.762	1502.564	1508.425	-7.954	-0.137	8.458	-6.048	-0.689	8.344
422289.948	NaN	-3.228	1.293	9.380	1504.029	1502.564	1509.158	-7.908	-0.137	8.397	-5.895	-0.459	8.344
422290.924	NaN	-3.217	1.304	9.380	1504.762	1504.029	1509.890	-8.046	-0.168	8.458	-5.895	-0.612	8.268
422291.901	NaN	-3.239	1.283	9.380	1504.762	1504.029	1509.890	-8.107	-0.137	8.504	-5.971	-0.459	8.344
422292.877	NaN	-3.228	1.293	9.380	1506.227	1504.762	1510.623	-8.076	-0.153	8.702	-5.971	-0.536	8.498
422293.854	NaN	-3.207	1.304	9.380	1504.762	1504.029	1510.623	-7.817	-0.107	8.794	-5.895	-0.536	8.191
422294.830	NaN	-3.217	1.315	9.380	1505.495	1503.297	1509.890	-7.924	-0.198	8.702	-5.895	-0.612	8.191
422295.807	NaN	-3.207	1.304	9.380	1504.762	1503.297	1509.890	-7.954	-0.290	8.550	-5.818	-0.536	8.191
422296.783	NaN	-3.217	1.293	9.370	1504.029	1504.029	1509.890	-8.107	-0.382	8.351	-5.742	-0.536	8.344
422297.760	NaN	-3.217	1.304	9.380	1504.762	1504.029	1510.623	-8.046	-0.336	8.382	-5.895	-0.536	8.421
422298.737	NaN	-3.228	1.304	9.391	1504.762	1503.297	1509.158	-7.786	-0.183	8.626	-5.971	-0.383	8.268
422299.713	NaN	-3.217	1.304	9.402	1503.297	1502.564	1509.158	-7.634	-0.061	8.779	-5.895	-0.536	8.344
422300.690	NaN	-3.228	1.304	9.424	1505.495	1504.029	1509.890	-7.863	-0.092	8.427	-5.971	-0.612	8.191
422301.666	NaN	-3.228	1.304	9.435	1506.227	1504.762	1510.623	-7.847	-0.275	8.275	-5.818	-0.459	8.268
422302.643	NaN	-3.228	1.304	9.435	1504.029	1503.297	1508.425	-7.756	-0.198	8.412	-5.895	-0.612	8.421
422303.619	NaN	-3.228	1.315	9.435	1504.029	1503.297	1509.158	-7.985	-0.061	8.534	-5.971	-0.612	8.344
422304.596	NaN	-3.217	1.304	9.424	1504.762	1504.029	1509.890	-7.939	-0.046	8.534	-5.971	-0.459	8.268
422305.573	NaN	-3.217	1.304	9.424	1504.029	1503.297	1509.158	-7.908	-0.107	8.519	-5.895	-0.612	8.498
422306.549	NaN	-3.196	1.304	9.413	1504.762	1504.029	1509.890	-7.878	-0.168	8.473	-5.895	-0.536	8.421
422307.526	NaN	-3.217	1.293	9.402	1504.762	1503.297	1509.890	-7.847	-0.351	8.397	-5.742	-0.459	8.344
422308.502	NaN	-3.207	1.293	9.413	1504.762	1503.297	1509.158	-7.786	-0.397	8.489	-5.895	-0.689	8.421
422309.479	NaN	-3.207	1.283	9.402	1505.495	1503.297	1509.158	-7.954	-0.183	8.519	-5.818	-0.459	8.268
422310.455	NaN	-3.228	1.283	9.402	1504.762	1504.762	1509.158	-8.290	-0.107	8.489	-5.895	-0.612	8.421
422311.432	NaN	-3.228	1.293	9.402	1505.495	1504.762	1509.890	-8.000	-0.137	8.412	-5.818	-0.536	8.268
422312.408	NaN	-3.228	1.293	9.413	1505.495	1504.029	1510.623	-7.756	-0.168	8.275	-5.895	-0.536	8.268
422313.385	NaN	-3.228	1.283	9.424	1505.495	1503.297	1509.890	-7.725	-0.061	8.321	-5.818	-0.459	8.421
422314.362	NaN	-3.228	1.283	9.413	1505.495	1504.029	1509.890	-7.939	-0.061	8.427	-6.048	-0.612	8.344
422315.338	NaN	-3.228	1.293	9.402	1505.495	1504.762	1510.623	-7.710	-0.107	8.412	-5.895	-0.689	8.344
422316.315	NaN	-3.217	1.293	9.413	1506.227	1504.762	1509.890	-7.939	-0.137	8.244	-5.971	-0.612	8.421
422317.291	NaN	-3.228	1.283	9.424	1505.495	1503.297	1509.890	-7.969	-0.046	8.305	-5.971	-0.612	8.344
422318.268	NaN	-3.217	1.283	9.413	1504.762	1503.297	1510.623	-7.969	-0.137	8.458	-5.971	-0.459	8.344
422319.244	NaN	-3.228	1.283	9.413	1506.227	1504.029	1509.890	-7.969	-0.137	8.565	-5.818	-0.536	8.268
422320.221	NaN	-3.228	1.293	9.402	1505.495	1505.495	1510.623	-7.863	-0.137	8.550	-5.818	-0.536	8.191
422321.198	NaN	-3.217	1.304	9.402	1504.762	1504.029	1509.890	-7.954	-0.046	8.351	-5.971	-0.536	8.421
422322.174	NaN	-3.217	1.293	9.413	1506.227	1503.297	1510.623	-8.000	-0.122	8.214	-5.895	-0.612	8.268
422323.151	NaN	-3.239	1.283	9.413	1504.762	1503.297	1509.158	-7.939	-0.290	8.290	-5.818	-0.536	8.115
422324.127	NaN	-3.239	1.293	9.424	1504.762	1503.297	1510.623	-7.832	-0.260	8.366	-5.895	-0.536	8.421
422325.104	NaN	-3.228	1.293	9.413	1503.297	1503.297	1509.158	-7.817	-0.092	8.336	-5.818	-0.612	8.344
422326.080	NaN	-3.217	1.304	9.402	1504.762	1503.297	1509.158	-7.985	0.107	8.427	-5.895	-0.459	8.421
422327.057	NaN	-3.228	1.293	9.402	1504.762	1502.564	1509.158	-7.924	0.107	8.244	-5.818	-0.689	8.421
422328.033	NaN	-3.217	1.293	9.402	1504.762	1503.297	1509.158	-7.634	0.000	8.290	-5.818	-0.536	8.268
422329.010	NaN	-3.217	1.293	9.413	1505.495	1504.762	1510.623	-7.679	-0.046	8.443	-6.124	-0.612	8.344
422329.987	NaN	-3.217	1.293	9.402	1504.762	1504.762	1511.355	-7.924	-0.046	8.534	-6.048	-0.536	8.268
422330.963	NaN	-3.228	1.293	9.413	1505.495	1504.029	1511.355	-7.924	-0.046	8.397	-5.895	-0.536	8.421
422331.940	NaN	-3.228	1.283	9.402	1504.762	1503.297	1509.890	-7.908	0.031	8.305	-5.895	-0.612	8.268
422332.916	NaN	-3.228	1.283	9.391	1504.762	1503.297	1509.158	-7.695	-0.137	8.137	-5.895	-0.612	8.268
422333.893	NaN	-3.217	1.304	9.380	1505.495	1503.297	1510.623	-7.588	-0.214	8.061	-5.895	-0.612	8.421
422334.869	NaN	-3.196	1.304	9.380	1505.495	1504.029	1512.088	-7.817	-0.076	8.275	-5.971	-0.459	8.421
422335.846	NaN	-3.217	1.293	9.380	1505.495	1503.297	1509.158	-8.061	0.031	8.458	-5.895	-0.536	8.498
422336.823	NaN	-3.217	1.293	9.380	1503.297	1503.297	1509.158	-7.954	-0.061	8.443	-5.818	-0.689	8.268
422337.799	NaN	-3.207	1.293	9.391	1504.762	1504.029	1511.355	-7.924	-0.183	8.351	-5.971	-0.536	8.191
422338.776	NaN	-3.217	1.283	9.402	1505.495	1503.297	1510.623	-7.664	-0.168	8.229	-5.895	-0.536	8.344
422339.752	NaN	-3.217	1.283	9.402	1504.029	1504.762	1510.623	-7.802	-0.061	8.305	-5.895	-0.459	8.191
422340.729	NaN	-3.228	1.293	9.402	1504.029	1503.297	1509.158	-7.908	0.000	8.305	-5.971	-0.612	8.421
422341.705	NaN	-3.207	1.304	9.402	1503.297	1504.029	1510.623	-7.756	0.000	8.336	-5.971	-0.612	8.268
422342.682	NaN	-3.217	1.293	9.402	1505.495	1504.029	1510.623	-7.756	0.031	8.458	-5.971	-0.536	8.344
422343.658	NaN	-3.228	1.304	9.402	1505.495	1504.029	1509.890	-7.725	-0.092	8.565	-5.895	-0.459	8.268
422344.635	NaN	-3.239	1.304	9.402	1504.762	1503.297	1509.158	-7.695	-0.153	8.443	-5.818	-0.689	8.344
