Timestamp	PC Timestamp	Low Noise Accelerometer X	Low Noise Accelerometer Y	Low Noise Accelerometer Z	Int A12	Int A13	Int A14	Gyroscope X	Gyroscope Y	Gyroscope Z	Wide Range Accelerometer X	Wide Range Accelerometer Y	Wide Range Accelerometer Z
216410.065	NaN	-3.446	1.783	9.207	1506.960	1504.029	1509.890	-0.183	0.473	-1.832	-6.124	0.000	8.191
216411.041	NaN	-3.424	1.783	9.207	1506.227	1504.029	1510.623	-0.122	0.595	-1.786	-6.124	0.000	8.038
216412.018	NaN	-3.424	1.783	9.207	1505.495	1504.029	1509.890	-0.214	0.611	-1.618	-6.278	0.000	7.962
216412.994	NaN	-3.424	1.783	9.196	1506.960	1503.297	1509.890	-0.168	0.672	-1.481	-6.124	-0.077	8.038
216413.971	NaN	-3.435	1.783	9.196	1505.495	1503.297	1510.623	-0.214	0.641	-1.664	-6.048	0.000	7.962
216414.948	NaN	-3.446	1.793	9.196	1505.495	1504.762	1509.158	-0.260	0.565	-1.817	-6.124	0.000	8.115
216415.924	NaN	-3.435	1.793	9.196	1504.762	1504.762	1510.623	-0.183	0.305	-1.924	-6.278	0.000	8.191
216416.901	NaN	-3.435	1.793	9.207	1505.495	1504.762	1509.890	-0.153	0.305	-1.802	-6.124	0.077	8.115
216417.877	NaN	-3.446	1.793	9.196	1505.495	1503.297	1510.623	-0.076	0.565	-1.725	-6.124	-0.077	8.038
216418.854	NaN	-3.446	1.793	9.196	1504.762	1503.297	1509.890	-0.031	0.519	-1.802	-6.124	0.077	8.038
216419.830	NaN	-3.435	1.793	9.196	1506.227	1504.762	1510.623	-0.153	0.427	-1.847	-6.048	-0.077	8.038
216420.807	NaN	-3.435	1.793	9.196	1506.227	1504.029	1508.425	0.015	0.427	-1.817	-6.048	0.000	8.038
216421.783	NaN	-3.424	1.793	9.207	1505.495	1504.762	1510.623	-0.015	0.366	-1.740	-6.124	0.077	8.191
216422.760	NaN	-3.413	1.783	9.196	1506.227	1504.029	1509.890	-0.290	0.275	-1.511	-6.124	0.000	8.115
216423.737	NaN	-3.424	1.783	9.196	1506.227	1504.029	1510.623	-0.366	0.443	-1.282	-6.124	0.000	8.115
216424.713	NaN	-3.424	1.793	9.207	1506.227	1504.029	1510.623	-0.321	0.595	-1.542	-6.278	-0.077	8.115
216425.690	NaN	-3.424	1.793	9.196	1505.495	1504.762	1509.158	-0.137	0.641	-1.679	-7.196	0.000	8.268
216426.666	NaN	-3.435	1.793	9.196	1506.960	1504.029	1511.355	-0.092	0.550	-1.710	-6.124	0.000	8.038
216427.643	NaN	-3.435	1.793	9.185	1504.762	1503.297	1512.088	-0.153	0.412	-1.710	-6.124	0.077	8.038
216428.619	NaN	-3.424	1.793	9.185	1506.227	1504.762	1509.890	-0.122	0.489	-1.786	-6.124	0.000	8.268
216429.596	NaN	-3.435	1.804	9.185	1505.495	1504.029	1509.158	-0.275	0.534	-1.679	-6.201	0.000	8.268
216430.573	NaN	-3.424	1.815	9.196	1505.495	1503.297	1510.623	-0.412	0.260	-1.710	-6.048	-0.153	8.038
216431.549	NaN	-3.435	1.815	9.185	1507.692	1504.029	1509.890	-0.321	0.244	-1.664	-6.201	0.077	8.038
216432.526	NaN	-3.435	1.804	9.185	1505.495	1504.762	1510.623	-0.183	0.336	-1.618	-6.201	-0.077	8.115
216433.502	NaN	-3.446	1.793	9.196	1504.762	1504.029	1507.692	-0.305	0.504	-1.679	-6.048	-0.153	8.115
216434.479	NaN	-3.435	1.804	9.207	1506.960	1504.029	1510.623	-0.321	0.489	-1.649	-6.124	0.000	8.115
216435.455	NaN	-3.435	1.793	9.207	1505.495	1504.029	1510.623	-0.107	0.504	-1.664	-6.048	0.000	8.115
216436.432	NaN	-3.446	1.793	9.207	1504.762	1503.297	1509.890	-0.015	0.504	-1.771	-6.278	-0.077	8.038
216437.408	NaN	-3.435	1.793	9.207	1506.960	1504.762	1509.890	0.183	0.565	-1.832	-6.278	-0.077	8.038
216438.385	NaN	-3.435	1.793	9.207	1504.029	1504.029	1509.890	0.031	0.504	-1.832	-6.048	-0.077	8.191
216439.362	NaN	-3.424	1.804	9.207	1505.495	1503.297	1510.623	-0.260	0.397	-1.664	-6.124	-0.153	8.038
216440.338	NaN	-3.424	1.804	9.207	1504.762	1504.029	1509.890	-0.229	0.427	-1.771	-6.201	-0.077	8.191
216441.315	NaN	-3.424	1.793	9.196	1506.227	1503.297	1510.623	0.122	0.489	-1.710	-6.201	-0.077	8.191
216442.291	NaN	-3.424	1.793	9.217	1505.495	1503.297	1508.425	-0.122	0.382	-1.634	-6.124	0.000	8.115
216443.268	NaN	-3.413	1.793	9.228	1505.495	1504.029	1511.355	-0.366	0.260	-1.573	-6.124	0.000	8.115
216444.244	NaN	-3.413	1.804	9.228	1505.495	1504.029	1511.355	-0.290	0.382	-1.649	-6.124	0.000	8.191
216445.221	NaN	-3.424	1.793	9.228	1506.227	1504.029	1509.890	-0.046	0.412	-1.618	-6.201	-0.077	8.191
216446.198	NaN	-3.424	1.793	9.228	1506.227	1504.029	1509.890	-0.122	0.336	-1.542	-6.201	0.000	8.115
216447.174	NaN	-3.424	1.793	9.239	1506.960	1504.762	1512.088	-0.260	0.534	-1.618	-6.124	0.000	7.962
216448.151	NaN	-3.424	1.793	9.228	1506.227	1504.029	1509.890	-0.244	0.489	-1.588	-6.201	0.000	8.115
216449.127	NaN	-3.424	1.783	9.228	1505.495	1504.762	1510.623	-0.183	0.305	-1.588	-6.124	0.077	8.038
216450.104	NaN	-3.457	1.783	9.217	1505.495	1504.029	1509.890	-0.076	0.412	-1.664	-6.048	0.000	8.191
216451.080	NaN	-3.467	1.783	9.228	1505.495	1505.495	1511.355	0.000	0.702	-1.527	-6.124	0.000	8.268
216452.057	NaN	-3.467	1.793	9.217	1506.227	1504.762	1509.158	0.214	0.519	-1.359	-6.124	0.000	8.115
216454.010	NaN	-3.467	1.804	9.217	1505.495	1504.762	1509.158	-0.107	0.336	-1.679	-6.278	0.000	8.115
216454.987	NaN	-3.478	1.815	9.207	1506.960	1504.029	1508.425	0.061	0.321	-1.511	-6.048	0.000	8.191
216455.963	NaN	-3.478	1.815	9.217	1506.227	1504.029	1510.623	0.275	0.351	-1.588	-6.278	0.000	8.115
216456.940	NaN	-3.467	1.815	9.217	1506.227	1504.029	1509.890	0.168	0.336	-1.542	-6.201	0.000	8.191
216457.916	NaN	-3.467	1.804	9.228	1505.495	1504.762	1510.623	0.031	0.382	-1.557	-7.349	0.000	8.191
216458.893	NaN	-3.478	1.804	9.239	1506.227	1504.029	1509.890	0.076	0.489	-1.603	-6.124	0.000	8.191
216459.869	NaN	-3.467	1.815	9.239	1506.227	1504.762	1509.890	-0.092	0.534	-1.649	-6.201	-0.153	8.115
216460.846	NaN	-3.467	1.815	9.250	1505.495	1504.029	1509.890	-0.153	0.534	-1.634	-6.201	-0.077	8.038
216461.823	NaN	-3.478	1.826	9.261	1506.960	1504.762	1510.623	-0.046	0.580	-1.511	-6.201	0.077	8.344
216462.799	NaN	-3.478	1.815	9.261	1506.227	1504.029	1509.890	0.107	0.458	-1.389	-6.278	0.077	8.191
216463.776	NaN	-3.489	1.804	9.272	1506.227	1504.029	1510.623	-0.061	0.351	-1.496	-6.278	0.000	8.268
216464.752	NaN	-3.489	1.804	9.272	1506.960	1504.762	1510.623	-0.153	0.275	-1.710	-6.124	-0.077	8.344
216465.729	NaN	-3.489	1.804	9.283	1505.495	1503.297	1509.890	-0.107	0.397	-1.649	-6.201	0.077	8.115
216466.705	NaN	-3.489	1.804	9.293	1505.495	1504.029	1509.890	-0.183	0.550	-1.481	-6.354	0.000	8.191
216467.682	NaN	-3.489	1.804	9.283	1505.495	1504.762	1509.158	-0.015	0.550	-1.420	-6.124	-0.153	8.344
216468.658	NaN	-3.478	1.804	9.283	1504.762	1502.564	1508.425	0.183	0.473	-1.481	-6.201	-0.077	8.115
216469.635	NaN	-3.489	1.804	9.293	1504.029	1504.029	1509.158	0.092	0.321	-1.664	-6.278	-0.077	8.191
216470.612	NaN	-3.500	1.804	9.293	1506.227	1504.029	1509.890	-0.076	0.366	-1.725	-6.278	-0.077	8.268
216471.588	NaN	-3.500	1.804	9.293	1504.762	1503.297	1509.890	-0.229	0.473	-1.511	-6.278	1.225	8.191
216472.565	NaN	-3.500	1.793	9.283	1506.227	1503.297	1509.890	-0.244	0.641	-1.542	-6.278	0.000	8.191
216473.541	NaN	-3.511	1.783	9.293	1505.495	1501.832	1509.158	-0.137	0.519	-1.542	-6.278	0.000	8.268
216474.518	NaN	-3.500	1.804	9.304	1505.495	1504.762	1511.355	-0.061	0.565	-1.374	-6.201	0.077	8.115
216475.494	NaN	-3.500	1.793	9.293	1505.495	1504.029	1510.623	-0.260	0.656	-1.344	-6.278	0.077	8.191
216476.471	NaN	-3.500	1.793	9.283	1506.227	1503.297	1509.890	-0.153	0.748	-1.496	-6.201	-0.077	8.191
216477.448	NaN	-3.500	1.804	9.283	1506.227	1504.762	1509.890	-0.015	0.611	-1.588	-6.201	-0.077	8.191
216478.424	NaN	-3.500	1.793	9.283	1504.762	1503.297	1509.890	-0.137	0.458	-1.573	-5.971	-0.077	8.191
216479.401	NaN	-3.489	1.793	9.283	1504.762	1504.762	1508.425	-0.321	0.321	-1.603	-6.201	-0.153	8.191
216480.377	NaN	-3.511	1.793	9.272	1506.227	1504.029	1510.623	-0.214	0.473	-1.557	-6.048	-0.153	8.268
216481.354	NaN	-3.511	1.793	9.283	1506.227	1503.297	1508.425	-0.168	0.550	-1.481	-6.278	-0.153	8.268
216482.330	NaN	-3.500	1.793	9.283	1506.960	1504.762	1509.158	-0.290	0.397	-1.481	-6.201	-0.077	8.268
216483.307	NaN	-3.511	1.783	9.283	1504.762	1504.029	1509.890	-0.168	0.275	-1.603	-6.354	-0.153	8.344
216484.283	NaN	-3.489	1.793	9.293	1506.227	1503.297	1509.158	-0.153	0.305	-1.786	-6.278	0.000	8.191
216485.260	NaN	-3.489	1.783	9.293	1505.495	1504.029	1510.623	-0.275	0.443	-1.618	-6.201	-0.077	8.268
216486.237	NaN	-3.511	1.783	9.304	1506.227	1504.029	1510.623	-0.107	0.626	-1.634	-6.124	-0.077	8.191
216487.213	NaN	-3.511	1.772	9.304	1504.029	1504.029	1509.890	0.015	0.565	-1.496	-6.278	-0.077	8.268
216488.190	NaN	-3.489	1.783	9.304	1506.227	1504.029	1509.890	-0.214	0.443	-1.511	-6.048	0.000	8.268
216489.166	NaN	-3.489	1.783	9.293	1505.495	1504.029	1512.088	-0.351	0.412	-1.527	-6.124	-0.077	8.268
216490.143	NaN	-3.500	1.783	9.283	1505.495	1503.297	1509.158	-0.336	0.427	-1.557	-6.124	-0.077	8.344
216491.119	NaN	-3.500	1.793	9.283	1505.495	1504.029	1511.355	-0.244	0.626	-1.450	-6.201	-0.077	8.191
216492.096	NaN	-3.500	1.804	9.283	1507.692	1504.762	1509.890	-0.214	0.550	-1.389	-6.124	0.077	8.115
216493.073	NaN	-3.489	1.793	9.283	1505.495	1504.762	1511.355	-0.137	0.473	-1.542	-6.278	0.000	8.268
216494.049	NaN	-3.489	1.804	9.283	1506.227	1503.297	1509.890	-0.046	0.550	-1.511	-6.124	-0.077	8.115
216495.026	NaN	-3.500	1.793	9.283	1506.227	1504.029	1509.158	-0.122	0.580	-1.573	-6.124	0.000	8.115
216496.002	NaN	-3.489	1.793	9.272	1506.227	1504.029	1511.355	-0.122	0.626	-1.618	-6.201	-0.077	8.268
216496.979	NaN	-3.478	1.793	9.261	1505.495	1504.762	1510.623	-0.153	0.656	-1.573	-6.201	0.000	8.191
216497.955	NaN	-3.478	1.793	9.261	1505.495	1504.762	1510.623	0.092	0.611	-1.573	-6.124	0.000	8.268
216498.932	NaN	-3.478	1.783	9.250	1505.495	1503.297	1510.623	0.061	0.519	-1.481	-6.201	0.000	8.268
216499.908	NaN	-3.478	1.793	9.239	1505.495	1504.762	1509.890	-0.015	0.656	-1.649	-6.201	-0.077	8.191
216500.885	NaN	-3.478	1.793	9.228	1505.495	1504.762	1511.355	-0.122	0.763	-1.725	-6.124	-0.153	8.115
216501.862	NaN	-3.478	1.793	9.228	1504.762	1504.029	1510.623	0.000	0.885	-1.725	-6.201	-0.153	8.191
216502.838	NaN	-3.478	1.793	9.217	1506.960	1504.762	1509.158	0.046	0.794	-1.496	-6.124	-0.153	8.191
216503.815	NaN	-3.467	1.783	9.217	1506.960	1504.029	1510.623	-0.153	0.809	-1.405	-6.124	-1.148	8.038
216504.791	NaN	-3.446	1.793	9.228	1506.960	1504.762	1511.355	-0.351	0.733	-1.466	-6.124	0.000	8.115
216505.768	NaN	-3.457	1.793	9.239	1505.495	1504.029	1511.355	-0.168	0.519	-1.695	-6.278	0.000	8.191
216506.744	NaN	-3.457	1.793	9.239	1506.227	1504.762	1511.355	0.046	0.504	-1.588	-6.048	-0.077	8.038
216507.721	NaN	-3.457	1.793	9.228	1505.495	1504.029	1509.158	0.107	0.626	-1.359	-6.201	0.077	7.962
216508.698	NaN	-3.446	1.793	9.217	1505.495	1505.495	1509.158	0.153	0.611	-1.328	-6.124	0.000	8.115
216509.674	NaN	-3.435	1.793	9.217	1505.495	1504.762	1509.890	0.137	0.779	-1.420	-6.124	-0.077	8.191
216510.651	NaN	-3.424	1.793	9.217	1504.762	1504.029	1509.890	-0.107	0.916	-1.435	-6.201	0.077	8.191
216511.627	NaN	-3.413	1.783	9.207	1505.495	1504.029	1511.355	-0.137	0.855	-1.481	-6.124	-0.153	8.115
216512.604	NaN	-3.424	1.772	9.196	1504.762	1504.762	1510.623	0.244	0.641	-1.496	-6.124	0.000	8.115
216513.580	NaN	-3.413	1.772	9.185	1506.227	1504.762	1510.623	0.244	0.626	-1.542	-6.201	0.000	8.191
216514.557	NaN	-3.402	1.772	9.185	1504.762	1503.297	1510.623	-0.046	0.595	-1.634	-6.201	-0.077	8.191
216515.533	NaN	-3.413	1.783	9.185	1506.227	1504.029	1509.890	-0.092	0.550	-1.496	-6.124	0.000	8.115
216516.510	NaN	-3.413	1.783	9.185	1504.029	1502.564	1509.158	0.122	0.565	-1.588	-6.124	0.000	8.038
216517.487	NaN	-3.413	1.793	9.185	1505.495	1504.029	1510.623	0.183	0.718	-1.695	-6.124	0.000	8.038
216518.463	NaN	-3.413	1.783	9.196	1506.227	1503.297	1510.623	0.137	0.824	-1.649	-6.201	-0.153	7.962
216519.440	NaN	-3.391	1.793	9.196	1505.495	1503.297	1510.623	0.168	0.595	-1.649	-6.048	0.000	8.191
216520.416	NaN	-3.391	1.793	9.185	1504.029	1504.029	1510.623	0.137	0.397	-1.679	-6.201	0.000	8.115
216521.393	NaN	-3.402	1.793	9.163	1503.297	1502.564	1509.890	-0.046	0.565	-1.481	-6.048	-0.077	8.038
216522.369	NaN	-3.391	1.804	9.163	1504.762	1504.762	1510.623	-0.092	0.504	-1.389	-6.278	-0.077	8.115
216523.346	NaN	-3.413	1.793	9.163	1504.029	1504.762	1509.158	0.198	0.473	-1.466	-6.201	0.077	7.962
216524.323	NaN	-3.402	1.793	9.185	1504.762	1503.297	1508.425	0.214	0.611	-1.649	-6.124	0.000	8.115
216525.299	NaN	-3.413	1.793	9.174	1504.762	1504.029	1509.890	0.168	0.702	-1.634	-6.124	0.000	7.962
216526.276	NaN	-3.413	1.783	9.174	1504.029	1503.297	1509.890	0.015	0.656	-1.710	-6.048	-0.077	8.038
216527.252	NaN	-3.402	1.793	9.174	1504.762	1504.762	1512.088	-0.046	0.595	-1.679	-6.201	0.077	8.038
216528.229	NaN	-3.413	1.783	9.163	1505.495	1503.297	1509.890	0.031	0.473	-1.481	-5.971	0.000	7.962
216529.205	NaN	-3.413	1.804	9.174	1505.495	1504.029	1509.890	0.153	0.595	-1.496	-4.976	0.077	8.268
216530.182	NaN	-3.424	1.793	9.174	1505.495	1504.029	1509.158	0.092	0.641	-1.496	-6.124	-0.077	8.115
216531.158	NaN	-3.413	1.793	9.163	1505.495	1504.762	1509.158	0.046	0.626	-1.481	-6.201	0.000	8.038
216532.135	NaN	-3.413	1.793	9.163	1504.762	1503.297	1509.158	0.031	0.534	-1.481	-6.048	0.000	8.115
216533.112	NaN	-3.413	1.804	9.163	1504.762	1504.029	1509.890	-0.092	0.565	-1.450	-6.278	-0.077	8.115
216534.088	NaN	-3.424	1.804	9.174	1505.495	1504.762	1509.890	-0.168	0.718	-1.405	-6.048	0.000	8.038
216535.065	NaN	-3.424	1.804	9.174	1505.495	1504.029	1510.623	-0.214	0.687	-1.511	-6.124	0.230	7.962
216536.041	NaN	-3.413	1.815	9.174	1505.495	1504.029	1511.355	0.031	0.779	-1.557	-6.124	-0.077	8.268
216537.018	NaN	-3.413	1.815	9.163	1505.495	1504.762	1509.890	0.153	0.794	-1.664	-6.124	-0.153	7.962
216537.994	NaN	-3.413	1.815	9.174	1504.762	1504.029	1509.158	0.046	0.779	-1.634	-6.278	0.077	8.115
216538.971	NaN	-3.402	1.804	9.185	1504.762	1504.029	1510.623	0.015	0.672	-1.664	-6.124	0.000	8.038
216539.948	NaN	-3.413	1.815	9.185	1505.495	1504.762	1509.890	-0.153	0.580	-1.679	-6.048	0.153	8.038
216540.924	NaN	-3.413	1.815	9.185	1504.762	1504.762	1510.623	-0.137	0.382	-1.679	-6.048	-0.077	8.038
216541.901	NaN	-3.424	1.815	9.196	1506.960	1504.762	1510.623	-0.137	0.382	-1.496	-6.278	0.153	8.115
216542.877	NaN	-3.435	1.804	9.185	1504.762	1503.297	1509.158	-0.122	0.534	-1.511	-6.201	0.000	8.115
216543.854	NaN	-3.446	1.793	9.196	1504.029	1503.297	1509.890	0.000	0.733	-1.603	-6.124	-0.077	8.115
216544.830	NaN	-3.446	1.804	9.207	1505.495	1505.495	1510.623	-0.260	0.733	-1.420	-6.124	-0.077	8.191
216545.807	NaN	-3.446	1.804	9.207	1506.227	1503.297	1511.355	-0.214	0.611	-1.420	-6.278	0.000	8.115
216546.783	NaN	-3.446	1.793	9.207	1506.960	1504.029	1511.355	-0.198	0.534	-1.389	-6.048	0.000	8.115
216547.760	NaN	-3.457	1.793	9.207	1504.762	1504.762	1509.158	-0.183	0.626	-1.450	-6.048	0.000	8.115
216548.737	NaN	-3.467	1.793	9.207	1506.227	1504.762	1510.623	0.031	0.565	-1.695	-6.201	0.077	8.115
216549.713	NaN	-3.446	1.793	9.217	1505.495	1504.762	1512.088	0.046	0.656	-1.725	-6.124	0.000	8.115
216550.690	NaN	-3.446	1.793	9.217	1506.227	1504.029	1509.158	0.031	0.855	-1.573	-6.278	-0.153	8.038
216551.666	NaN	-3.446	1.793	9.217	1504.762	1504.762	1511.355	-0.122	0.870	-1.359	-6.124	-0.077	8.268
216552.643	NaN	-3.457	1.783	9.207	1505.495	1504.029	1509.890	-0.244	0.580	-1.374	-6.201	0.000	8.268
216553.619	NaN	-3.457	1.793	9.207	1506.960	1504.762	1510.623	-0.473	0.504	-1.527	-6.124	0.000	8.115
216554.596	NaN	-3.467	1.793	9.217	1506.227	1504.029	1510.623	-0.366	0.611	-1.466	-6.124	-0.077	8.115
216555.573	NaN	-3.467	1.783	9.228	1504.762	1503.297	1510.623	-0.214	0.702	-1.405	-6.124	-0.077	8.115
216556.549	NaN	-3.467	1.793	9.228	1506.227	1504.029	1509.158	-0.198	0.733	-1.359	-6.201	0.000	8.191
216557.526	NaN	-3.478	1.783	9.228	1506.227	1504.029	1509.890	-0.122	0.748	-1.450	-6.124	-0.153	8.038
216558.502	NaN	-3.467	1.793	9.239	1504.762	1504.029	1509.158	-0.076	0.611	-1.450	-6.201	0.000	8.115
216559.479	NaN	-3.457	1.804	9.261	1504.029	1503.297	1510.623	-0.122	0.534	-1.588	-6.201	0.000	8.191
216560.455	NaN	-3.467	1.793	9.261	1506.227	1504.762	1510.623	-0.321	0.641	-1.695	-6.201	-0.077	8.115
216561.432	NaN	-3.467	1.793	9.261	1505.495	1504.029	1509.158	-0.397	0.702	-1.634	-6.201	-0.077	8.268
216562.408	NaN	-3.489	1.793	9.261	1505.495	1503.297	1508.425	-0.305	0.626	-1.496	-6.354	0.077	8.191
216563.385	NaN	-3.467	1.815	9.272	1506.227	1503.297	1509.158	-0.061	0.565	-1.466	-6.201	0.077	8.191
216564.362	NaN	-3.457	1.815	9.272	1506.227	1504.762	1510.623	0.031	0.687	-1.450	-6.278	-0.077	8.268
216565.338	NaN	-3.467	1.815	9.283	1506.960	1504.029	1509.890	-0.137	0.641	-1.435	-6.124	0.000	8.344
216566.315	NaN	-3.467	1.804	9.304	1504.762	1502.564	1508.425	-0.076	0.656	-1.481	-6.124	-0.077	8.191
216567.291	NaN	-3.467	1.804	9.304	1505.495	1504.029	1510.623	-0.214	0.656	-1.740	-6.201	0.153	8.268
216568.268	NaN	-3.478	1.804	9.304	1504.762	1504.762	1511.355	-0.107	0.763	-1.771	-5.053	0.000	8.268
216569.244	NaN	-3.489	1.793	9.315	1504.762	1504.029	1509.890	-0.076	0.779	-1.649	-6.201	-0.077	8.191
216570.221	NaN	-3.500	1.793	9.315	1506.227	1503.297	1510.623	-0.198	0.779	-1.511	-6.201	0.000	8.115
216571.198	NaN	-3.511	1.793	9.304	1506.227	1504.029	1510.623	-0.336	0.885	-1.359	-6.201	0.000	8.268
216572.174	NaN	-3.511	1.793	9.304	1504.762	1504.029	1510.623	-0.153	0.824	-1.634	-6.278	-0.077	8.268
216573.151	NaN	-3.511	1.793	9.304	1504.762	1504.762	1509.890	-0.153	0.748	-1.634	-6.201	0.000	8.191
216574.127	NaN	-3.522	1.793	9.304	1504.762	1504.029	1509.158	-0.321	0.748	-1.420	-6.201	0.000	8.344
216575.104	NaN	-3.533	1.793	9.293	1506.960	1504.029	1510.623	-0.351	0.611	-1.298	-6.278	0.000	8.421
216576.080	NaN	-3.522	1.804	9.283	1506.960	1504.762	1511.355	-0.229	0.611	-1.206	-6.201	0.153	8.191
216577.057	NaN	-3.511	1.804	9.283	1506.227	1504.762	1510.623	-0.153	0.733	-1.344	-6.278	0.000	8.344
216578.033	NaN	-3.511	1.804	9.293	1506.227	1504.762	1511.355	-0.137	0.733	-1.481	-6.278	0.000	8.191
216579.010	NaN	-3.511	1.815	9.315	1506.227	1503.297	1510.623	-0.153	0.809	-1.466	-6.354	0.000	8.268
216579.987	NaN	-3.522	1.815	9.304	1506.227	1504.762	1509.890	-0.321	0.870	-1.496	-6.048	0.000	8.115
216580.963	NaN	-3.522	1.804	9.304	1505.495	1504.762	1511.355	-0.198	0.840	-1.496	-6.201	-0.077	8.344
216581.940	NaN	-3.511	1.804	9.304	1506.227	1504.762	1508.425	-0.183	0.718	-1.359	-6.048	-0.153	8.344
216582.916	NaN	-3.522	1.793	9.315	1506.227	1504.029	1510.623	-0.153	0.611	-1.573	-6.354	-0.077	8.498
216583.893	NaN	-3.533	1.793	9.315	1505.495	1504.029	1509.158	-0.183	0.748	-1.649	-6.201	0.000	8.191
216584.869	NaN	-3.522	1.804	9.315	1506.227	1504.762	1511.355	-0.107	0.718	-1.481	-6.201	-0.077	8.344
216585.846	NaN	-3.511	1.815	9.326	1506.960	1504.762	1509.890	-0.046	0.748	-1.267	-6.278	0.000	8.268
216586.823	NaN	-3.511	1.815	9.326	1506.227	1504.762	1510.623	-0.076	0.763	-1.298	-6.201	-0.077	8.038
216587.799	NaN	-3.511	1.804	9.326	1506.960	1503.297	1510.623	-0.031	0.595	-1.450	-6.354	-0.077	8.191
216588.776	NaN	-3.511	1.793	9.326	1506.227	1504.029	1510.623	-0.137	0.489	-1.618	-6.201	0.000	8.344
216589.752	NaN	-3.511	1.804	9.337	1506.227	1504.762	1509.890	-0.305	0.748	-1.939	-6.278	-0.077	8.268
216590.729	NaN	-3.522	1.804	9.326	1505.495	1504.029	1509.158	-0.275	1.053	-1.649	-6.201	-0.077	8.421
216591.705	NaN	-3.522	1.804	9.326	1504.029	1503.297	1509.890	-0.275	1.176	-1.359	-6.201	0.000	8.268
216592.682	NaN	-3.522	1.804	9.326	1504.029	1504.762	1507.692	-0.046	0.947	-1.389	-6.278	0.000	8.115
216593.658	NaN	-3.511	1.804	9.315	1506.227	1504.762	1511.355	0.092	0.794	-1.466	-6.124	-0.153	8.191
216594.635	NaN	-3.500	1.793	9.304	1506.227	1504.762	1509.890	-0.168	0.885	-1.435	-6.201	0.077	8.038
216595.612	NaN	-3.500	1.804	9.304	1505.495	1504.762	1509.890	-0.336	0.962	-1.466	-6.201	-0.153	8.268
216596.588	NaN	-3.500	1.793	9.293	1505.495	1504.029	1510.623	-0.153	0.885	-1.557	-6.201	-0.077	8.268
216597.565	NaN	-3.500	1.793	9.283	1506.227	1504.762	1509.890	-0.137	0.947	-1.603	-6.278	-0.077	8.268
216598.541	NaN	-3.489	1.793	9.283	1506.227	1504.762	1510.623	-0.183	1.069	-1.466	-6.124	-0.077	8.268
216599.518	NaN	-3.478	1.793	9.261	1506.227	1504.762	1510.623	-0.198	0.931	-1.374	-6.124	-0.230	8.191
216600.494	NaN	-3.478	1.783	9.250	1505.495	1504.029	1509.158	-0.229	0.809	-1.481	-6.201	-0.077	8.191
216601.471	NaN	-3.478	1.783	9.250	1504.762	1504.029	1509.890	-0.397	0.809	-1.481	-6.278	0.000	8.191
216602.448	NaN	-3.467	1.772	9.228	1506.960	1504.029	1509.158	-0.275	1.053	-1.527	-6.124	-0.077	8.115
216603.424	NaN	-3.457	1.783	9.239	1506.227	1504.029	1512.088	0.000	0.977	-1.435	-6.124	0.000	8.191
216604.401	NaN	-3.446	1.783	9.239	1505.495	1504.029	1510.623	-0.015	0.962	-1.313	-6.201	-0.077	8.191
216605.377	NaN	-3.435	1.783	9.228	1506.227	1504.029	1509.890	-0.046	1.038	-1.237	-6.124	0.000	8.115
216606.354	NaN	-3.435	1.783	9.217	1505.495	1504.029	1509.890	0.031	1.176	-1.206	-6.124	0.000	8.038
216607.330	NaN	-3.424	1.772	9.207	1506.960	1505.495	1509.890	0.061	1.069	-1.313	-6.124	-0.077	8.191
216608.307	NaN	-3.424	1.772	9.196	1506.227	1504.029	1510.623	0.153	0.885	-1.298	-6.201	0.000	7.962
216609.283	NaN	-3.413	1.783	9.207	1506.227	1504.029	1509.890	0.092	0.748	-1.298	-6.124	0.000	8.038
216610.260	NaN	-3.413	1.783	9.196	1504.762	1504.029	1509.890	-0.153	0.840	-1.313	-6.201	-0.077	8.038
216611.237	NaN	-3.424	1.793	9.185	1504.029	1503.297	1508.425	-0.290	1.053	-1.282	-6.048	-0.077	8.038
216612.213	NaN	-3.413	1.804	9.185	1504.029	1504.029	1509.890	-0.061	0.977	-1.405	-6.048	0.000	7.962
216613.190	NaN	-3.424	1.804	9.163	1504.762	1504.029	1509.158	0.015	0.962	-1.511	-6.124	0.077	7.962
216614.166	NaN	-3.413	1.804	9.152	1504.762	1503.297	1509.158	-0.076	0.809	-1.359	-6.124	0.000	8.191
216615.143	NaN	-3.413	1.804	9.152	1505.495	1503.297	1511.355	-0.260	0.809	-1.176	-6.124	0.000	8.038
216616.119	NaN	-3.413	1.793	9.152	1505.495	1502.564	1509.890	-0.107	0.763	-1.450	-6.124	0.000	8.115
216617.096	NaN	-3.413	1.804	9.141	1505.495	1504.029	1510.623	-0.153	0.824	-1.527	-6.048	0.000	8.115
216618.073	NaN	-3.413	1.793	9.130	1504.029	1504.029	1510.623	-0.244	0.901	-1.588	-6.201	-0.077	8.038
216619.049	NaN	-3.402	1.793	9.130	1503.297	1503.297	1508.425	-0.290	0.855	-1.496	-6.201	-0.077	7.962
216620.026	NaN	-3.402	1.793	9.130	1504.762	1504.029	1510.623	-0.137	0.748	-1.389	-5.971	0.000	8.038
216621.002	NaN	-3.413	1.804	9.130	1504.029	1503.297	1509.890	-0.076	0.702	-1.481	-6.124	-0.077	8.038
216621.979	NaN	-3.391	1.815	9.141	1504.029	1504.762	1509.890	-0.076	0.748	-1.435	-6.124	0.000	7.962
216622.955	NaN	-3.402	1.815	9.130	1504.762	1504.029	1509.158	-0.092	0.840	-1.298	-6.124	-0.153	8.038
216623.932	NaN	-3.402	1.804	9.130	1504.029	1503.297	1509.158	-0.275	0.901	-1.267	-6.201	0.000	7.962
216624.908	NaN	-3.391	1.815	9.141	1506.227	1504.029	1510.623	-0.321	1.008	-1.191	-6.048	0.000	8.115
216625.885	NaN	-3.402	1.804	9.141	1505.495	1503.297	1509.890	-0.092	0.794	-1.511	-6.278	0.000	7.809
216626.862	NaN	-3.402	1.815	9.141	1504.762	1503.297	1510.623	-0.046	0.656	-1.542	-6.201	-0.077	8.038
216627.838	NaN	-3.391	1.815	9.152	1504.762	1504.029	1509.890	0.076	0.779	-1.374	-6.201	-0.077	7.962
216628.815	NaN	-3.391	1.815	9.152	1504.762	1502.564	1509.890	-0.198	0.733	-1.206	-6.201	-0.077	7.885
216629.791	NaN	-3.391	1.815	9.152	1505.495	1504.029	1510.623	-0.092	0.702	-1.267	-6.201	0.000	7.962
216630.768	NaN	-3.402	1.826	9.141	1505.495	1504.029	1510.623	-0.092	0.855	-1.420	-6.124	-0.077	8.268
216631.744	NaN	-3.402	1.815	9.141	1504.762	1504.029	1509.890	-0.183	0.763	-1.282	-6.048	0.000	8.038
216632.721	NaN	-3.413	1.815	9.141	1504.762	1503.297	1509.890	-0.244	0.672	-1.328	-6.124	-0.077	8.115
216633.698	NaN	-3.413	1.815	9.152	1505.495	1504.029	1511.355	-0.183	0.641	-1.328	-6.048	0.000	7.962
216634.674	NaN	-3.413	1.804	9.152	1504.762	1503.297	1508.425	-0.321	0.656	-1.282	-6.048	0.077	7.962
216635.651	NaN	-3.402	1.804	9.174	1504.762	1503.297	1510.623	-0.198	0.687	-1.298	-5.971	-0.077	8.038
216636.627	NaN	-3.402	1.804	9.163	1505.495	1503.297	1510.623	-0.275	0.718	-1.282	-6.048	-0.077	8.115
216637.604	NaN	-3.413	1.804	9.174	1504.029	1503.297	1509.158	-0.183	0.779	-1.221	-6.201	-0.077	8.115
216638.580	NaN	-3.413	1.815	9.163	1505.495	1504.029	1510.623	-0.153	0.779	-1.221	-6.201	0.077	8.115
216639.557	NaN	-3.435	1.804	9.163	1504.029	1504.029	1509.890	-0.198	0.672	-1.374	-6.201	0.077	8.038
216640.533	NaN	-3.424	1.815	9.185	1504.029	1503.297	1509.890	-0.321	0.641	-1.542	-6.124	0.000	8.191
216641.510	NaN	-3.435	1.815	9.185	1504.762	1503.297	1510.623	-0.168	0.687	-1.435	-6.201	0.000	7.962
216642.487	NaN	-3.446	1.815	9.185	1504.762	1502.564	1509.158	-0.092	0.687	-1.435	-6.048	0.077	8.038
216643.463	NaN	-3.424	1.815	9.196	1505.495	1504.762	1509.890	-0.183	0.595	-1.450	-6.124	0.000	8.115
216644.440	NaN	-3.435	1.826	9.196	1506.960	1504.762	1509.890	-0.137	0.550	-1.466	-6.201	0.000	8.115
216645.416	NaN	-3.435	1.815	9.217	1505.495	1504.029	1509.890	-0.168	0.611	-1.511	-6.201	-0.077	8.268
216646.393	NaN	-3.457	1.815	9.217	1506.960	1503.297	1509.890	0.031	0.672	-1.450	-6.201	0.077	8.191
216647.369	NaN	-3.446	1.815	9.217	1506.227	1504.762	1510.623	0.153	0.626	-1.191	-6.201	-0.153	8.268
216648.346	NaN	-3.457	1.815	9.217	1505.495	1503.297	1509.890	-0.153	0.595	-1.328	-6.124	0.000	8.038
216649.323	NaN	-3.446	1.826	9.228	1505.495	1504.029	1510.623	-0.229	0.626	-1.359	-6.124	-0.077	8.268
216650.299	NaN	-3.457	1.815	9.228	1504.762	1504.762	1510.623	-0.092	0.595	-1.344	-6.124	-0.077	8.191
216651.276	NaN	-3.467	1.804	9.228	1506.227	1503.297	1509.158	-0.061	0.733	-1.328	-6.431	0.000	8.115
216652.252	NaN	-3.467	1.804	9.228	1505.495	1503.297	1509.890	-0.321	0.611	-1.389	-6.124	-0.077	8.115
216653.229	NaN	-3.457	1.815	9.228	1506.227	1504.762	1510.623	-0.137	0.626	-1.450	-6.048	-0.077	8.115
216654.205	NaN	-3.467	1.804	9.228	1506.227	1504.029	1510.623	0.076	0.672	-1.420	-6.201	0.000	8.268
216655.182	NaN	-3.467	1.804	9.239	1506.227	1504.762	1509.158	0.061	0.611	-1.328	-6.124	0.077	8.268
216656.158	NaN	-3.467	1.804	9.239	1506.960	1504.762	1510.623	-0.137	0.595	-1.450	-6.201	0.000	8.268
216657.135	NaN	-3.467	1.793	9.239	1505.495	1504.029	1509.890	-0.260	0.763	-1.481	-6.201	-0.077	8.191
216658.112	NaN	-3.478	1.793	9.239	1505.495	1504.029	1509.890	-0.168	0.748	-1.420	-6.201	-0.077	8.191
216659.088	NaN	-3.489	1.793	9.250	1504.762	1504.029	1512.088	-0.229	0.687	-1.344	-6.201	0.000	8.191
216660.065	NaN	-3.511	1.793	9.250	1506.227	1504.029	1509.890	-0.473	0.550	-1.481	-6.278	0.000	8.115
216661.041	NaN	-3.500	1.804	9.261	1506.960	1504.762	1510.623	-0.198	0.641	-1.435	-6.278	-0.077	8.191
216662.018	NaN	-3.500	1.804	9.250	1506.227	1504.029	1509.890	0.168	0.702	-1.206	-6.201	0.000	8.191
216662.994	NaN	-3.511	1.804	9.261	1504.762	1504.029	1510.623	0.031	0.611	-1.084	-6.201	-0.077	8.115
216663.971	NaN	-3.511	1.804	9.261	1505.495	1504.029	1509.158	-0.244	0.550	-1.160	-6.124	-0.153	8.191
216664.948	NaN	-3.522	1.815	9.250	1504.029	1504.029	1509.890	-0.122	0.702	-1.267	-6.278	-0.077	8.268
216665.924	NaN	-3.522	1.804	9.261	1506.227	1504.762	1511.355	-0.092	0.794	-1.313	-6.201	0.000	8.038
216666.901	NaN	-3.522	1.804	9.261	1506.227	1504.029	1508.425	-0.321	0.580	-1.450	-6.201	0.000	8.268
216667.877	NaN	-3.511	1.793	9.272	1506.227	1503.297	1509.158	-0.489	0.504	-1.420	-6.278	0.000	8.344
216668.854	NaN	-3.511	1.793	9.272	1504.762	1503.297	1510.623	-0.244	0.748	-1.328	-6.278	0.000	8.268
216669.830	NaN	-3.511	1.804	9.283	1506.227	1505.495	1509.890	-0.290	0.748	-1.115	-6.201	0.000	8.115
216670.807	NaN	-3.511	1.793	9.293	1505.495	1504.762	1511.355	-0.260	0.718	-1.053	-6.278	0.000	8.268
216671.783	NaN	-3.522	1.793	9.293	1506.960	1503.297	1510.623	-0.229	0.656	-1.237	-7.349	0.000	8.268
216672.760	NaN	-3.522	1.804	9.283	1505.495	1504.762	1510.623	-0.092	0.519	-1.282	-6.201	-0.230	8.344
216673.737	NaN	-3.511	1.804	9.293	1506.227	1504.029	1509.890	-0.229	0.412	-1.389	-6.201	0.000	8.268
216674.713	NaN	-3.500	1.793	9.304	1506.227	1503.297	1510.623	-0.260	0.489	-1.649	-6.278	-0.077	8.268
216675.690	NaN	-3.511	1.804	9.304	1504.762	1502.564	1509.890	-0.305	0.443	-1.496	-6.278	0.000	8.268
216676.666	NaN	-3.511	1.793	9.304	1505.495	1504.029	1509.890	-0.015	0.412	-1.389	-6.278	0.000	8.344
216677.643	NaN	-3.511	1.793	9.304	1506.227	1504.762	1510.623	0.153	0.672	-1.374	-6.201	0.000	8.268
216678.619	NaN	-3.511	1.793	9.304	1506.227	1503.297	1511.355	-0.015	0.840	-1.405	-6.048	1.225	8.191
216679.596	NaN	-3.511	1.793	9.315	1506.227	1504.762	1511.355	-0.107	0.733	-1.496	-6.201	-0.077	8.268
216680.573	NaN	-3.511	1.783	9.315	1505.495	1504.029	1509.158	-0.244	0.595	-1.298	-6.354	-0.077	8.191
216681.549	NaN	-3.522	1.783	9.304	1505.495	1504.029	1509.890	-0.305	0.489	-1.069	-6.201	-0.077	8.268
216682.526	NaN	-3.533	1.783	9.304	1506.227	1504.029	1510.623	-0.260	0.565	-0.992	-6.201	0.000	8.115
216683.502	NaN	-3.522	1.793	9.304	1505.495	1505.495	1510.623	-0.168	0.534	-1.328	-6.201	0.000	8.344
216689.362	NaN	-3.511	1.804	9.293	1506.227	1503.297	1508.425	-0.305	0.458	-1.206	-6.201	0.077	8.344
216690.338	NaN	-3.522	1.804	9.293	1506.227	1503.297	1509.890	0.000	0.550	-1.099	-6.201	0.000	8.191
216691.315	NaN	-3.522	1.804	9.283	1504.762	1504.762	1509.890	0.015	0.565	-1.130	-6.278	0.000	8.191
216692.291	NaN	-3.511	1.826	9.293	1505.495	1504.762	1510.623	0.137	0.550	-1.282	-6.201	-0.077	8.344
216693.268	NaN	-3.511	1.826	9.304	1504.762	1503.297	1509.890	-0.107	0.611	-1.313	-6.201	0.077	8.268
216694.244	NaN	-3.511	1.815	9.304	1505.495	1503.297	1510.623	-0.183	0.809	-1.267	-6.354	0.000	8.191
216695.221	NaN	-3.500	1.815	9.293	1506.227	1504.762	1510.623	-0.076	0.824	-1.344	-6.201	-0.077	8.268
216696.198	NaN	-3.511	1.815	9.293	1505.495	1504.029	1510.623	-0.046	0.595	-1.374	-6.201	-0.077	8.191
216697.174	3736847126.521	-3.511	1.815	9.293	1505.495	1504.029	1511.355	-0.321	0.489	-1.450	-6.201	0.000	8.115
216698.151	NaN	-3.511	1.804	9.283	1505.495	1504.029	1510.623	-0.198	0.565	-1.527	-6.278	-0.077	8.268
216699.127	NaN	-3.511	1.793	9.293	1504.762	1502.564	1509.158	-0.107	0.641	-1.450	-6.201	-0.077	8.268
216700.104	NaN	-3.511	1.804	9.293	1504.762	1504.029	1509.890	-0.336	0.779	-1.313	-6.278	0.000	8.268
216701.080	NaN	-3.511	1.804	9.283	1505.495	1504.029	1509.890	-0.397	0.733	-1.221	-6.201	-0.153	8.191
216702.057	NaN	-3.489	1.793	9.272	1504.762	1504.029	1509.890	-0.275	0.763	-1.221	-6.124	0.153	8.268
216703.033	NaN	-3.489	1.793	9.261	1505.495	1504.029	1509.890	-0.183	0.687	-1.221	-6.124	0.000	8.191
216704.010	NaN	-3.489	1.793	9.250	1505.495	1503.297	1509.890	-0.214	0.763	-1.435	-6.278	0.000	8.115
216704.987	NaN	-3.489	1.783	9.239	1505.495	1504.029	1509.890	-0.046	0.763	-1.405	-6.201	0.000	8.191
216705.963	NaN	-3.467	1.793	9.228	1505.495	1503.297	1509.890	-0.107	0.672	-1.282	-6.124	0.153	8.115
216706.940	NaN	-3.467	1.804	9.217	1506.227	1504.029	1509.890	-0.046	0.626	-1.389	-6.124	0.000	8.191
216707.916	NaN	-3.457	1.793	9.239	1505.495	1504.762	1509.890	-0.168	0.595	-1.389	-6.278	0.077	8.115
216708.893	NaN	-3.467	1.804	9.228	1505.495	1503.297	1510.623	-0.168	0.443	-1.344	-6.278	-0.077	8.038
216709.869	NaN	-3.457	1.815	9.217	1505.495	1504.762	1510.623	-0.580	0.656	-1.328	-6.201	0.153	8.115
216710.846	NaN	-3.457	1.815	9.217	1506.227	1504.029	1509.890	-0.519	0.702	-1.267	-6.124	-0.077	8.115
216711.823	NaN	-3.457	1.815	9.228	1506.227	1504.762	1509.890	-0.504	0.748	-1.405	-6.201	-0.077	7.962
216712.799	NaN	-3.467	1.804	9.228	1504.762	1504.029	1509.890	-0.290	0.840	-1.374	-6.201	0.077	8.115
216713.776	NaN	-3.467	1.793	9.217	1506.227	1503.297	1510.623	-0.153	0.718	-1.542	-6.124	0.000	8.115
216714.752	NaN	-3.457	1.804	9.196	1506.227	1504.762	1510.623	-0.153	0.641	-1.450	-6.201	0.000	8.115
216715.729	NaN	-3.446	1.804	9.196	1504.762	1503.297	1511.355	-0.321	0.595	-1.298	-6.048	0.000	8.038
216716.705	NaN	-3.435	1.804	9.185	1505.495	1504.029	1510.623	-0.458	0.611	-1.313	-6.124	0.000	7.962
216717.682	NaN	-3.424	1.793	9.185	1504.762	1504.029	1509.890	-0.473	0.458	-1.557	-5.971	-1.148	8.191
216718.658	NaN	-3.424	1.804	9.163	1505.495	1504.029	1511.355	-0.412	0.473	-1.557	-6.124	0.000	7.962
216719.635	NaN	-3.413	1.793	9.163	1504.762	1504.762	1509.890	-0.336	0.595	-1.313	-6.124	-0.077	8.115
216720.612	NaN	-3.413	1.793	9.152	1504.762	1504.029	1509.890	-0.290	0.672	-1.282	-6.124	0.077	8.038
216721.588	NaN	-3.413	1.783	9.141	1504.029	1503.297	1509.158	-0.382	0.718	-1.344	-6.124	-0.077	8.038
216722.565	NaN	-3.402	1.793	9.152	1505.495	1504.762	1509.890	-0.534	0.718	-1.298	-6.278	0.077	7.885
216723.541	NaN	-3.391	1.793	9.152	1505.495	1505.495	1510.623	-0.473	0.641	-1.282	-6.201	0.077	7.885
216724.518	NaN	-3.391	1.783	9.163	1504.762	1503.297	1509.890	-0.412	0.595	-1.405	-6.124	0.000	8.038
216725.494	NaN	-3.391	1.793	9.163	1504.762	1504.029	1512.088	-0.397	0.611	-1.389	-6.201	-0.077	8.038
216726.471	NaN	-3.402	1.783	9.141	1504.029	1503.297	1510.623	-0.305	0.473	-1.405	-6.048	0.000	7.962
216727.448	NaN	-3.413	1.793	9.130	1505.495	1504.762	1510.623	0.000	0.504	-1.450	-6.201	0.000	8.115
216728.424	NaN	-3.413	1.804	9.120	1505.495	1504.029	1509.890	0.107	0.534	-1.481	-6.048	0.077	7.885
216729.401	NaN	-3.402	1.793	9.109	1506.227	1504.762	1510.623	-0.305	0.565	-1.435	-5.971	0.000	8.115
216730.377	NaN	-3.413	1.793	9.120	1505.495	1503.297	1509.158	-0.473	0.519	-1.344	-6.048	0.077	7.885
216731.354	NaN	-3.424	1.793	9.109	1503.297	1503.297	1509.890	-0.183	0.611	-1.206	-6.278	0.077	7.962
216732.330	NaN	-3.424	1.793	9.120	1503.297	1503.297	1509.890	-0.260	0.504	-1.221	-6.201	0.000	8.038
216733.307	NaN	-3.413	1.804	9.120	1504.762	1504.029	1509.158	-0.382	0.412	-1.298	-6.124	0.000	8.038
216734.283	NaN	-3.413	1.793	9.120	1504.029	1504.029	1509.890	-0.290	0.427	-1.328	-6.124	-0.077	7.885
216735.260	NaN	-3.424	1.793	9.120	1505.495	1503.297	1508.425	-0.397	0.382	-1.420	-6.124	-0.153	8.038
216736.237	NaN	-3.413	1.804	9.120	1505.495	1504.029	1509.158	-0.473	0.382	-1.389	-6.278	0.000	8.115
216737.213	NaN	-3.424	1.793	9.120	1505.495	1503.297	1509.158	-0.519	0.382	-1.374	-6.124	0.000	8.038
216738.190	NaN	-3.413	1.804	9.120	1504.029	1504.029	1509.158	-0.382	0.473	-1.496	-6.124	0.000	8.038
216739.166	NaN	-3.413	1.804	9.120	1504.762	1504.762	1509.158	-0.244	0.397	-1.588	-6.124	-0.077	7.962
216740.143	NaN	-3.424	1.804	9.130	1505.495	1503.297	1509.158	-0.305	0.198	-1.466	-6.124	0.077	8.115
216741.119	NaN	-3.424	1.815	9.141	1504.762	1503.297	1509.890	-0.198	0.305	-1.450	-6.048	0.000	8.191
216742.096	NaN	-3.413	1.804	9.141	1504.029	1503.297	1509.890	-0.092	0.305	-1.557	-6.124	-0.077	8.115
216743.073	NaN	-3.413	1.815	9.152	1504.762	1504.762	1509.890	0.061	0.198	-1.588	-6.048	-0.077	8.191
216744.049	NaN	-3.413	1.793	9.163	1504.762	1504.029	1509.890	-0.351	0.198	-1.450	-6.278	0.077	7.885
216745.026	NaN	-3.424	1.804	9.163	1504.762	1504.029	1509.158	-0.504	0.244	-1.389	-6.278	0.000	8.115
216746.002	NaN	-3.435	1.804	9.163	1504.762	1504.762	1510.623	-0.305	0.305	-1.282	-6.201	0.077	8.115
216746.979	NaN	-3.435	1.804	9.185	1504.762	1504.029	1510.623	-0.183	0.260	-1.084	-6.201	-0.077	8.115
216747.955	NaN	-3.435	1.804	9.185	1505.495	1504.029	1510.623	-0.153	0.458	-1.252	-6.124	-0.153	8.038
216748.932	NaN	-3.446	1.793	9.185	1504.762	1504.029	1510.623	-0.229	0.427	-1.206	-6.124	-0.077	8.038
216749.908	NaN	-3.446	1.793	9.196	1505.495	1503.297	1509.158	-0.122	0.260	-1.023	-6.124	-0.077	8.268
216750.885	NaN	-3.446	1.804	9.185	1506.227	1504.029	1509.158	-0.290	0.015	-1.191	-6.278	0.000	8.115
216751.862	NaN	-3.457	1.804	9.196	1504.029	1504.762	1510.623	-0.519	0.183	-1.328	-6.124	0.077	8.038
216752.838	NaN	-3.467	1.804	9.196	1506.227	1504.029	1509.890	-0.443	0.198	-1.557	-6.278	0.000	8.115
216753.815	NaN	-3.467	1.804	9.196	1505.495	1504.029	1510.623	-0.321	0.351	-1.511	-6.201	-0.077	8.115
216754.791	NaN	-3.457	1.815	9.207	1506.227	1504.762	1509.890	-0.076	0.351	-1.328	-6.201	-0.153	8.115
216755.768	NaN	-3.467	1.815	9.217	1505.495	1504.762	1511.355	-0.076	0.137	-1.267	-6.354	-0.153	8.115
216756.744	NaN	-3.478	1.815	9.228	1506.227	1504.762	1509.158	-0.504	0.122	-1.359	-6.354	1.225	8.191
216757.721	NaN	-3.478	1.804	9.228	1504.762	1504.762	1510.623	-0.595	0.137	-1.420	-6.124	0.000	8.344
216758.698	NaN	-3.500	1.804	9.239	1506.960	1504.762	1509.890	-0.382	0.168	-1.282	-6.278	-0.077	8.191
216759.674	NaN	-3.500	1.793	9.250	1506.960	1504.029	1510.623	-0.076	0.183	-1.206	-6.354	0.000	8.268
216760.651	NaN	-3.500	1.804	9.261	1506.227	1504.762	1510.623	-0.244	0.275	-1.328	-6.278	-0.077	8.191
216761.627	NaN	-3.500	1.793	9.272	1505.495	1504.029	1509.890	-0.427	0.229	-1.298	-6.278	-0.077	8.191
216762.604	NaN	-3.511	1.783	9.283	1506.227	1503.297	1509.158	-0.519	0.290	-1.481	-6.201	-0.077	8.268
216763.580	NaN	-3.511	1.793	9.293	1506.227	1504.029	1510.623	-0.458	0.290	-1.420	-6.201	0.077	8.344
216764.557	NaN	-3.522	1.793	9.283	1506.227	1503.297	1509.158	-0.244	0.153	-1.191	-6.278	-0.077	8.115
216765.533	NaN	-3.522	1.793	9.283	1504.762	1502.564	1510.623	-0.076	0.107	-1.237	-6.354	0.000	8.268
216766.510	NaN	-3.511	1.804	9.283	1506.227	1503.297	1509.158	-0.275	0.198	-1.344	-6.201	0.077	8.191
216767.487	NaN	-3.533	1.793	9.283	1506.227	1503.297	1507.692	-0.275	0.046	-1.328	-6.201	0.000	8.191
216768.463	NaN	-3.522	1.815	9.293	1506.227	1504.762	1510.623	-0.336	0.122	-1.267	-6.201	-0.077	8.344
216769.440	NaN	-3.533	1.815	9.283	1505.495	1504.029	1510.623	-0.336	0.229	-1.206	-6.354	-0.153	8.268
216770.416	NaN	-3.522	1.815	9.293	1506.227	1504.029	1511.355	-0.244	0.244	-1.160	-6.278	-0.077	8.191
216771.393	NaN	-3.543	1.804	9.304	1504.762	1504.029	1510.623	-0.275	0.137	-1.634	-6.278	0.000	8.344
216772.369	NaN	-3.533	1.815	9.326	1505.495	1504.762	1509.890	-0.351	0.061	-1.649	-6.278	-0.077	8.191
216773.346	NaN	-3.533	1.804	9.326	1506.227	1504.029	1510.623	0.000	0.107	-1.405	-6.278	0.000	8.344
216774.323	NaN	-3.533	1.804	9.326	1505.495	1504.762	1509.890	-0.076	0.153	-1.298	-6.124	0.000	8.268
216775.299	NaN	-3.533	1.815	9.326	1505.495	1503.297	1510.623	-0.290	0.244	-1.237	-6.354	0.000	8.268
216776.276	NaN	-3.533	1.815	9.326	1506.227	1504.029	1509.890	-0.519	0.275	-1.282	-6.048	0.000	8.191
216777.252	NaN	-3.533	1.815	9.337	1505.495	1505.495	1510.623	-0.626	0.244	-1.344	-6.278	0.000	8.268
216778.229	NaN	-3.533	1.815	9.326	1506.227	1504.029	1509.890	-0.489	0.351	-1.389	-6.201	0.000	8.344
216779.205	NaN	-3.533	1.815	9.326	1504.762	1504.029	1509.158	-0.305	0.412	-1.313	-6.201	-0.077	8.191
216780.182	NaN	-3.533	1.815	9.348	1505.495	1503.297	1509.158	-0.214	0.351	-1.282	-6.354	0.000	8.268
216781.158	NaN	-3.533	1.826	9.337	1506.227	1504.029	1509.890	-0.031	0.336	-1.206	-6.201	0.000	8.421
216782.135	NaN	-3.522	1.826	9.337	1506.227	1504.762	1510.623	-0.122	0.137	-1.237	-7.349	-0.230	8.115
216783.112	NaN	-3.543	1.815	9.326	1506.227	1504.029	1511.355	-0.275	0.244	-1.466	-6.431	0.000	8.191
216784.088	NaN	-3.533	1.815	9.315	1506.227	1504.029	1509.890	-0.015	0.397	-1.588	-6.201	0.077	8.191
216785.065	NaN	-3.533	1.804	9.315	1505.495	1504.762	1509.890	-0.137	0.351	-1.344	-6.354	-0.077	8.115
216786.041	NaN	-3.522	1.804	9.315	1505.495	1504.762	1509.890	-0.183	0.305	-1.282	-6.201	-0.077	8.191
216787.018	NaN	-3.511	1.804	9.315	1506.960	1504.762	1510.623	-0.382	0.183	-1.359	-6.278	-0.077	8.268
216787.994	NaN	-3.522	1.804	9.315	1504.029	1504.762	1510.623	-0.382	0.244	-1.389	-6.201	0.000	8.191
216788.971	NaN	-3.522	1.793	9.315	1506.227	1503.297	1509.890	-0.382	0.168	-1.450	-6.278	0.000	8.344
216789.948	NaN	-3.511	1.793	9.293	1505.495	1504.029	1508.425	-0.321	0.290	-1.466	-6.201	0.000	8.191
216790.924	NaN	-3.489	1.793	9.293	1506.227	1503.297	1509.890	-0.137	0.275	-1.389	-6.048	0.000	8.191
216791.901	NaN	-3.500	1.793	9.272	1505.495	1504.029	1509.158	-0.168	0.183	-1.344	-6.278	0.077	8.191
216792.877	NaN	-3.500	1.783	9.272	1505.495	1504.029	1509.890	-0.260	0.214	-1.237	-6.124	0.000	8.038
216793.854	NaN	-3.500	1.783	9.261	1506.960	1503.297	1510.623	-0.351	0.092	-1.191	-6.201	0.000	8.115
216794.830	NaN	-3.489	1.793	9.272	1506.960	1504.029	1511.355	-0.290	0.137	-1.084	-6.201	0.000	8.344
216795.807	NaN	-3.500	1.783	9.250	1506.227	1503.297	1511.355	-0.198	0.137	-1.160	-6.278	0.000	8.191
216796.783	NaN	-3.500	1.793	9.250	1504.762	1504.762	1508.425	-0.198	-0.076	-1.313	-6.124	0.077	8.191
216797.760	NaN	-3.500	1.804	9.250	1505.495	1504.029	1510.623	-0.550	-0.153	-1.405	-6.278	0.077	8.115
216798.737	NaN	-3.500	1.793	9.239	1506.960	1504.029	1509.890	-0.473	0.076	-1.527	-6.278	0.000	8.191
216799.713	NaN	-3.489	1.815	9.250	1506.227	1503.297	1511.355	-0.183	0.153	-1.466	-6.201	0.000	8.268
216800.690	NaN	-3.489	1.804	9.261	1504.762	1504.029	1509.890	-0.137	0.076	-1.374	-6.124	0.000	8.115
216801.666	NaN	-3.489	1.804	9.261	1506.227	1504.762	1509.890	-0.305	0.153	-1.328	-6.201	-0.077	8.115
216802.643	NaN	-3.478	1.804	9.250	1504.762	1504.029	1510.623	-0.305	0.290	-1.237	-6.048	0.077	8.115
216803.619	NaN	-3.467	1.815	9.239	1505.495	1504.029	1510.623	-0.183	0.229	-1.405	-6.201	0.000	8.268
216804.596	NaN	-3.457	1.804	9.239	1505.495	1504.762	1510.623	-0.183	0.183	-1.496	-6.201	0.153	8.268
216805.573	NaN	-3.467	1.815	9.250	1506.227	1504.029	1509.890	-0.244	0.305	-1.282	-6.201	0.077	8.038
216806.549	NaN	-3.457	1.815	9.239	1505.495	1504.762	1509.158	-0.382	0.244	-1.344	-6.278	0.000	8.115
216807.526	NaN	-3.467	1.804	9.228	1506.227	1504.029	1509.890	-0.351	0.092	-1.420	-6.124	0.000	8.268
216808.502	NaN	-3.457	1.815	9.228	1505.495	1504.762	1509.890	-0.183	0.031	-1.527	-6.201	0.000	8.268
216809.479	NaN	-3.457	1.815	9.217	1504.762	1504.029	1509.158	-0.275	-0.015	-1.450	-6.201	-0.077	8.268
216810.455	NaN	-3.446	1.815	9.207	1506.227	1504.029	1510.623	-0.443	0.031	-1.298	-6.124	-0.077	8.038
216811.432	NaN	-3.457	1.804	9.207	1502.564	1502.564	1508.425	-0.427	-0.031	-1.267	-6.201	0.000	8.115
216812.408	NaN	-3.446	1.804	9.207	1504.762	1504.762	1510.623	-0.412	0.092	-1.466	-6.201	0.077	8.191
216813.385	NaN	-3.446	1.804	9.207	1506.227	1504.762	1509.890	-0.336	0.092	-1.405	-6.201	-0.153	7.962
216814.362	NaN	-3.457	1.804	9.196	1505.495	1504.762	1509.158	-0.244	0.031	-1.328	-6.048	0.000	8.038
216815.338	NaN	-3.457	1.804	9.207	1506.227	1504.029	1509.158	-0.351	0.046	-1.267	-6.278	0.153	8.115
216816.315	NaN	-3.457	1.804	9.196	1505.495	1503.297	1509.890	-0.443	0.107	-1.176	-6.201	0.000	8.038
216817.291	NaN	-3.446	1.815	9.196	1506.227	1504.762	1509.890	-0.290	-0.031	-1.176	-6.048	0.000	8.191
216818.268	NaN	-3.446	1.815	9.185	1504.762	1504.762	1509.890	-0.260	0.000	-1.466	-6.124	0.077	7.962
216819.244	NaN	-3.446	1.815	9.185	1504.762	1504.029	1512.088	-0.260	0.046	-1.664	-6.201	0.000	7.962
216820.221	NaN	-3.446	1.793	9.185	1504.029	1504.762	1509.890	-0.244	0.168	-1.573	-6.124	0.000	7.962
216821.198	NaN	-3.457	1.793	9.185	1504.029	1503.297	1509.890	-0.183	0.275	-1.435	-6.048	0.000	8.268
216822.174	NaN	-3.446	1.804	9.196	1504.762	1504.762	1510.623	-0.382	0.076	-1.313	-6.278	-0.077	7.885
216823.151	NaN	-3.446	1.804	9.196	1506.960	1504.029	1509.158	-0.504	-0.031	-1.328	-6.048	-0.077	8.115
216824.127	NaN	-3.446	1.804	9.185	1504.029	1504.029	1509.158	-0.382	-0.031	-1.313	-6.124	0.000	8.115
216825.104	NaN	-3.457	1.804	9.185	1504.029	1502.564	1509.158	-0.214	0.061	-1.313	-6.048	0.077	8.115
216826.080	NaN	-3.435	1.804	9.185	1505.495	1504.762	1510.623	-0.061	-0.107	-0.962	-6.048	0.077	8.191
216827.057	NaN	-3.424	1.815	9.185	1504.762	1504.029	1509.158	-0.015	-0.153	-0.962	-6.124	0.000	8.115
216828.033	NaN	-3.424	1.804	9.174	1504.029	1504.762	1512.088	-0.260	-0.046	-1.389	-5.971	-0.077	8.191
216829.010	NaN	-3.413	1.804	9.163	1504.762	1503.297	1509.158	-0.214	0.046	-1.420	-6.048	-0.153	8.115
216829.987	NaN	-3.424	1.804	9.163	1504.762	1505.495	1510.623	-0.229	0.046	-1.313	-6.201	-0.077	8.115
216830.963	NaN	-3.424	1.804	9.163	1504.762	1504.762	1511.355	-0.351	0.046	-1.267	-6.201	-0.077	8.038
216831.940	NaN	-3.424	1.804	9.163	1504.029	1504.029	1509.890	-0.427	-0.137	-1.252	-6.048	-0.077	8.115
216832.916	NaN	-3.424	1.804	9.174	1504.762	1505.495	1509.158	-0.305	-0.137	-1.481	-6.201	0.000	8.115
216833.893	NaN	-3.435	1.804	9.163	1505.495	1504.762	1509.158	-0.122	-0.015	-1.389	-5.971	-0.077	8.115
216834.869	NaN	-3.413	1.815	9.163	1506.227	1504.762	1511.355	-0.305	0.046	-1.252	-6.048	-0.077	8.038
216835.846	NaN	-3.413	1.804	9.163	1505.495	1504.762	1511.355	-0.412	0.031	-1.252	-6.124	0.000	8.038
216836.823	NaN	-3.424	1.804	9.163	1504.029	1503.297	1509.158	-0.504	-0.031	-1.405	-6.124	0.000	8.115
216837.799	NaN	-3.413	1.815	9.163	1504.762	1504.029	1509.158	-0.305	-0.031	-1.405	-6.278	-0.077	8.038
216838.776	NaN	-3.424	1.804	9.163	1504.029	1504.762	1509.890	0.061	-0.015	-1.191	-6.124	-0.077	8.115
216839.752	NaN	-3.424	1.804	9.174	1505.495	1504.762	1510.623	0.153	0.031	-1.282	-6.201	-0.077	7.962
216840.729	NaN	-3.424	1.804	9.174	1505.495	1503.297	1509.890	-0.198	-0.031	-1.282	-6.048	0.000	8.038
216841.705	NaN	-3.424	1.804	9.163	1505.495	1504.762	1509.890	-0.183	-0.305	-1.450	-6.048	-0.077	8.115
216842.682	NaN	-3.424	1.793	9.163	1505.495	1504.029	1510.623	-0.122	-0.351	-1.328	-6.124	-0.077	8.115
216843.658	NaN	-3.424	1.804	9.174	1505.495	1504.029	1509.158	-0.305	-0.260	-1.374	-6.278	0.000	8.038
216844.635	NaN	-3.413	1.804	9.174	1504.762	1504.762	1510.623	-0.443	-0.183	-1.252	-6.201	0.000	8.115
216845.612	NaN	-3.424	1.804	9.163	1505.495	1504.762	1509.158	-0.382	-0.260	-1.267	-6.124	-0.230	8.115
216846.588	NaN	-3.424	1.804	9.174	1503.297	1503.297	1509.158	-0.336	-0.198	-1.267	-6.201	0.000	8.191
216847.565	NaN	-3.424	1.804	9.185	1504.762	1504.029	1509.158	-0.290	0.000	-1.359	-6.048	0.000	8.038
216848.541	NaN	-3.424	1.804	9.185	1501.832	1503.297	1508.425	-0.214	-0.031	-1.374	-6.124	0.000	8.038
216849.518	NaN	-3.413	1.815	9.185	1504.762	1503.297	1509.158	-0.198	-0.244	-1.374	-6.048	-0.077	8.038
216850.494	NaN	-3.413	1.804	9.196	1505.495	1504.029	1509.890	-0.366	-0.321	-1.450	-6.124	-0.077	8.038
216851.471	NaN	-3.413	1.793	9.185	1504.029	1504.029	1508.425	-0.275	-0.260	-1.405	-6.201	0.077	8.191
216852.448	NaN	-3.424	1.793	9.185	1505.495	1504.762	1508.425	-0.122	-0.137	-1.359	-6.124	-0.153	8.268
216853.424	NaN	-3.424	1.815	9.196	1506.227	1504.029	1509.158	-0.076	-0.229	-1.252	-4.976	-0.077	8.191
216854.401	NaN	-3.435	1.804	9.185	1505.495	1504.029	1510.623	-0.275	-0.275	-1.252	-6.124	0.077	8.038
216855.377	NaN	-3.435	1.815	9.196	1504.762	1503.297	1509.158	-0.382	-0.260	-1.496	-6.201	0.153	8.115
216856.354	NaN	-3.435	1.804	9.185	1505.495	1504.029	1509.890	-0.290	-0.290	-1.328	-6.201	0.000	8.115
216857.330	NaN	-3.446	1.804	9.196	1506.227	1504.762	1510.623	-0.290	-0.122	-1.160	-6.278	-0.077	7.962
216858.307	NaN	-3.467	1.793	9.196	1505.495	1502.564	1509.158	-0.458	-0.168	-1.221	-6.124	0.000	7.962
216859.283	NaN	-3.457	1.804	9.217	1506.227	1504.762	1508.425	-0.382	-0.229	-1.420	-6.201	-0.153	8.268
216860.260	NaN	-3.467	1.804	9.217	1504.762	1504.029	1509.158	-0.214	-0.275	-1.328	-4.976	0.000	8.191
216861.237	NaN	-3.489	1.815	9.217	1507.692	1504.029	1509.890	-0.382	-0.321	-1.298	-6.201	0.000	8.191
216862.213	NaN	-3.489	1.815	9.217	1504.762	1504.762	1509.890	-0.031	-0.168	-1.221	-6.048	0.077	8.191
216863.190	NaN	-3.489	1.815	9.217	1506.227	1503.297	1509.890	0.061	-0.153	-1.344	-6.124	0.000	8.115
216864.166	NaN	-3.489	1.804	9.217	1506.227	1504.029	1511.355	0.137	-0.153	-1.557	-6.201	0.077	8.268
216865.143	NaN	-3.500	1.804	9.217	1504.762	1504.762	1509.158	-0.137	-0.321	-1.481	-6.201	-0.153	8.115
216866.119	NaN	-3.489	1.804	9.239	1505.495	1504.762	1511.355	-0.443	-0.137	-0.992	-6.201	0.077	8.115
216867.096	NaN	-3.489	1.815	9.250	1506.227	1504.029	1511.355	-0.412	-0.107	-1.023	-6.124	-0.077	8.115
216868.073	NaN	-3.500	1.804	9.250	1506.227	1504.762	1510.623	-0.321	-0.366	-1.145	-6.278	-0.077	8.191
216869.049	NaN	-3.500	1.804	9.261	1504.762	1503.297	1507.692	-0.031	-0.443	-1.466	-6.201	-0.077	8.191
216870.026	NaN	-3.500	1.815	9.283	1504.762	1504.029	1509.158	0.015	-0.321	-1.618	-6.201	0.000	8.038
216871.002	NaN	-3.500	1.815	9.293	1506.227	1504.762	1511.355	-0.229	-0.137	-1.389	-6.278	0.077	8.191
216871.979	NaN	-3.489	1.804	9.304	1506.227	1504.762	1511.355	-0.260	-0.183	-1.313	-6.048	0.000	8.268
216872.955	NaN	-3.500	1.793	9.304	1504.762	1504.762	1511.355	-0.107	-0.260	-1.344	-6.201	-0.077	8.191
216873.932	NaN	-3.500	1.783	9.293	1504.029	1503.297	1509.890	-0.183	-0.244	-1.344	-6.124	0.077	8.191
216874.908	3736847126.676	-3.511	1.804	9.293	1506.960	1503.297	1510.623	-0.244	-0.275	-1.237	-6.201	0.000	8.268
216875.885	NaN	-3.500	1.804	9.304	1505.495	1504.029	1512.088	-0.183	-0.198	-1.313	-6.201	-0.077	8.268
216876.862	NaN	-3.500	1.815	9.304	1506.227	1504.762	1510.623	-0.031	-0.031	-1.206	-6.354	-0.077	8.344
216877.838	NaN	-3.511	1.815	9.326	1504.762	1504.029	1512.088	-0.153	-0.214	-1.206	-6.278	-0.077	8.344
216878.815	NaN	-3.522	1.804	9.304	1505.495	1504.029	1510.623	-0.366	-0.229	-1.221	-6.431	0.000	8.268
216879.791	NaN	-3.511	1.804	9.304	1505.495	1504.029	1511.355	-0.275	-0.275	-1.359	-6.278	0.000	8.268
216880.768	NaN	-3.511	1.804	9.304	1505.495	1504.762	1509.890	-0.183	-0.137	-1.252	-6.201	0.000	8.344
216881.744	NaN	-3.522	1.804	9.315	1504.762	1504.762	1509.890	-0.214	0.061	-1.084	-6.354	0.000	8.268
216882.721	NaN	-3.522	1.804	9.326	1506.227	1504.029	1510.623	-0.076	0.061	-0.977	-6.278	0.000	8.268
216883.698	NaN	-3.522	1.804	9.315	1504.762	1502.564	1509.158	-0.183	-0.153	-1.176	-6.201	0.077	8.268
216884.674	NaN	-3.511	1.815	9.326	1505.495	1504.762	1510.623	-0.290	-0.260	-1.252	-6.278	-0.077	8.268
216885.651	NaN	-3.511	1.815	9.315	1504.762	1504.762	1511.355	-0.351	-0.260	-1.145	-6.278	0.000	8.268
216886.627	NaN	-3.511	1.815	9.326	1505.495	1504.762	1510.623	-0.260	-0.183	-1.282	-6.201	0.000	8.268
216887.604	NaN	-3.511	1.815	9.337	1504.762	1504.029	1507.692	-0.076	-0.137	-1.542	-6.201	0.077	8.344
216888.580	NaN	-3.500	1.815	9.348	1504.762	1504.029	1510.623	-0.015	-0.214	-1.603	-6.278	0.000	8.268
216889.557	NaN	-3.500	1.826	9.337	1505.495	1504.029	1509.890	-0.290	-0.244	-1.328	-6.124	-0.153	8.344
216890.533	NaN	-3.500	1.804	9.326	1506.960	1504.762	1511.355	-0.427	-0.153	-1.328	-6.124	-0.077	8.344
216891.510	NaN	-3.500	1.804	9.326	1505.495	1504.029	1510.623	-0.321	-0.122	-1.252	-6.201	0.000	8.344
216892.487	NaN	-3.511	1.804	9.326	1506.227	1504.762	1511.355	-0.290	-0.244	-1.176	-6.278	0.000	8.191
216893.463	NaN	-3.500	1.815	9.315	1506.960	1504.029	1511.355	-0.366	-0.183	-1.313	-6.278	-0.077	8.191
216894.440	NaN	-3.489	1.815	9.304	1506.227	1504.029	1511.355	-0.489	-0.061	-1.374	-6.048	-0.077	8.191
216895.416	NaN	-3.489	1.815	9.293	1505.495	1504.762	1509.890	-0.397	-0.076	-1.511	-6.124	0.000	8.191
216896.393	NaN	-3.489	1.815	9.272	1504.762	1503.297	1509.158	-0.183	-0.092	-1.511	-6.201	-0.077	8.268
216897.369	NaN	-3.489	1.815	9.283	1506.227	1504.762	1512.088	-0.137	-0.107	-1.313	-6.124	0.000	8.191
216898.346	NaN	-3.489	1.804	9.283	1505.495	1504.762	1509.890	-0.198	-0.015	-1.176	-6.201	0.000	8.268
216899.323	NaN	-3.489	1.815	9.283	1504.029	1504.029	1507.692	-0.412	-0.107	-1.099	-6.278	0.000	8.191
216900.299	NaN	-3.467	1.815	9.272	1505.495	1503.297	1509.890	-0.595	-0.305	-1.160	-6.278	0.077	8.038
216901.276	NaN	-3.478	1.793	9.261	1505.495	1503.297	1510.623	-0.489	-0.336	-1.191	-6.201	0.000	8.191
216902.252	NaN	-3.467	1.804	9.239	1506.227	1504.762	1511.355	-0.351	-0.214	-1.191	-6.278	0.000	8.115
216903.229	NaN	-3.467	1.793	9.250	1506.227	1504.029	1510.623	-0.290	-0.153	-1.115	-6.201	0.000	8.191
216904.205	NaN	-3.457	1.793	9.250	1505.495	1504.762	1509.158	-0.275	-0.168	-1.130	-6.201	0.000	8.115
216905.182	NaN	-3.457	1.793	9.239	1504.762	1504.029	1509.890	-0.366	-0.061	-1.221	-6.124	-0.077	8.115
216906.158	NaN	-3.467	1.804	9.239	1506.227	1504.762	1510.623	-0.366	0.031	-1.298	-6.278	-0.153	8.268
216907.135	NaN	-3.446	1.804	9.228	1505.495	1504.762	1509.890	-0.244	0.168	-1.145	-6.124	0.000	8.268
216908.112	NaN	-3.446	1.804	9.217	1504.029	1503.297	1509.890	-0.092	0.229	-1.023	-6.124	0.000	8.038
216909.088	NaN	-3.446	1.804	9.207	1505.495	1504.762	1510.623	-0.366	0.214	-0.992	-6.201	0.077	8.038
216910.065	NaN	-3.457	1.793	9.196	1506.960	1503.297	1509.890	-0.382	-0.031	-1.160	-6.354	-0.077	8.191
216911.041	NaN	-3.457	1.793	9.207	1506.960	1504.762	1509.890	-0.321	-0.107	-1.237	-6.048	0.000	8.115
216912.018	NaN	-3.446	1.804	9.207	1506.227	1505.495	1509.890	-0.305	0.092	-1.282	-6.278	-0.077	8.191
216912.994	NaN	-3.446	1.804	9.207	1506.227	1504.029	1510.623	-0.351	0.015	-1.176	-6.124	-0.077	7.885
216913.971	NaN	-3.446	1.804	9.207	1505.495	1503.297	1509.890	-0.290	-0.031	-0.916	-6.278	-0.153	8.115
216914.948	NaN	-3.435	1.815	9.196	1505.495	1502.564	1510.623	-0.351	-0.122	-0.855	-6.048	0.000	8.115
216915.924	NaN	-3.424	1.815	9.196	1505.495	1503.297	1509.890	-0.397	-0.061	-1.099	-6.124	0.000	8.191
216916.901	NaN	-3.435	1.804	9.174	1504.762	1504.762	1509.890	-0.321	-0.046	-1.221	-6.201	-0.077	8.038
216917.877	NaN	-3.424	1.804	9.174	1504.762	1503.297	1509.158	-0.153	-0.168	-1.160	-6.048	-0.077	8.191
216918.854	NaN	-3.424	1.804	9.152	1505.495	1503.297	1509.890	-0.366	-0.107	-1.053	-6.201	0.000	8.038
216919.830	NaN	-3.424	1.804	9.163	1504.762	1503.297	1509.890	-0.534	-0.092	-1.145	-6.048	0.000	8.115
216920.807	NaN	-3.413	1.804	9.163	1504.762	1504.029	1511.355	-0.412	0.000	-1.313	-6.278	0.000	7.962
216921.783	NaN	-3.413	1.804	9.152	1504.762	1504.029	1509.890	-0.061	0.076	-1.298	-6.124	0.000	8.191
216922.760	NaN	-3.413	1.793	9.163	1504.762	1504.029	1509.158	-0.092	0.000	-1.191	-6.278	0.077	8.191
216923.737	NaN	-3.424	1.793	9.174	1505.495	1504.762	1509.158	-0.092	-0.046	-1.099	-6.048	0.077	8.115
216924.713	NaN	-3.446	1.804	9.185	1505.495	1504.029	1509.890	-0.260	-0.183	-1.099	-5.971	0.077	8.038
216925.690	NaN	-3.446	1.815	9.174	1504.762	1504.029	1511.355	-0.321	-0.244	-1.084	-6.124	-0.077	7.962
216926.666	NaN	-3.424	1.815	9.185	1504.762	1504.029	1510.623	-0.351	-0.198	-1.191	-6.048	0.153	8.191
216927.643	NaN	-3.435	1.815	9.185	1504.029	1504.029	1510.623	-0.504	-0.153	-1.237	-6.048	-0.077	8.115
216928.619	NaN	-3.435	1.804	9.185	1504.762	1503.297	1509.890	-0.458	0.076	-1.206	-6.201	-0.077	8.191
216929.596	NaN	-3.424	1.815	9.185	1504.762	1504.029	1510.623	-0.336	0.076	-1.252	-6.124	0.000	8.268
216930.573	NaN	-3.424	1.804	9.185	1504.762	1504.029	1509.890	-0.260	-0.107	-1.176	-6.124	-0.153	8.038
216931.549	NaN	-3.424	1.804	9.196	1504.762	1501.832	1509.158	-0.229	-0.046	-1.176	-6.124	0.000	8.115
216932.526	NaN	-3.424	1.815	9.196	1506.227	1504.029	1509.158	-0.351	0.015	-1.160	-6.124	0.000	8.115
216933.502	NaN	-3.424	1.815	9.196	1505.495	1504.029	1509.890	-0.260	-0.046	-1.038	-6.124	0.077	8.191
216934.479	NaN	-3.435	1.815	9.196	1505.495	1502.564	1509.890	-0.168	-0.290	-1.130	-6.048	-0.077	8.038
216935.455	NaN	-3.424	1.826	9.196	1505.495	1504.029	1509.890	-0.290	-0.214	-1.160	-6.201	-0.077	8.115
216936.432	NaN	-3.424	1.804	9.185	1504.762	1503.297	1509.158	-0.244	-0.031	-1.282	-6.201	0.000	8.191
216937.408	NaN	-3.424	1.815	9.185	1505.495	1504.762	1509.890	-0.015	0.137	-1.099	-6.124	0.077	8.115
216938.385	NaN	-3.424	1.804	9.185	1504.762	1504.762	1509.890	-0.275	0.107	-1.206	-6.124	0.000	8.268
216939.362	NaN	-3.413	1.815	9.185	1505.495	1504.029	1510.623	-0.382	0.015	-1.282	-6.048	0.000	8.038
216940.338	NaN	-3.413	1.815	9.185	1504.762	1504.762	1509.890	-0.458	-0.198	-1.298	-6.124	0.000	8.115
216941.315	NaN	-3.424	1.815	9.185	1505.495	1503.297	1510.623	-0.427	-0.092	-1.176	-6.124	0.000	8.038
216942.291	NaN	-3.413	1.826	9.185	1505.495	1504.029	1510.623	-0.397	0.000	-1.145	-6.048	-0.153	8.115
216943.268	NaN	-3.424	1.826	9.185	1505.495	1504.029	1511.355	-0.458	-0.031	-1.191	-6.124	0.000	8.038
216944.244	NaN	-3.424	1.815	9.196	1505.495	1504.029	1510.623	-0.580	0.107	-1.084	-6.124	0.000	8.191
216945.221	NaN	-3.435	1.804	9.196	1505.495	1504.029	1509.158	-0.290	0.015	-1.145	-6.124	0.077	8.038
216946.198	NaN	-3.435	1.804	9.185	1505.495	1504.762	1511.355	0.015	-0.122	-1.084	-6.124	-0.077	8.115
216947.174	NaN	-3.435	1.793	9.196	1506.227	1504.762	1509.890	0.122	-0.107	-1.130	-6.124	0.153	8.115
216948.151	NaN	-3.435	1.793	9.196	1505.495	1504.029	1510.623	-0.122	-0.107	-1.191	-6.201	0.000	8.115
216949.127	NaN	-3.424	1.804	9.207	1504.762	1504.029	1509.890	0.000	0.015	-1.130	-6.201	-0.077	8.191
216950.104	NaN	-3.435	1.793	9.196	1504.029	1504.029	1509.158	-0.031	0.031	-1.191	-6.201	-0.077	7.962
216951.080	NaN	-3.435	1.804	9.217	1506.227	1504.029	1509.890	-0.107	-0.076	-1.237	-6.048	-0.077	8.115
216952.057	NaN	-3.446	1.793	9.207	1506.227	1504.029	1511.355	-0.198	0.015	-1.099	-6.201	-0.153	8.115
216953.033	NaN	-3.457	1.804	9.207	1504.762	1504.762	1509.890	-0.275	0.092	-0.901	-6.124	-0.077	8.115
216954.010	NaN	-3.457	1.804	9.207	1504.762	1504.029	1509.890	-0.275	0.092	-1.023	-6.201	-0.077	8.038
216954.987	NaN	-3.467	1.804	9.217	1506.227	1504.029	1509.158	-0.275	-0.031	-1.191	-6.201	0.000	8.191
216955.963	NaN	-3.457	1.804	9.217	1506.227	1504.029	1509.890	-0.092	-0.107	-1.221	-6.048	0.000	8.038
216956.940	NaN	-3.446	1.815	9.217	1506.960	1504.029	1510.623	-0.076	-0.031	-1.176	-6.201	0.077	8.115
216957.916	NaN	-3.446	1.815	9.217	1506.227	1504.029	1509.890	-0.107	0.137	-0.947	-6.201	0.000	8.115
216958.893	NaN	-3.435	1.815	9.228	1504.762	1504.762	1509.158	-0.244	0.046	-0.931	-6.124	0.000	8.115
216959.869	NaN	-3.435	1.804	9.228	1506.227	1504.029	1511.355	0.046	-0.046	-1.130	-6.278	-0.077	8.038
216960.846	NaN	-3.446	1.804	9.239	1506.227	1504.029	1511.355	0.076	0.046	-1.099	-6.201	0.000	8.115
216961.823	NaN	-3.446	1.815	9.250	1505.495	1503.297	1510.623	-0.198	0.092	-1.023	-6.048	-0.077	8.191
216962.799	NaN	-3.457	1.815	9.239	1506.227	1504.029	1509.158	-0.458	0.122	-1.145	-6.124	0.000	8.115
216963.776	NaN	-3.467	1.815	9.228	1506.227	1504.762	1509.890	-0.397	0.214	-1.069	-6.201	0.077	8.191
216964.752	NaN	-3.467	1.815	9.228	1506.960	1504.029	1511.355	-0.412	0.092	-1.221	-6.124	-0.077	8.115
216965.729	NaN	-3.467	1.815	9.239	1506.227	1504.029	1509.890	-0.443	0.092	-1.206	-6.201	0.000	8.115
216966.705	NaN	-3.478	1.815	9.250	1506.227	1503.297	1509.158	-0.473	0.183	-1.038	-6.201	0.077	8.191
216967.682	NaN	-3.478	1.815	9.239	1505.495	1504.762	1509.890	-0.336	0.137	-0.840	-6.124	-0.153	8.038
216968.658	3736847126.800	-3.467	1.826	9.250	1505.495	1504.029	1512.088	-0.351	0.198	-1.130	-6.201	0.000	8.268
216969.635	NaN	-3.457	1.815	9.250	1506.227	1504.029	1511.355	-0.443	0.153	-1.313	-6.201	0.000	8.268
216970.612	NaN	-3.467	1.815	9.261	1506.227	1504.029	1510.623	-0.214	0.229	-1.221	-5.053	-0.077	8.115
216971.588	NaN	-3.489	1.815	9.261	1506.227	1504.762	1509.890	-0.046	0.107	-1.053	-6.124	0.077	8.268
216972.565	NaN	-3.500	1.815	9.250	1506.227	1504.029	1509.890	-0.046	0.092	-1.115	-6.124	-0.077	8.191
216973.541	NaN	-3.500	1.815	9.261	1506.227	1504.762	1509.890	-0.137	0.183	-0.992	-6.201	0.000	8.191
216974.518	NaN	-3.500	1.815	9.261	1505.495	1504.029	1511.355	-0.122	0.321	-1.176	-6.354	0.077	8.268
216975.494	NaN	-3.500	1.793	9.272	1506.227	1504.029	1510.623	-0.244	0.244	-0.992	-6.201	0.000	8.344
216976.471	NaN	-3.489	1.793	9.272	1506.227	1504.762	1511.355	-0.244	0.031	-0.977	-6.124	-0.077	8.191
216977.448	NaN	-3.500	1.793	9.272	1506.960	1503.297	1509.890	-0.137	0.015	-0.992	-6.201	0.000	8.191
216978.424	NaN	-3.489	1.804	9.283	1506.960	1504.762	1512.088	-0.076	0.076	-1.145	-6.124	0.000	8.268
216979.401	NaN	-3.489	1.804	9.283	1506.227	1504.029	1510.623	-0.351	0.229	-1.099	-6.124	0.000	8.268
216980.377	NaN	-3.511	1.804	9.283	1506.227	1504.029	1509.158	-0.305	0.321	-1.115	-6.201	-0.077	8.115
216981.354	NaN	-3.500	1.793	9.272	1504.762	1504.029	1509.890	-0.214	0.305	-1.267	-6.201	-0.077	8.268
216982.330	NaN	-3.500	1.804	9.261	1506.227	1504.762	1510.623	-0.168	0.275	-1.252	-6.201	-0.077	8.191
216983.307	NaN	-3.511	1.793	9.261	1505.495	1504.029	1510.623	-0.290	0.260	-1.267	-6.201	-0.077	8.191
216984.283	NaN	-3.500	1.804	9.272	1506.227	1503.297	1509.158	-0.382	0.214	-1.206	-6.201	-0.077	8.268
216985.260	NaN	-3.489	1.793	9.283	1506.227	1504.029	1509.890	-0.397	0.153	-1.038	-6.354	0.000	8.191
216986.237	NaN	-3.500	1.793	9.283	1506.960	1504.762	1509.158	-0.107	0.351	-1.023	-6.124	0.000	8.115
216987.213	NaN	-3.489	1.793	9.293	1505.495	1504.029	1511.355	0.046	0.351	-0.992	-6.354	0.077	8.191
216988.190	NaN	-3.489	1.804	9.304	1506.960	1504.029	1510.623	-0.122	0.153	-0.977	-6.201	0.077	8.268
216989.166	NaN	-3.489	1.815	9.304	1505.495	1504.029	1511.355	-0.351	0.137	-1.176	-6.278	0.000	8.038
216990.143	NaN	-3.489	1.804	9.304	1505.495	1504.029	1509.890	-0.290	0.244	-1.359	-6.201	-0.077	8.191
216991.119	NaN	-3.500	1.815	9.304	1506.227	1504.762	1509.890	-0.489	0.275	-1.130	-6.201	0.000	8.191
216992.096	NaN	-3.500	1.815	9.304	1506.960	1504.029	1510.623	-0.489	0.198	-1.099	-6.201	-0.077	8.038
216993.073	NaN	-3.500	1.804	9.315	1505.495	1504.029	1511.355	-0.351	0.046	-1.008	-6.201	0.000	8.115
216994.049	NaN	-3.489	1.804	9.304	1506.227	1504.762	1509.890	-0.260	-0.015	-0.794	-6.354	0.000	8.268
216995.026	NaN	-3.500	1.793	9.293	1505.495	1504.029	1509.890	-0.366	0.092	-0.931	-6.201	-0.077	8.191
216996.002	NaN	-3.500	1.804	9.283	1506.227	1504.762	1510.623	-0.351	0.214	-1.084	-6.201	0.000	8.268
216996.979	NaN	-3.500	1.793	9.283	1505.495	1504.762	1510.623	-0.092	0.260	-1.008	-6.124	-0.153	8.268
216997.955	NaN	-3.489	1.783	9.272	1506.227	1504.029	1509.158	0.000	0.183	-0.855	-6.124	0.000	8.191
216998.932	NaN	-3.500	1.783	9.272	1501.099	1502.564	1510.623	-0.198	0.214	-0.901	-6.124	0.153	8.191
216999.908	NaN	-3.489	1.783	9.272	1506.227	1504.029	1510.623	-0.214	0.351	-0.733	-6.124	-0.077	8.191
217000.885	NaN	-3.478	1.793	9.272	1505.495	1505.495	1510.623	-0.244	0.321	-0.870	-6.124	0.077	8.038
217001.862	NaN	-3.467	1.804	9.272	1505.495	1504.029	1509.890	-0.153	0.168	-1.099	-6.124	0.000	8.115
217002.838	NaN	-3.467	1.793	9.272	1506.227	1504.029	1509.890	-0.153	0.244	-1.099	-6.278	0.077	8.115
217003.815	NaN	-3.478	1.793	9.272	1506.227	1504.029	1509.890	-0.107	0.107	-1.008	-6.124	0.077	8.115
217004.791	NaN	-3.478	1.804	9.272	1506.960	1504.029	1510.623	-0.122	0.137	-1.176	-6.201	0.000	8.115
217005.768	NaN	-3.478	1.804	9.272	1506.960	1503.297	1510.623	-0.183	0.092	-1.115	-6.278	-0.153	8.115
217006.744	NaN	-3.467	1.804	9.261	1506.227	1504.762	1509.890	-0.076	0.153	-0.901	-6.201	0.000	8.115
217007.721	NaN	-3.478	1.815	9.250	1505.495	1504.029	1509.890	-0.183	0.198	-0.901	-6.048	0.000	8.038
217008.698	NaN	-3.467	1.815	9.261	1505.495	1503.297	1509.158	-0.198	0.244	-0.901	-6.201	0.000	8.191
217009.674	NaN	-3.457	1.815	9.261	1505.495	1504.029	1509.158	-0.198	0.382	-0.992	-6.124	-0.153	8.191
217010.651	NaN	-3.457	1.804	9.261	1505.495	1504.029	1509.158	-0.275	0.290	-0.992	-6.124	0.077	8.038
217011.627	NaN	-3.457	1.804	9.261	1505.495	1504.029	1509.890	-0.275	0.137	-1.023	-6.201	0.077	8.191
217012.604	NaN	-3.467	1.804	9.250	1506.227	1503.297	1510.623	-0.275	0.275	-1.267	-6.124	0.000	8.191
217013.580	NaN	-3.446	1.804	9.228	1505.495	1503.297	1510.623	-0.183	0.458	-1.206	-6.201	-0.077	8.115
217014.557	NaN	-3.446	1.804	9.217	1504.762	1503.297	1509.158	-0.198	0.382	-0.992	-6.278	0.000	8.191
217015.533	NaN	-3.435	1.826	9.217	1506.227	1504.029	1510.623	-0.168	0.397	-1.023	-6.124	-0.077	8.038
217016.510	NaN	-3.435	1.815	9.207	1504.762	1503.297	1510.623	-0.107	0.397	-0.947	-6.124	0.000	8.038
217017.487	NaN	-3.435	1.804	9.196	1505.495	1504.762	1510.623	-0.244	0.275	-1.053	-6.124	0.000	8.191
217018.463	NaN	-3.435	1.793	9.196	1506.227	1503.297	1509.158	-0.198	0.198	-1.053	-6.278	-0.077	8.268
217019.440	NaN	-3.424	1.804	9.207	1506.227	1503.297	1509.158	-0.229	0.198	-1.053	-6.124	0.077	8.038
217020.416	NaN	-3.435	1.804	9.196	1506.227	1503.297	1510.623	-0.397	0.183	-0.885	-6.201	0.000	8.115
217021.393	NaN	-3.435	1.793	9.196	1505.495	1503.297	1510.623	-0.290	0.305	-0.916	-6.048	-0.077	8.038
217022.369	NaN	-3.435	1.804	9.185	1505.495	1504.029	1511.355	-0.122	0.382	-0.809	-6.124	0.000	8.038
217023.346	NaN	-3.435	1.815	9.196	1506.960	1504.029	1509.158	-0.183	0.183	-0.611	-6.201	-0.153	8.115
217024.323	NaN	-3.435	1.815	9.196	1506.960	1503.297	1510.623	-0.427	0.198	-0.824	-6.278	-0.077	8.115
217025.299	NaN	-3.435	1.815	9.196	1505.495	1504.029	1508.425	-0.595	0.397	-0.916	-6.124	0.000	8.115
217026.276	NaN	-3.446	1.815	9.196	1506.227	1503.297	1510.623	-0.519	0.519	-0.794	-6.124	0.000	8.191
217027.252	NaN	-3.435	1.815	9.185	1505.495	1504.762	1510.623	-0.229	0.321	-0.794	-6.124	-0.077	8.115
217028.229	NaN	-3.446	1.804	9.174	1504.762	1504.762	1510.623	-0.076	0.076	-0.885	-6.124	-0.077	8.268
217029.205	NaN	-3.424	1.815	9.185	1504.029	1504.762	1509.890	0.046	0.092	-1.069	-6.278	-0.077	8.038
217030.182	NaN	-3.446	1.804	9.174	1504.762	1504.029	1509.158	-0.015	0.443	-1.099	-6.201	-0.077	8.038
217031.158	NaN	-3.446	1.804	9.174	1504.029	1504.029	1508.425	-0.168	0.489	-0.977	-6.124	0.153	8.191
217032.135	NaN	-3.424	1.804	9.185	1505.495	1504.762	1509.158	-0.137	0.336	-0.870	-6.048	0.000	8.115
217033.112	NaN	-3.413	1.804	9.185	1506.227	1504.029	1509.890	-0.168	0.214	-1.023	-6.048	0.077	8.038
217034.088	NaN	-3.424	1.804	9.207	1504.762	1503.297	1509.158	-0.275	0.153	-1.160	-6.124	-0.077	8.191
217035.065	NaN	-3.435	1.804	9.196	1504.762	1504.029	1509.158	-0.275	-0.046	-0.992	-6.201	0.000	8.038
217036.041	NaN	-3.435	1.815	9.196	1504.762	1503.297	1507.692	-0.122	0.015	-0.855	-6.124	-0.077	8.115
217037.018	NaN	-3.424	1.826	9.196	1505.495	1503.297	1509.890	-0.168	0.275	-0.977	-6.048	-0.153	8.191
217037.994	NaN	-3.435	1.815	9.196	1505.495	1504.029	1509.158	0.000	0.229	-1.130	-6.201	-0.153	8.191
217038.971	NaN	-3.435	1.804	9.196	1505.495	1503.297	1507.692	0.031	0.000	-1.038	-6.048	0.000	7.962
217039.948	NaN	-3.435	1.804	9.196	1505.495	1504.762	1509.158	-0.321	0.076	-1.023	-6.278	-0.077	7.962
217040.924	NaN	-3.446	1.804	9.196	1505.495	1504.029	1508.425	-0.504	0.122	-0.916	-5.971	0.077	8.115
217041.901	NaN	-3.435	1.804	9.207	1506.227	1504.029	1511.355	-0.305	0.244	-0.763	-7.349	-0.077	8.115
217042.877	NaN	-3.446	1.804	9.207	1504.762	1504.029	1509.890	-0.214	0.305	-0.733	-6.278	0.000	8.191
217043.854	NaN	-3.446	1.793	9.207	1504.762	1503.297	1509.158	-0.275	0.076	-0.656	-6.124	-0.077	8.038
217044.830	NaN	-3.446	1.815	9.207	1506.227	1504.762	1510.623	-0.198	0.046	-0.718	-6.124	-0.077	8.115
217045.807	NaN	-3.457	1.815	9.196	1505.495	1502.564	1509.158	-0.092	-0.046	-0.809	-6.124	0.153	8.115
217046.783	NaN	-3.435	1.826	9.207	1506.227	1504.762	1510.623	-0.031	-0.031	-0.885	-6.201	-0.077	8.115
217047.760	NaN	-3.435	1.815	9.196	1504.762	1504.029	1509.890	-0.076	-0.015	-0.779	-6.124	0.000	8.115
217048.737	NaN	-3.435	1.804	9.207	1505.495	1503.297	1509.890	-0.076	-0.015	-0.870	-6.201	1.072	8.115
217049.713	NaN	-3.435	1.815	9.228	1505.495	1504.029	1509.158	0.092	0.092	-0.947	-6.124	0.000	8.191
217050.690	NaN	-3.446	1.815	9.228	1505.495	1504.029	1509.158	0.183	0.229	-0.962	-6.124	0.000	8.038
217051.666	NaN	-3.435	1.815	9.228	1504.762	1504.029	1510.623	0.076	0.153	-0.901	-6.124	0.000	8.038
217052.643	NaN	-3.457	1.804	9.228	1505.495	1504.762	1509.890	-0.061	0.198	-0.977	-6.201	-0.077	8.038
217053.619	NaN	-3.446	1.804	9.228	1507.692	1504.762	1509.890	-0.443	0.168	-0.870	-6.201	-0.077	8.191
217054.596	NaN	-3.435	1.793	9.217	1506.227	1504.029	1510.623	-0.473	0.137	-0.809	-6.124	0.077	8.038
217055.573	NaN	-3.435	1.793	9.207	1504.762	1504.762	1509.890	-0.107	-0.061	-0.840	-6.201	0.000	8.038
217056.549	NaN	-3.446	1.793	9.207	1505.495	1504.029	1510.623	-0.168	-0.107	-0.916	-6.048	0.077	8.191
217057.526	NaN	-3.467	1.783	9.207	1506.227	1503.297	1509.890	-0.122	0.153	-0.931	-5.971	0.000	8.115
217058.502	NaN	-3.457	1.783	9.217	1506.227	1504.762	1508.425	-0.046	0.260	-0.962	-6.201	-0.077	8.115
217059.479	NaN	-3.457	1.783	9.217	1506.227	1504.762	1509.158	-0.275	0.107	-0.947	-6.201	0.000	8.038
217060.455	NaN	-3.457	1.793	9.207	1505.495	1504.029	1510.623	-0.504	-0.031	-0.824	-6.278	0.000	8.191
217061.432	NaN	-3.446	1.804	9.217	1505.495	1503.297	1509.890	-0.260	0.015	-0.718	-6.124	0.000	8.115
217062.408	NaN	-3.446	1.804	9.207	1506.227	1504.762	1510.623	-0.031	0.046	-0.779	-6.124	0.000	8.268
217063.385	NaN	-3.446	1.804	9.196	1505.495	1504.762	1509.158	0.076	0.076	-0.885	-6.048	-0.077	8.115
217064.362	NaN	-3.457	1.804	9.196	1506.227	1504.762	1509.158	0.000	0.122	-0.977	-6.124	0.077	8.038
217065.338	NaN	-3.467	1.804	9.207	1504.762	1503.297	1510.623	-0.168	0.107	-0.870	-6.201	0.077	8.115
217066.315	NaN	-3.467	1.793	9.217	1506.227	1503.297	1509.158	-0.275	-0.031	-0.870	-6.278	0.000	8.268
217067.291	NaN	-3.467	1.804	9.239	1506.227	1504.029	1509.890	-0.214	-0.198	-0.779	-6.124	0.000	8.191
217068.268	NaN	-3.467	1.804	9.228	1506.227	1503.297	1512.088	-0.229	-0.015	-0.763	-6.201	0.000	8.115
217069.244	NaN	-3.467	1.804	9.228	1505.495	1504.762	1510.623	-0.183	0.076	-0.733	-6.201	0.000	8.268
217070.221	NaN	-3.478	1.793	9.217	1506.227	1504.029	1510.623	-0.092	0.015	-0.794	-6.124	0.000	8.268
217071.198	NaN	-3.467	1.793	9.228	1504.762	1503.297	1507.692	-0.107	-0.168	-1.053	-6.048	0.077	8.115
217072.174	NaN	-3.478	1.793	9.217	1504.762	1504.029	1509.890	-0.214	-0.046	-1.008	-6.124	0.000	8.115
217073.151	NaN	-3.489	1.793	9.228	1504.029	1503.297	1509.158	-0.244	0.000	-0.870	-6.201	0.000	8.191
217074.127	NaN	-3.489	1.793	9.228	1505.495	1504.762	1509.158	-0.122	-0.031	-0.687	-6.124	-0.077	8.115
217075.104	NaN	-3.489	1.804	9.239	1504.762	1502.564	1509.158	-0.076	-0.015	-0.580	-6.201	0.077	8.115
217076.080	NaN	-3.489	1.804	9.239	1504.029	1504.029	1508.425	-0.427	-0.046	-0.748	-6.201	-0.077	8.191
217077.057	NaN	-3.478	1.804	9.239	1506.227	1504.029	1510.623	-0.687	-0.015	-0.824	-6.354	0.000	8.191
217078.033	NaN	-3.489	1.804	9.239	1505.495	1504.762	1509.890	-0.794	0.000	-0.809	-6.201	0.000	8.268
217079.010	NaN	-3.500	1.793	9.250	1504.029	1503.297	1509.890	-0.412	0.015	-0.809	-6.124	0.000	8.268
217079.987	NaN	-3.478	1.804	9.261	1506.227	1504.029	1510.623	-0.198	-0.214	-0.641	-6.124	-0.077	8.191
217080.963	NaN	-3.467	1.804	9.272	1506.960	1504.029	1509.890	-0.275	-0.137	-0.595	-6.201	0.000	8.191
217081.940	NaN	-3.467	1.815	9.272	1506.960	1504.029	1509.890	-0.336	0.000	-0.794	-6.124	0.077	8.191
217082.916	NaN	-3.478	1.815	9.261	1505.495	1504.029	1509.890	-0.366	0.076	-0.947	-6.124	0.077	8.115
217083.893	NaN	-3.489	1.815	9.250	1504.762	1503.297	1509.158	-0.290	0.076	-0.992	-6.201	-0.077	8.344
217084.869	NaN	-3.467	1.815	9.250	1506.227	1504.762	1510.623	-0.092	-0.046	-1.053	-6.201	-0.077	8.191
217085.846	NaN	-3.478	1.815	9.250	1506.227	1504.762	1510.623	0.031	-0.076	-0.947	-6.124	0.000	8.191
217086.823	NaN	-3.478	1.804	9.261	1506.227	1504.762	1512.088	-0.229	-0.061	-0.824	-6.124	0.000	8.191
217087.799	NaN	-3.478	1.793	9.261	1504.762	1504.762	1509.890	-0.626	-0.092	-0.626	-6.201	-0.077	8.115
217088.776	NaN	-3.489	1.793	9.261	1504.762	1504.762	1509.158	-0.534	-0.092	-0.626	-6.201	0.000	8.191
217089.752	NaN	-3.489	1.815	9.272	1506.227	1505.495	1509.890	-0.260	-0.137	-0.748	-6.124	0.000	8.268
217090.729	NaN	-3.489	1.815	9.283	1506.227	1504.029	1509.890	-0.305	0.015	-0.855	-6.201	0.077	8.344
217091.705	NaN	-3.478	1.815	9.283	1506.227	1504.762	1509.158	-0.305	0.107	-0.916	-6.201	-0.077	8.191
217092.682	NaN	-3.500	1.815	9.283	1505.495	1504.029	1510.623	0.107	-0.122	-0.962	-6.201	0.000	8.191
217093.658	NaN	-3.489	1.815	9.283	1506.227	1504.762	1511.355	0.122	-0.092	-0.977	-6.201	-0.153	8.268
217094.635	NaN	-3.489	1.815	9.272	1505.495	1504.762	1509.890	-0.382	-0.061	-0.901	-6.201	-0.153	8.268
217095.612	NaN	-3.500	1.815	9.250	1506.227	1504.029	1510.623	-0.290	-0.092	-0.595	-6.201	0.000	8.191
217096.588	NaN	-3.489	1.815	9.261	1506.227	1504.029	1510.623	-0.183	-0.153	-0.458	-6.048	0.000	8.268
217097.565	NaN	-3.489	1.804	9.261	1506.227	1504.029	1509.158	-0.260	-0.153	-0.641	-6.124	0.000	8.191
217098.541	NaN	-3.489	1.804	9.261	1506.227	1504.029	1511.355	-0.473	-0.153	-0.855	-6.201	-0.153	8.115
217099.518	NaN	-3.489	1.804	9.272	1506.227	1504.029	1510.623	-0.321	-0.092	-0.901	-6.201	-0.077	8.421
217100.494	NaN	-3.489	1.804	9.272	1505.495	1504.762	1510.623	-0.137	0.092	-0.885	-6.201	-0.077	8.191
217101.471	NaN	-3.478	1.804	9.272	1505.495	1504.029	1509.890	-0.061	0.122	-0.794	-6.278	-0.077	8.115
217102.448	NaN	-3.489	1.804	9.261	1504.762	1504.029	1509.890	-0.153	0.107	-0.733	-6.278	0.000	8.191
217103.424	NaN	-3.489	1.793	9.272	1505.495	1503.297	1509.158	-0.397	0.000	-0.779	-6.201	-0.077	8.268
217104.401	NaN	-3.478	1.815	9.283	1505.495	1504.029	1509.890	-0.458	-0.046	-0.672	-6.278	-0.077	8.268
217105.377	NaN	-3.489	1.793	9.283	1505.495	1503.297	1509.158	-0.214	0.122	-0.565	-6.124	0.000	8.191
217106.354	NaN	-3.489	1.793	9.283	1504.762	1504.029	1509.890	-0.107	0.092	-0.656	-6.124	0.153	8.191
217107.330	NaN	-3.489	1.804	9.283	1506.960	1503.297	1509.158	-0.198	-0.015	-0.885	-6.354	0.000	8.191
217108.307	NaN	-3.500	1.783	9.272	1505.495	1504.029	1509.890	-0.397	-0.031	-0.885	-6.278	-0.077	8.115
217109.283	NaN	-3.478	1.793	9.250	1505.495	1503.297	1510.623	-0.260	-0.122	-0.672	-6.278	-0.077	8.191
217110.260	NaN	-3.489	1.783	9.250	1506.227	1503.297	1509.890	-0.321	-0.092	-0.840	-6.124	0.000	8.191
217111.237	NaN	-3.500	1.793	9.239	1506.960	1503.297	1510.623	-0.275	0.000	-0.962	-6.201	0.153	8.115
217112.213	NaN	-3.489	1.793	9.228	1506.227	1504.762	1509.890	-0.183	-0.061	-0.855	-6.201	-0.077	8.191
217113.190	NaN	-3.500	1.793	9.217	1505.495	1504.029	1509.890	-0.397	-0.092	-0.947	-6.354	0.000	8.038
217114.166	NaN	-3.489	1.793	9.239	1504.762	1503.297	1510.623	-0.580	-0.137	-0.962	-6.278	0.000	7.962
217115.143	NaN	-3.489	1.804	9.228	1506.227	1504.029	1509.158	-0.611	-0.275	-0.824	-6.124	-0.077	8.115
217116.119	NaN	-3.478	1.815	9.239	1505.495	1504.762	1509.890	-0.382	-0.153	-0.611	-6.201	0.077	8.191
217117.096	NaN	-3.478	1.815	9.239	1506.227	1504.762	1509.890	-0.321	0.015	-0.794	-6.354	0.077	8.191
217118.073	NaN	-3.478	1.815	9.239	1504.762	1504.029	1509.890	-0.290	0.061	-0.885	-6.278	-0.077	8.191
217119.049	NaN	-3.467	1.804	9.228	1506.227	1504.029	1508.425	-0.260	0.000	-0.824	-6.201	0.000	8.268
217120.026	NaN	-3.478	1.804	9.239	1505.495	1504.762	1511.355	-0.260	0.061	-0.794	-5.053	-0.077	8.038
217121.002	NaN	-3.457	1.815	9.250	1506.227	1504.762	1510.623	-0.214	0.000	-0.763	-6.278	0.000	8.115
217121.979	NaN	-3.457	1.804	9.239	1506.227	1504.029	1510.623	-0.275	0.046	-0.763	-6.201	0.000	7.962
217122.955	NaN	-3.457	1.815	9.239	1506.227	1503.297	1509.890	-0.412	0.031	-0.779	-6.124	0.077	8.344
217123.932	NaN	-3.478	1.804	9.228	1505.495	1503.297	1509.158	-0.656	-0.168	-0.809	-6.278	-0.077	8.268
217124.908	NaN	-3.467	1.804	9.228	1505.495	1504.762	1509.158	-0.580	-0.107	-0.809	-6.124	0.000	8.191
217125.885	NaN	-3.457	1.804	9.207	1505.495	1504.762	1508.425	-0.336	0.015	-0.947	-6.201	-0.153	8.115
217126.862	NaN	-3.457	1.804	9.207	1505.495	1504.762	1509.158	-0.061	-0.107	-1.069	-6.278	0.000	8.115
217127.838	NaN	-3.446	1.804	9.207	1506.227	1503.297	1509.890	-0.183	-0.275	-0.962	-6.201	-0.153	8.115
217128.815	NaN	-3.457	1.793	9.196	1506.227	1504.762	1509.890	-0.336	-0.244	-0.733	-5.971	-0.077	8.115
217129.791	NaN	-3.467	1.793	9.217	1505.495	1504.029	1508.425	-0.458	-0.214	-0.611	-6.124	0.000	8.038
217130.768	NaN	-3.457	1.804	9.217	1504.762	1504.029	1509.158	-0.519	-0.092	-0.718	-6.124	0.153	8.191
217131.744	NaN	-3.457	1.815	9.217	1505.495	1503.297	1509.890	-0.473	0.031	-0.809	-6.124	0.000	7.962
217132.721	NaN	-3.457	1.804	9.217	1505.495	1503.297	1509.158	-0.168	0.031	-0.855	-6.278	-0.077	8.038
217133.698	NaN	-3.446	1.815	9.217	1506.227	1504.029	1510.623	-0.153	-0.214	-0.870	-6.124	0.077	8.038
217134.674	NaN	-3.446	1.804	9.217	1504.762	1504.029	1508.425	-0.473	-0.290	-0.794	-6.048	0.000	8.038
217135.651	NaN	-3.446	1.804	9.217	1504.762	1504.029	1509.158	-0.565	-0.336	-0.779	-6.124	0.077	8.038
217136.627	NaN	-3.446	1.815	9.217	1506.227	1504.029	1509.890	-0.275	-0.183	-0.870	-6.278	0.000	8.115
217137.604	NaN	-3.457	1.804	9.217	1505.495	1504.029	1509.890	-0.168	-0.046	-0.779	-6.278	0.077	8.038
217138.580	NaN	-3.457	1.804	9.207	1505.495	1504.029	1508.425	-0.305	-0.031	-0.840	-6.201	0.000	8.268
217139.557	NaN	-3.446	1.815	9.217	1505.495	1503.297	1509.890	-0.473	-0.031	-0.855	-6.201	0.000	8.115
217140.533	NaN	-3.457	1.804	9.239	1505.495	1504.762	1509.158	-0.550	-0.031	-0.870	-6.048	0.000	8.268
217141.510	NaN	-3.457	1.804	9.228	1506.227	1503.297	1509.890	-0.733	0.000	-0.870	-6.201	0.000	8.115
217142.487	NaN	-3.467	1.815	9.217	1506.960	1504.029	1510.623	-0.641	-0.168	-0.748	-6.124	0.077	8.268
217143.463	NaN	-3.457	1.815	9.217	1506.227	1504.029	1510.623	-0.366	-0.275	-0.824	-6.124	0.000	8.038
217144.440	NaN	-3.457	1.804	9.217	1505.495	1504.762	1509.890	-0.656	-0.214	-0.977	-6.124	-0.077	8.038
217145.416	NaN	-3.467	1.804	9.196	1506.227	1504.029	1510.623	-0.626	-0.229	-1.069	-6.124	0.077	8.115
217146.393	NaN	-3.478	1.804	9.196	1505.495	1504.029	1510.623	-0.519	-0.122	-0.855	-6.201	0.000	8.115
217147.369	NaN	-3.467	1.815	9.207	1506.227	1504.762	1510.623	-0.519	-0.305	-0.626	-6.124	0.077	8.115
217148.346	NaN	-3.457	1.804	9.217	1506.227	1504.029	1511.355	-0.519	-0.427	-0.718	-6.048	0.000	8.115
217149.323	NaN	-3.457	1.804	9.217	1504.762	1504.762	1510.623	-0.611	-0.366	-0.809	-6.201	-0.077	8.115
217150.299	NaN	-3.457	1.793	9.217	1505.495	1504.762	1510.623	-0.198	-0.290	-0.763	-6.124	0.000	8.115
217151.276	3736847126.971	-3.467	1.804	9.217	1506.227	1504.029	1508.425	-0.305	-0.412	-0.748	-6.201	0.000	8.191
217152.252	NaN	-3.457	1.804	9.217	1505.495	1504.029	1511.355	-0.565	-0.366	-0.748	-4.976	-0.077	8.115
217153.229	NaN	-3.467	1.793	9.207	1506.227	1503.297	1508.425	-0.748	-0.305	-0.763	-6.354	0.000	8.115
217154.205	NaN	-3.457	1.793	9.207	1505.495	1503.297	1507.692	-0.611	-0.275	-0.611	-6.124	0.000	8.115
217155.182	NaN	-3.457	1.793	9.217	1506.227	1503.297	1509.890	-0.366	-0.336	-0.550	-6.124	-0.077	8.115
217156.158	NaN	-3.446	1.793	9.207	1506.227	1504.762	1509.890	-0.260	-0.275	-0.779	-6.124	0.000	8.038
217157.135	NaN	-3.446	1.804	9.207	1506.227	1504.762	1509.158	-0.061	-0.229	-0.901	-6.124	0.000	8.115
217158.112	NaN	-3.446	1.793	9.207	1506.227	1504.762	1510.623	-0.092	-0.260	-0.962	-6.201	0.000	8.191
217159.088	NaN	-3.457	1.804	9.196	1505.495	1504.029	1509.158	-0.427	-0.336	-0.992	-6.124	0.000	8.191
217160.065	NaN	-3.446	1.793	9.207	1505.495	1504.029	1508.425	-0.458	-0.397	-0.794	-6.124	0.153	7.962
217161.041	NaN	-3.435	1.804	9.196	1505.495	1504.029	1509.890	-0.382	-0.412	-0.702	-6.201	0.000	8.115
217162.018	NaN	-3.435	1.815	9.196	1505.495	1504.762	1509.158	-0.244	-0.382	-0.779	-6.278	0.000	8.038
217162.994	NaN	-3.435	1.815	9.185	1506.227	1503.297	1510.623	-0.473	-0.519	-0.656	-6.201	0.000	8.115
217163.971	NaN	-3.435	1.815	9.207	1504.762	1504.029	1510.623	-0.748	-0.473	-0.672	-6.124	0.077	8.191
217164.948	NaN	-3.435	1.826	9.207	1506.960	1504.029	1509.158	-0.687	-0.229	-0.824	-6.124	-0.077	8.115
217165.924	NaN	-3.435	1.815	9.217	1504.762	1504.029	1509.890	-0.427	-0.214	-1.069	-6.048	-1.148	8.191
217166.901	NaN	-3.446	1.815	9.228	1504.029	1503.297	1508.425	-0.382	-0.382	-0.992	-6.201	-0.077	8.038
217167.877	NaN	-3.446	1.815	9.228	1504.762	1504.762	1509.890	-0.504	-0.580	-0.672	-6.201	0.000	8.115
217168.854	NaN	-3.446	1.815	9.207	1506.227	1504.029	1509.158	-0.565	-0.473	-0.672	-6.124	-0.153	8.115
217169.830	NaN	-3.446	1.826	9.207	1506.960	1504.762	1509.158	-0.550	-0.260	-0.901	-6.278	0.000	8.115
217170.807	NaN	-3.446	1.826	9.207	1506.227	1504.762	1509.890	-0.443	-0.244	-0.962	-6.201	-0.077	8.191
217171.783	NaN	-3.457	1.815	9.196	1506.227	1503.297	1510.623	-0.305	-0.321	-0.809	-6.201	-0.153	8.115
217172.760	NaN	-3.457	1.815	9.196	1506.960	1504.029	1509.890	-0.427	-0.565	-0.763	-6.124	0.077	8.191
217173.737	NaN	-3.457	1.815	9.196	1506.960	1504.029	1509.890	-0.534	-0.565	-0.962	-6.201	0.000	8.191
217174.713	NaN	-3.457	1.815	9.196	1505.495	1504.029	1509.890	-0.687	-0.443	-1.008	-6.354	-0.077	8.115
217175.690	NaN	-3.457	1.815	9.207	1505.495	1504.029	1509.890	-0.489	-0.473	-0.794	-6.124	0.000	8.191
217176.666	NaN	-3.467	1.804	9.207	1505.495	1503.297	1509.890	-0.519	-0.412	-0.473	-6.201	0.077	8.115
217177.643	NaN	-3.467	1.815	9.217	1504.762	1504.029	1509.158	-0.611	-0.458	-0.763	-6.201	0.077	7.962
217178.619	NaN	-3.478	1.826	9.228	1506.227	1504.029	1509.890	-0.733	-0.565	-0.962	-6.201	0.000	8.191
217179.596	NaN	-3.478	1.826	9.228	1505.495	1504.029	1510.623	-0.626	-0.519	-0.809	-6.278	0.077	8.191
217180.573	NaN	-3.478	1.815	9.217	1505.495	1504.762	1511.355	-0.489	-0.412	-0.702	-6.201	0.000	8.115
217181.549	NaN	-3.478	1.815	9.217	1506.960	1504.029	1510.623	-0.580	-0.489	-0.840	-6.124	0.000	8.115
217182.526	NaN	-3.489	1.804	9.217	1506.960	1504.762	1509.890	-0.412	-0.641	-0.931	-6.278	-0.077	8.268
217183.502	NaN	-3.489	1.793	9.239	1504.762	1504.029	1509.158	-0.489	-0.626	-0.779	-6.201	-0.077	8.115
217184.479	NaN	-3.467	1.815	9.250	1504.762	1504.029	1509.158	-0.489	-0.366	-0.626	-6.201	0.077	8.038
217185.455	NaN	-3.467	1.815	9.239	1506.227	1504.029	1509.158	-0.153	-0.366	-0.702	-6.048	0.000	8.191
217186.432	NaN	-3.489	1.793	9.239	1505.495	1504.762	1508.425	-0.305	-0.595	-0.718	-6.278	0.000	8.038
217187.408	NaN	-3.467	1.793	9.228	1506.960	1504.762	1510.623	-0.473	-0.672	-0.748	-6.278	0.000	8.191
217188.385	NaN	-3.467	1.793	9.217	1506.227	1504.762	1510.623	-0.595	-0.534	-0.748	-6.201	-0.153	8.191
217189.362	NaN	-3.478	1.793	9.217	1504.762	1504.762	1510.623	-0.611	-0.550	-0.809	-6.278	0.153	8.191
217190.338	NaN	-3.478	1.815	9.239	1506.227	1504.029	1507.692	-0.656	-0.473	-0.748	-6.278	-0.077	8.115
217191.315	NaN	-3.478	1.804	9.239	1505.495	1503.297	1509.890	-0.504	-0.595	-0.550	-6.201	-0.153	8.038
217192.291	NaN	-3.478	1.815	9.250	1506.227	1504.762	1510.623	-0.366	-0.748	-0.641	-6.354	0.077	8.191
217193.268	NaN	-3.489	1.793	9.250	1506.227	1503.297	1510.623	-0.489	-0.534	-0.733	-6.278	0.000	8.268
217194.244	NaN	-3.489	1.793	9.272	1504.029	1503.297	1508.425	-0.504	-0.550	-0.733	-6.354	0.000	8.191
217195.221	NaN	-3.489	1.804	9.272	1505.495	1504.029	1510.623	-0.336	-0.504	-0.855	-6.124	0.077	8.115
217196.198	NaN	-3.500	1.793	9.261	1505.495	1504.762	1510.623	-0.244	-0.672	-0.748	-6.201	0.000	8.268
217197.174	NaN	-3.500	1.793	9.272	1506.227	1504.029	1511.355	-0.427	-0.748	-0.840	-6.201	0.077	8.191
217198.151	NaN	-3.500	1.783	9.272	1505.495	1503.297	1509.158	-0.611	-0.763	-0.977	-6.201	1.072	8.191
217199.127	NaN	-3.511	1.783	9.272	1504.762	1503.297	1509.158	-0.687	-0.641	-0.855	-6.201	-0.077	8.038
217200.104	NaN	-3.522	1.793	9.272	1505.495	1503.297	1509.890	-0.687	-0.534	-0.641	-6.278	0.000	8.038
217201.080	NaN	-3.522	1.793	9.272	1506.227	1504.762	1510.623	-0.672	-0.427	-0.656	-6.201	0.000	8.191
217202.057	NaN	-3.511	1.804	9.261	1505.495	1504.029	1510.623	-0.489	-0.595	-0.656	-6.201	0.077	8.191
217203.033	NaN	-3.500	1.804	9.250	1506.227	1504.029	1509.890	-0.458	-0.718	-0.687	-6.124	-0.077	8.268
217204.010	NaN	-3.500	1.793	9.250	1506.227	1503.297	1509.890	-0.565	-0.565	-0.687	-6.278	0.077	8.268
217204.987	NaN	-3.500	1.783	9.261	1505.495	1504.762	1510.623	-0.443	-0.382	-0.794	-6.124	-0.153	8.191
217205.963	NaN	-3.500	1.793	9.283	1505.495	1504.762	1510.623	-0.443	-0.458	-0.977	-6.201	-0.077	8.268
217206.940	NaN	-3.489	1.793	9.283	1506.227	1504.029	1510.623	-0.672	-0.519	-0.916	-6.354	0.000	8.038
217207.916	NaN	-3.500	1.793	9.283	1506.227	1504.029	1510.623	-0.534	-0.672	-0.809	-6.124	0.000	8.344
217208.893	NaN	-3.500	1.793	9.283	1505.495	1504.029	1509.158	-0.458	-0.656	-0.794	-6.124	0.000	8.268
217209.869	NaN	-3.489	1.815	9.283	1503.297	1505.495	1510.623	-0.321	-0.656	-0.947	-6.354	-0.153	8.268
217210.846	NaN	-3.489	1.815	9.283	1506.960	1504.762	1509.890	-0.321	-0.687	-0.977	-6.201	0.000	8.191
217211.823	NaN	-3.489	1.815	9.272	1505.495	1504.029	1509.158	-0.305	-0.718	-0.809	-6.278	0.077	8.191
217212.799	NaN	-3.489	1.815	9.261	1505.495	1504.029	1509.890	-0.290	-0.672	-0.718	-6.354	0.000	8.191
217213.776	NaN	-3.478	1.837	9.272	1505.495	1504.029	1509.890	-0.550	-0.687	-0.641	-6.201	-0.077	8.191
217214.752	NaN	-3.478	1.826	9.272	1506.227	1504.029	1511.355	-0.672	-0.656	-0.779	-6.201	-0.153	8.115
217215.729	NaN	-3.489	1.815	9.272	1505.495	1503.297	1510.623	-0.626	-0.611	-0.901	-6.201	0.000	8.038
217216.705	NaN	-3.489	1.815	9.261	1506.227	1504.029	1509.890	-0.504	-0.550	-0.962	-6.201	0.000	8.038
217217.682	NaN	-3.500	1.815	9.272	1505.495	1501.832	1509.890	-0.519	-0.534	-0.824	-6.278	0.000	8.191
217218.658	NaN	-3.489	1.815	9.272	1506.227	1504.029	1510.623	-0.565	-0.626	-0.855	-6.124	-0.153	8.344
217219.635	NaN	-3.489	1.804	9.272	1506.227	1504.029	1510.623	-0.489	-0.672	-0.916	-6.354	-0.077	8.191
217220.612	NaN	-3.489	1.793	9.272	1505.495	1504.029	1509.158	-0.412	-0.809	-0.687	-6.124	0.000	8.268
217221.588	NaN	-3.489	1.793	9.272	1506.227	1504.029	1509.158	-0.412	-0.809	-0.718	-6.354	0.000	8.115
217222.565	NaN	-3.489	1.804	9.261	1506.227	1505.495	1510.623	-0.626	-0.611	-0.931	-6.201	-0.077	8.268
217223.541	NaN	-3.478	1.804	9.250	1505.495	1505.495	1510.623	-0.779	-0.595	-0.947	-6.278	0.000	8.268
217224.518	NaN	-3.478	1.793	9.261	1504.762	1504.029	1510.623	-0.473	-0.870	-0.763	-6.201	0.000	8.115
217225.494	NaN	-3.478	1.804	9.261	1506.227	1504.029	1510.623	-0.412	-0.794	-0.702	-5.971	0.153	8.038
217226.471	NaN	-3.467	1.793	9.250	1506.227	1504.029	1509.890	-0.412	-0.595	-0.718	-6.201	-0.153	8.191
217227.448	NaN	-3.467	1.804	9.239	1506.960	1504.762	1509.890	-0.580	-0.656	-0.733	-6.124	0.000	8.038
217228.424	NaN	-3.478	1.793	9.228	1506.227	1504.029	1509.158	-0.840	-0.611	-0.687	-6.201	-0.153	8.268
217229.401	NaN	-3.478	1.783	9.250	1504.762	1503.297	1509.158	-0.794	-0.580	-0.611	-6.124	-0.077	8.038
217230.377	NaN	-3.457	1.793	9.261	1504.762	1504.029	1509.158	-0.611	-0.595	-0.656	-6.278	-0.077	8.115
217231.354	NaN	-3.457	1.783	9.228	1506.227	1504.029	1509.890	-0.550	-0.641	-0.794	-6.201	0.000	8.115
217232.330	NaN	-3.457	1.793	9.228	1504.762	1503.297	1509.158	-0.580	-0.580	-0.947	-6.201	0.000	8.115
217233.307	NaN	-3.446	1.793	9.239	1505.495	1502.564	1509.890	-0.504	-0.412	-1.008	-6.048	-0.153	8.191
217234.283	NaN	-3.446	1.804	9.217	1505.495	1504.762	1509.890	-0.489	-0.458	-0.763	-6.124	0.077	8.191
217235.260	NaN	-3.457	1.804	9.207	1504.762	1503.297	1509.158	-0.412	-0.794	-0.641	-6.201	0.000	8.115
217236.237	NaN	-3.457	1.804	9.217	1504.029	1504.029	1509.158	-0.519	-0.855	-0.550	-6.278	0.077	8.115
217237.213	NaN	-3.457	1.815	9.207	1505.495	1504.762	1510.623	-0.672	-0.870	-0.626	-6.048	0.000	8.191
217238.190	NaN	-3.457	1.804	9.207	1505.495	1504.762	1510.623	-0.962	-0.809	-0.809	-6.201	-0.077	8.038
217239.166	NaN	-3.467	1.804	9.207	1506.227	1504.029	1510.623	-0.824	-0.779	-0.885	-6.048	0.000	8.115
217240.143	NaN	-3.467	1.793	9.207	1504.762	1504.029	1509.890	-0.611	-0.855	-0.794	-6.201	0.077	8.038
217241.119	NaN	-3.457	1.793	9.207	1505.495	1504.029	1509.158	-0.733	-0.794	-0.901	-6.048	0.000	8.038
217242.096	NaN	-3.435	1.804	9.196	1505.495	1504.762	1509.890	-0.885	-0.611	-0.992	-6.201	0.000	8.115
217243.073	NaN	-3.424	1.804	9.196	1506.227	1503.297	1509.890	-0.779	-0.641	-0.947	-6.124	0.000	8.268
217244.049	NaN	-3.435	1.804	9.174	1504.762	1504.029	1509.890	-0.611	-0.702	-0.840	-6.201	0.000	8.115
217245.026	NaN	-3.435	1.793	9.174	1504.762	1504.762	1509.890	-0.595	-0.718	-0.794	-6.124	0.000	8.115
217246.002	NaN	-3.424	1.804	9.185	1505.495	1504.762	1511.355	-0.656	-0.641	-0.870	-6.278	0.000	8.115
217249.908	NaN	-3.435	1.804	9.185	1504.762	1504.762	1509.890	-0.595	-0.748	-0.672	-6.124	0.000	8.191
217250.885	NaN	-3.435	1.793	9.185	1505.495	1504.029	1509.890	-0.611	-0.656	-0.779	-6.124	-0.153	8.115
217251.862	NaN	-3.435	1.793	9.185	1504.762	1504.029	1512.088	-0.656	-0.779	-0.763	-6.201	-0.077	8.115
217252.838	NaN	-3.424	1.804	9.185	1504.762	1504.029	1509.158	-0.550	-0.931	-0.824	-6.048	0.000	8.115
217253.815	NaN	-3.435	1.793	9.174	1504.762	1504.029	1509.158	-0.382	-0.885	-0.733	-6.048	0.000	8.115
217254.791	NaN	-3.424	1.804	9.185	1505.495	1504.762	1510.623	-0.504	-0.870	-0.977	-5.971	0.000	8.191
217255.768	NaN	-3.435	1.793	9.196	1506.227	1503.297	1509.890	-0.870	-0.733	-0.992	-6.048	0.000	8.115
217256.744	NaN	-3.435	1.804	9.207	1504.762	1503.297	1506.960	-0.885	-0.687	-0.809	-6.124	0.000	8.268
217257.721	NaN	-3.435	1.804	9.207	1506.227	1502.564	1509.158	-0.840	-0.855	-0.672	-6.201	0.000	8.038
217258.698	NaN	-3.435	1.793	9.196	1504.762	1504.029	1508.425	-0.656	-0.931	-0.641	-6.048	-0.153	7.962
217259.674	NaN	-3.435	1.793	9.196	1505.495	1504.762	1511.355	-0.580	-0.748	-0.656	-6.201	-0.077	8.038
217260.651	NaN	-3.446	1.783	9.196	1505.495	1504.762	1508.425	-0.504	-0.641	-0.718	-6.124	-0.077	8.115
217261.627	NaN	-3.446	1.793	9.196	1506.227	1504.762	1509.158	-0.672	-0.702	-0.672	-6.201	-0.077	8.115
217262.604	NaN	-3.446	1.793	9.196	1504.762	1504.029	1509.158	-0.794	-0.672	-0.779	-6.048	-0.077	8.268
217263.580	NaN	-3.435	1.804	9.196	1504.762	1505.495	1509.890	-0.626	-0.809	-0.641	-6.048	0.077	8.038
217264.557	NaN	-3.435	1.815	9.185	1505.495	1504.762	1510.623	-0.519	-0.840	-0.794	-6.124	-0.077	8.191
217265.533	NaN	-3.435	1.815	9.185	1504.762	1504.029	1509.890	-0.580	-0.733	-0.855	-6.048	0.077	8.191
217266.510	NaN	-3.446	1.804	9.196	1504.762	1502.564	1508.425	-0.687	-0.489	-0.855	-6.201	-0.077	8.038
217267.487	NaN	-3.446	1.804	9.185	1505.495	1504.762	1509.890	-0.611	-0.504	-0.794	-6.124	0.000	8.038
217268.463	NaN	-3.435	1.804	9.185	1506.227	1504.762	1510.623	-0.641	-0.443	-0.733	-6.124	0.000	8.115
217269.440	NaN	-3.446	1.783	9.185	1504.762	1503.297	1509.158	-0.427	-0.611	-0.595	-6.201	0.000	8.115
217270.416	NaN	-3.435	1.783	9.174	1504.029	1503.297	1509.890	-0.458	-0.885	-0.595	-6.048	-0.077	8.268
217271.393	NaN	-3.446	1.793	9.185	1504.762	1504.029	1509.158	-0.504	-1.008	-0.870	-6.124	-0.077	8.038
217272.369	NaN	-3.424	1.793	9.174	1505.495	1504.029	1509.158	-0.504	-0.885	-0.870	-6.124	-0.077	8.038
217273.346	NaN	-3.435	1.804	9.185	1504.762	1504.762	1509.890	-0.611	-0.870	-0.855	-6.124	0.077	8.038
217274.323	NaN	-3.435	1.815	9.185	1504.762	1504.029	1510.623	-0.855	-0.748	-0.885	-6.201	0.000	8.038
217275.299	NaN	-3.435	1.815	9.185	1502.564	1504.029	1508.425	-0.824	-0.794	-0.885	-6.124	-0.153	8.191
217276.276	NaN	-3.446	1.815	9.196	1506.227	1504.762	1509.158	-0.702	-0.885	-0.901	-6.201	-0.077	8.115
217277.252	NaN	-3.457	1.815	9.196	1505.495	1504.762	1510.623	-0.595	-0.840	-0.855	-6.124	-0.077	8.115
217278.229	NaN	-3.457	1.826	9.196	1506.227	1504.029	1510.623	-0.595	-0.809	-0.885	-6.201	0.077	8.038
217279.205	NaN	-3.457	1.815	9.207	1505.495	1504.762	1509.890	-0.672	-0.733	-0.809	-6.278	0.153	8.115
217280.182	NaN	-3.457	1.804	9.196	1504.762	1503.297	1508.425	-0.733	-0.626	-0.763	-6.048	0.077	8.268
217281.158	NaN	-3.446	1.804	9.196	1503.297	1503.297	1509.890	-0.672	-0.779	-0.702	-6.124	0.077	8.115
217282.135	NaN	-3.435	1.815	9.207	1506.227	1504.029	1511.355	-0.565	-0.962	-0.824	-6.124	0.077	8.268
217283.112	NaN	-3.457	1.804	9.196	1505.495	1504.762	1510.623	-0.672	-0.824	-0.794	-6.124	0.000	8.191
217284.088	NaN	-3.457	1.815	9.196	1504.762	1502.564	1509.158	-0.824	-0.626	-0.855	-6.124	-0.077	8.191
217285.065	NaN	-3.467	1.804	9.207	1504.762	1504.029	1510.623	-0.702	-0.611	-0.855	-6.124	-0.077	8.115
217286.041	NaN	-3.457	1.815	9.217	1504.029	1504.762	1510.623	-0.458	-0.595	-0.840	-6.201	0.077	8.115
217287.018	NaN	-3.457	1.804	9.228	1506.227	1504.762	1509.158	-0.412	-0.656	-0.901	-5.971	0.077	8.191
217287.994	NaN	-3.457	1.815	9.217	1506.227	1504.029	1509.890	-0.565	-0.702	-0.870	-4.976	-0.077	8.115
217288.971	NaN	-3.457	1.804	9.228	1505.495	1504.762	1509.890	-0.672	-0.809	-0.763	-6.278	-0.077	8.115
217289.948	NaN	-3.457	1.826	9.228	1506.227	1504.029	1509.890	-0.550	-0.916	-0.580	-5.971	0.077	8.038
217290.924	NaN	-3.446	1.804	9.228	1505.495	1504.029	1509.158	-0.550	-0.855	-0.534	-6.124	0.000	8.038
217291.901	NaN	-3.435	1.815	9.228	1504.762	1504.762	1509.158	-0.702	-0.718	-0.702	-6.201	-0.077	8.115
217292.877	NaN	-3.457	1.815	9.228	1505.495	1504.029	1509.890	-0.885	-0.656	-0.916	-6.124	-0.077	8.191
217293.854	NaN	-3.467	1.804	9.217	1505.495	1503.297	1509.158	-0.794	-0.672	-0.977	-6.354	-0.077	8.191
217294.830	NaN	-3.467	1.804	9.228	1506.960	1504.029	1510.623	-0.763	-0.779	-0.901	-7.349	-0.077	8.038
217295.807	NaN	-3.467	1.815	9.239	1505.495	1504.762	1509.158	-0.672	-0.702	-0.840	-6.201	-0.077	8.268
217296.783	NaN	-3.457	1.815	9.239	1506.960	1503.297	1510.623	-0.672	-0.794	-0.931	-6.201	0.000	8.115
217297.760	NaN	-3.457	1.815	9.250	1506.960	1503.297	1510.623	-0.595	-0.779	-0.992	-6.124	0.000	8.191
217298.737	NaN	-3.467	1.815	9.250	1504.762	1504.762	1510.623	-0.443	-1.008	-0.855	-6.278	-0.077	8.191
217299.713	NaN	-3.467	1.815	9.261	1506.227	1504.029	1509.890	-0.733	-1.023	-0.687	-6.048	-0.077	8.268
217300.690	NaN	-3.478	1.804	9.250	1504.762	1503.297	1509.890	-0.763	-0.901	-0.718	-6.124	-0.153	8.191
217301.666	NaN	-3.478	1.793	9.272	1505.495	1503.297	1509.890	-0.687	-0.824	-0.809	-6.201	-1.148	8.115
217302.643	NaN	-3.478	1.804	9.261	1506.227	1504.029	1511.355	-0.611	-0.794	-0.626	-6.354	0.000	8.268
217303.619	NaN	-3.478	1.815	9.261	1505.495	1504.762	1511.355	-0.702	-0.763	-0.611	-6.124	0.000	8.191
217304.596	NaN	-3.478	1.815	9.261	1506.227	1503.297	1509.890	-0.626	-0.794	-0.718	-6.124	0.077	8.268
217305.573	NaN	-3.500	1.804	9.272	1504.762	1504.029	1509.890	-0.427	-0.687	-0.870	-6.201	-0.153	8.191
217306.549	NaN	-3.500	1.804	9.283	1505.495	1504.029	1509.158	-0.504	-0.702	-0.733	-6.124	0.000	8.191
217307.526	NaN	-3.500	1.815	9.272	1506.227	1504.029	1509.890	-0.534	-0.702	-0.824	-6.201	0.000	8.268
217312.408	NaN	-3.500	1.783	9.304	1506.960	1504.762	1510.623	-0.565	-0.733	-0.733	-6.278	0.000	8.268
217313.385	NaN	-3.511	1.783	9.304	1506.227	1504.029	1509.890	-0.656	-0.580	-0.534	-6.201	-0.077	8.115
217314.362	NaN	-3.500	1.783	9.304	1505.495	1504.029	1509.158	-0.641	-0.641	-0.489	-6.201	0.000	8.268
217315.338	NaN	-3.511	1.793	9.304	1504.029	1504.029	1509.158	-0.702	-0.626	-0.748	-6.278	0.000	8.115
217316.315	NaN	-3.500	1.793	9.315	1506.960	1503.297	1511.355	-0.565	-0.626	-0.885	-6.278	-0.077	8.268
217317.291	NaN	-3.489	1.804	9.315	1504.762	1504.029	1511.355	-0.473	-0.687	-0.809	-6.278	-0.077	8.115
217318.268	NaN	-3.500	1.815	9.315	1505.495	1504.029	1509.158	-0.473	-0.641	-0.595	-6.048	0.000	8.038
217319.244	NaN	-3.511	1.804	9.315	1505.495	1504.029	1509.158	-0.427	-0.656	-0.473	-6.354	0.000	8.191
217320.221	NaN	-3.489	1.804	9.326	1505.495	1504.029	1510.623	-0.702	-0.702	-0.550	-6.278	-0.077	8.268
217321.198	NaN	-3.500	1.815	9.315	1506.227	1504.762	1511.355	-0.885	-0.565	-0.641	-6.354	-0.077	8.344
217322.174	NaN	-3.500	1.804	9.315	1505.495	1504.762	1510.623	-0.733	-0.565	-0.718	-6.124	-0.153	8.191
217323.151	NaN	-3.489	1.815	9.304	1505.495	1504.029	1510.623	-0.198	-0.672	-0.656	-6.124	0.000	8.115
217324.127	NaN	-3.500	1.804	9.283	1505.495	1504.029	1508.425	-0.275	-0.351	-0.565	-6.124	0.153	8.191
217325.104	NaN	-3.500	1.804	9.272	1504.762	1503.297	1509.158	-0.473	-0.427	-0.519	-6.201	0.000	8.191
217326.080	NaN	-3.500	1.815	9.293	1506.227	1504.029	1509.890	-0.641	-0.595	-0.672	-6.278	-0.077	8.268
217327.057	NaN	-3.500	1.815	9.293	1505.495	1504.029	1510.623	-0.672	-0.626	-0.748	-7.273	0.077	8.191
217328.033	NaN	-3.500	1.815	9.293	1505.495	1503.297	1509.890	-0.366	-0.595	-0.672	-6.278	0.153	8.115
217329.010	NaN	-3.489	1.815	9.272	1506.227	1503.297	1509.890	-0.366	-0.534	-0.702	-6.201	0.000	8.115
217329.987	NaN	-3.467	1.815	9.261	1506.227	1504.762	1509.890	-0.672	-0.336	-0.779	-6.278	-0.077	8.191
217330.963	NaN	-3.457	1.804	9.261	1505.495	1504.762	1509.890	-0.855	-0.153	-0.824	-6.124	0.000	8.191
217331.940	NaN	-3.467	1.804	9.261	1506.227	1503.297	1509.890	-0.656	-0.366	-0.763	-6.124	-0.077	7.962
217332.916	NaN	-3.467	1.793	9.250	1505.495	1503.297	1509.158	-0.580	-0.519	-0.763	-6.124	-0.077	8.191
217333.893	NaN	-3.467	1.793	9.228	1505.495	1504.762	1510.623	-0.611	-0.580	-0.626	-6.278	-0.077	8.115
217334.869	NaN	-3.457	1.793	9.217	1506.227	1504.762	1509.158	-0.611	-0.687	-0.702	-6.124	0.077	8.191
217335.846	NaN	-3.457	1.793	9.217	1504.762	1504.762	1509.158	-0.702	-0.702	-0.763	-6.201	-0.077	8.115
217336.823	NaN	-3.457	1.783	9.228	1505.495	1504.029	1509.890	-0.840	-0.458	-0.580	-6.048	-0.077	8.038
217337.799	NaN	-3.446	1.783	9.217	1506.227	1504.762	1509.158	-0.840	-0.321	-0.489	-6.048	-0.153	8.038
217338.776	NaN	-3.446	1.783	9.207	1505.495	1504.762	1509.158	-0.794	-0.244	-0.534	-6.124	0.077	7.962
217339.752	NaN	-3.435	1.793	9.207	1506.960	1504.029	1510.623	-0.779	-0.366	-0.733	-6.124	-0.077	8.115
217340.729	NaN	-3.446	1.793	9.196	1505.495	1504.029	1509.890	-0.550	-0.489	-0.840	-6.048	-0.077	8.038
217341.705	NaN	-3.446	1.783	9.196	1506.227	1504.762	1509.890	-0.595	-0.427	-0.779	-6.201	0.077	8.115
217342.682	NaN	-3.467	1.783	9.196	1505.495	1504.029	1511.355	-0.870	-0.443	-0.763	-6.124	0.000	8.115
217343.658	NaN	-3.457	1.793	9.185	1505.495	1504.762	1511.355	-0.931	-0.595	-0.748	-6.201	0.000	8.115
217344.635	NaN	-3.446	1.793	9.174	1507.692	1504.029	1510.623	-0.702	-0.489	-0.595	-6.124	0.000	8.191
217345.612	NaN	-3.435	1.793	9.174	1506.227	1504.029	1509.158	-0.580	-0.595	-0.748	-6.124	0.000	8.038
217346.588	NaN	-3.435	1.793	9.185	1505.495	1504.029	1509.890	-0.611	-0.580	-0.855	-6.124	0.000	8.115
217347.565	3736847127.141	-3.446	1.783	9.174	1505.495	1503.297	1509.158	-0.748	-0.519	-0.656	-6.048	0.000	8.191
217348.541	NaN	-3.424	1.783	9.185	1505.495	1504.762	1511.355	-0.748	-0.412	-0.641	-6.048	-0.077	8.115
217349.518	NaN	-3.424	1.793	9.185	1506.227	1504.762	1511.355	-0.687	-0.489	-0.504	-6.048	0.000	8.038
217350.494	NaN	-3.424	1.793	9.174	1504.029	1504.762	1511.355	-0.733	-0.672	-0.626	-6.048	0.000	8.191
217351.471	NaN	-3.424	1.804	9.185	1504.762	1504.762	1509.890	-0.656	-0.534	-0.611	-6.278	0.077	8.115
217352.448	NaN	-3.424	1.815	9.185	1506.227	1504.029	1510.623	-0.595	-0.534	-0.458	-6.124	0.000	8.038
217353.424	NaN	-3.424	1.815	9.174	1505.495	1504.762	1510.623	-0.870	-0.473	-0.611	-6.201	-0.153	7.962
217354.401	NaN	-3.413	1.804	9.163	1505.495	1503.297	1509.890	-0.809	-0.397	-0.947	-6.048	0.000	7.885
217355.377	NaN	-3.413	1.793	9.163	1504.029	1503.297	1509.890	-0.504	-0.366	-0.794	-6.201	-0.153	8.115
217356.354	NaN	-3.424	1.793	9.163	1504.029	1503.297	1509.890	-0.504	-0.458	-0.748	-6.124	-0.077	8.038
217357.330	NaN	-3.424	1.793	9.174	1504.029	1504.029	1509.158	-0.687	-0.489	-0.901	-6.124	0.000	8.038
217358.307	NaN	-3.435	1.783	9.163	1504.029	1503.297	1510.623	-0.656	-0.489	-0.779	-6.124	-0.077	8.115
217359.283	NaN	-3.435	1.783	9.152	1504.762	1503.297	1509.158	-0.687	-0.519	-0.580	-4.976	0.077	8.038
217360.260	NaN	-3.424	1.783	9.152	1505.495	1503.297	1510.623	-0.824	-0.427	-0.351	-6.124	0.077	8.115
217361.237	NaN	-3.424	1.783	9.152	1504.029	1503.297	1509.890	-0.733	-0.443	-0.504	-6.124	0.000	8.038
217362.213	NaN	-3.424	1.783	9.152	1503.297	1503.297	1509.890	-0.580	-0.382	-0.733	-6.201	0.000	7.962
217363.190	NaN	-3.413	1.793	9.163	1504.762	1504.029	1509.158	-0.397	-0.489	-0.733	-6.124	0.000	8.191
217364.166	NaN	-3.424	1.793	9.152	1503.297	1503.297	1510.623	-0.382	-0.412	-0.595	-6.124	0.000	8.038
217365.143	NaN	-3.435	1.793	9.152	1504.029	1503.297	1509.890	-0.489	-0.504	-0.580	-6.124	0.077	8.115
217366.119	NaN	-3.446	1.804	9.163	1504.029	1503.297	1508.425	-0.504	-0.580	-0.565	-6.124	-1.148	8.115
217367.096	NaN	-3.424	1.815	9.174	1504.762	1504.762	1509.890	-0.626	-0.473	-0.611	-6.201	-0.153	8.115
217368.073	NaN	-3.413	1.804	9.174	1504.762	1504.029	1508.425	-0.809	-0.489	-0.763	-6.201	0.077	8.115
217369.049	NaN	-3.413	1.804	9.185	1504.762	1504.762	1509.158	-1.023	-0.580	-0.763	-6.124	0.077	8.115
217370.026	NaN	-3.424	1.804	9.174	1505.495	1504.762	1509.158	-0.870	-0.580	-0.641	-6.201	0.153	7.962
217371.002	NaN	-3.424	1.804	9.185	1503.297	1503.297	1510.623	-0.519	-0.595	-0.397	-6.048	-0.077	7.885
217371.979	NaN	-3.424	1.804	9.185	1503.297	1504.029	1509.158	-0.519	-0.641	-0.519	-6.124	0.000	8.115
217372.955	NaN	-3.424	1.815	9.196	1506.227	1504.029	1511.355	-0.565	-0.443	-0.641	-6.201	0.077	8.115
217373.932	NaN	-3.435	1.804	9.207	1504.762	1503.297	1510.623	-0.519	-0.504	-0.641	-5.971	-0.077	8.115
217374.908	NaN	-3.424	1.815	9.217	1506.960	1504.029	1509.158	-0.763	-0.504	-0.534	-6.201	0.000	8.038
217375.885	NaN	-3.435	1.804	9.217	1504.029	1504.762	1509.890	-0.718	-0.489	-0.580	-6.201	-0.077	8.115
217376.862	NaN	-3.457	1.804	9.207	1505.495	1504.762	1509.890	-0.641	-0.489	-0.672	-6.278	-0.077	8.268
217377.838	NaN	-3.446	1.804	9.217	1504.029	1504.762	1509.890	-0.504	-0.412	-0.763	-6.124	0.077	8.115
217378.815	NaN	-3.457	1.804	9.207	1506.960	1503.297	1509.158	-0.504	-0.595	-0.794	-6.201	0.077	8.191
217379.791	NaN	-3.467	1.804	9.217	1505.495	1503.297	1509.158	-0.534	-0.656	-0.779	-6.124	0.077	8.191
217380.768	NaN	-3.457	1.815	9.228	1506.227	1504.762	1509.158	-0.473	-0.702	-0.656	-6.124	0.000	7.962
217381.744	NaN	-3.446	1.804	9.217	1505.495	1504.762	1509.890	-0.565	-0.565	-0.580	-6.201	0.077	8.191
217382.721	NaN	-3.446	1.793	9.228	1506.227	1504.029	1509.158	-0.733	-0.611	-0.366	-6.048	-0.077	8.115
217383.698	NaN	-3.457	1.793	9.217	1505.495	1504.029	1509.158	-0.580	-0.656	-0.397	-6.201	0.000	8.115
217384.674	NaN	-3.435	1.815	9.239	1505.495	1504.029	1510.623	-0.366	-0.641	-0.489	-6.048	-0.077	8.038
217385.651	NaN	-3.446	1.804	9.239	1506.227	1503.297	1509.890	-0.427	-0.519	-0.427	-6.124	0.000	8.268
217386.627	NaN	-3.446	1.793	9.239	1506.227	1504.029	1511.355	-0.656	-0.534	-0.412	-6.201	0.000	8.038
217387.604	NaN	-3.446	1.783	9.250	1504.762	1504.029	1509.158	-0.702	-0.595	-0.443	-6.278	-0.077	8.115
217388.580	NaN	-3.446	1.793	9.250	1506.960	1504.029	1509.890	-0.397	-0.779	-0.504	-6.124	-0.077	8.191
217389.557	NaN	-3.446	1.804	9.261	1506.227	1504.029	1509.890	-0.427	-0.626	-0.336	-6.201	0.077	8.115
217390.533	NaN	-3.457	1.804	9.261	1505.495	1503.297	1509.890	-0.458	-0.366	-0.412	-6.048	-0.077	8.344
217391.510	NaN	-3.457	1.793	9.250	1504.762	1504.029	1509.158	-0.305	-0.321	-0.519	-6.124	0.077	8.191
217392.487	NaN	-3.467	1.793	9.250	1506.227	1504.762	1509.890	-0.214	-0.382	-0.626	-6.201	-0.153	8.115
217393.463	NaN	-3.467	1.815	9.250	1506.227	1504.762	1511.355	-0.366	-0.473	-0.611	-6.201	0.153	8.115
217394.440	NaN	-3.467	1.804	9.250	1506.960	1504.029	1509.890	-0.565	-0.519	-0.519	-6.201	0.077	8.191
217395.416	NaN	-3.467	1.804	9.250	1506.227	1504.029	1510.623	-0.672	-0.641	-0.504	-6.048	-0.077	8.344
217396.393	NaN	-3.478	1.793	9.250	1506.227	1503.297	1509.890	-0.641	-0.534	-0.458	-6.048	0.000	8.191
217397.369	NaN	-3.467	1.804	9.261	1506.227	1504.762	1510.623	-0.427	-0.443	-0.443	-6.201	0.000	8.344
217398.346	NaN	-3.489	1.804	9.261	1506.227	1504.762	1509.890	-0.382	-0.473	-0.656	-6.201	0.000	8.268
217399.323	NaN	-3.500	1.793	9.261	1505.495	1504.762	1508.425	-0.763	-0.550	-0.672	-6.278	-0.077	8.191
217400.299	NaN	-3.489	1.804	9.272	1504.762	1503.297	1509.158	-0.794	-0.489	-0.687	-6.048	-0.153	8.191
217401.276	NaN	-3.489	1.793	9.272	1506.227	1504.762	1509.890	-0.855	-0.534	-0.794	-6.201	0.000	8.268
217402.252	NaN	-3.478	1.793	9.283	1506.227	1504.762	1510.623	-0.580	-0.489	-0.794	-6.201	-0.077	8.191
217403.229	NaN	-3.478	1.783	9.283	1505.495	1503.297	1509.890	-0.412	-0.565	-0.641	-6.201	0.077	8.115
217404.205	NaN	-3.467	1.793	9.272	1505.495	1504.029	1509.890	-0.611	-0.473	-0.519	-6.201	-0.153	8.191
217405.182	NaN	-3.489	1.783	9.272	1504.762	1504.029	1509.890	-0.580	-0.534	-0.427	-6.201	-0.077	8.115
217406.158	NaN	-3.478	1.793	9.272	1506.960	1504.029	1509.158	-0.458	-0.397	-0.443	-6.201	-0.077	8.191
217407.135	NaN	-3.478	1.783	9.261	1505.495	1504.029	1509.890	-0.443	-0.397	-0.534	-6.201	0.153	8.115
217408.112	NaN	-3.467	1.804	9.272	1505.495	1504.029	1511.355	-0.733	-0.412	-0.443	-6.124	0.000	8.191
217409.088	NaN	-3.478	1.793	9.272	1504.762	1504.029	1509.890	-0.611	-0.473	-0.504	-6.048	0.000	8.191
217410.065	NaN	-3.489	1.793	9.272	1506.227	1504.029	1509.890	-0.565	-0.550	-0.336	-6.124	0.077	8.191
217411.041	NaN	-3.489	1.804	9.283	1506.227	1504.762	1511.355	-0.550	-0.504	-0.382	-6.201	0.000	8.344
217412.018	NaN	-3.489	1.804	9.293	1506.227	1503.297	1510.623	-0.489	-0.519	-0.443	-6.124	-0.077	8.191
217412.994	NaN	-3.500	1.804	9.293	1505.495	1504.762	1509.890	-0.656	-0.412	-0.718	-6.354	-0.077	8.191
217413.971	NaN	-3.511	1.804	9.293	1505.495	1504.762	1508.425	-0.641	-0.458	-0.733	-6.201	-0.077	8.191
217414.948	NaN	-3.511	1.804	9.283	1504.762	1503.297	1510.623	-0.489	-0.550	-0.611	-6.124	-0.077	8.268
217415.924	NaN	-3.489	1.804	9.293	1506.227	1504.762	1509.890	-0.519	-0.443	-0.595	-6.201	0.000	8.191
217416.901	NaN	-3.489	1.804	9.283	1505.495	1504.029	1509.890	-0.763	-0.412	-0.641	-7.349	0.000	8.038
217417.877	NaN	-3.489	1.804	9.283	1506.227	1503.297	1509.890	-0.702	-0.214	-0.580	-6.201	-0.153	8.191
217418.854	NaN	-3.489	1.804	9.283	1505.495	1504.029	1510.623	-0.489	-0.183	-0.565	-6.201	-0.077	8.344
217419.830	NaN	-3.478	1.815	9.283	1506.227	1504.762	1511.355	-0.534	-0.397	-0.565	-6.201	0.000	8.268
217420.807	NaN	-3.478	1.804	9.283	1506.227	1504.029	1509.890	-0.504	-0.458	-0.611	-6.201	-0.077	8.191
217421.783	NaN	-3.489	1.804	9.283	1504.762	1504.029	1511.355	-0.534	-0.458	-0.687	-6.201	0.077	7.962
217422.760	NaN	-3.489	1.793	9.283	1505.495	1504.029	1510.623	-0.641	-0.305	-0.656	-6.201	-0.077	8.115
217423.737	NaN	-3.500	1.804	9.283	1506.960	1504.762	1510.623	-0.550	-0.321	-0.595	-6.201	0.077	8.115
217424.713	NaN	-3.489	1.804	9.293	1506.227	1504.029	1510.623	-0.458	-0.336	-0.489	-6.201	0.077	8.115
217425.690	NaN	-3.489	1.804	9.293	1505.495	1504.029	1509.158	-0.641	-0.519	-0.565	-6.124	0.000	8.191
217426.666	NaN	-3.489	1.804	9.293	1505.495	1504.029	1510.623	-0.718	-0.519	-0.748	-6.201	0.000	8.191
217427.643	NaN	-3.500	1.804	9.272	1506.227	1504.029	1509.158	-0.748	-0.321	-0.550	-6.201	0.000	8.191
217434.479	NaN	-3.489	1.793	9.250	1506.227	1504.029	1509.890	-0.580	-0.336	-0.534	-6.124	-0.077	8.038
217435.455	NaN	-3.489	1.783	9.261	1505.495	1503.297	1508.425	-0.595	-0.366	-0.489	-6.124	0.000	8.115
217436.432	NaN	-3.467	1.783	9.250	1504.762	1504.762	1509.890	-0.580	-0.382	-0.443	-6.201	0.000	8.191
217437.408	NaN	-3.467	1.793	9.239	1505.495	1503.297	1509.890	-0.611	-0.427	-0.473	-6.201	-0.077	8.038
217438.385	NaN	-3.457	1.804	9.239	1506.227	1503.297	1509.890	-0.763	-0.427	-0.550	-6.201	0.000	8.038
217439.362	NaN	-3.467	1.804	9.228	1505.495	1504.029	1510.623	-0.855	-0.382	-0.534	-6.124	-0.153	8.191
217440.338	NaN	-3.467	1.804	9.228	1505.495	1504.029	1509.890	-0.794	-0.336	-0.580	-6.278	0.000	8.191
217441.315	NaN	-3.467	1.804	9.217	1506.227	1504.762	1509.158	-0.550	-0.443	-0.489	-6.201	-0.153	8.038
217442.291	NaN	-3.457	1.815	9.217	1505.495	1504.029	1509.890	-0.443	-0.443	-0.427	-6.278	-0.153	8.038
217443.268	NaN	-3.467	1.804	9.207	1504.762	1504.762	1509.890	-0.443	-0.473	-0.580	-6.048	-0.077	8.115
217444.244	NaN	-3.467	1.804	9.207	1506.227	1504.762	1509.890	-0.534	-0.611	-0.580	-6.278	0.000	7.962
217445.221	NaN	-3.457	1.804	9.196	1505.495	1504.762	1509.158	-0.702	-0.550	-0.702	-6.201	0.000	8.115
217446.198	NaN	-3.457	1.804	9.207	1506.227	1504.762	1509.158	-0.565	-0.275	-0.687	-6.201	-0.153	8.268
217447.174	NaN	-3.446	1.793	9.207	1504.762	1504.029	1509.890	-0.626	-0.305	-0.412	-6.124	0.000	8.038
217448.151	NaN	-3.424	1.804	9.217	1506.227	1504.029	1510.623	-0.748	-0.382	-0.397	-6.201	0.077	8.038
217449.127	NaN	-3.424	1.804	9.217	1506.227	1504.029	1509.158	-0.702	-0.458	-0.443	-7.196	0.000	8.115
217450.104	NaN	-3.424	1.804	9.217	1506.227	1502.564	1509.890	-0.672	-0.397	-0.443	-6.048	0.000	8.038
217451.080	NaN	-3.435	1.793	9.217	1505.495	1503.297	1509.890	-0.489	-0.412	-0.427	-6.124	-0.153	8.038
217452.057	NaN	-3.413	1.804	9.217	1504.762	1504.762	1509.158	-0.550	-0.351	-0.550	-6.201	-0.077	8.191
217453.033	NaN	-3.413	1.793	9.196	1506.227	1504.762	1509.158	-0.550	-0.366	-0.718	-6.048	0.077	8.115
217454.010	NaN	-3.424	1.793	9.196	1506.227	1504.029	1509.158	-0.550	-0.672	-0.656	-6.278	-0.153	8.038
217454.987	NaN	-3.402	1.793	9.185	1504.029	1504.762	1509.158	-0.748	-0.626	-0.397	-6.278	0.077	7.962
217455.963	NaN	-3.402	1.804	9.174	1505.495	1503.297	1509.158	-0.672	-0.336	-0.458	-7.349	0.000	8.038
217456.940	NaN	-3.413	1.804	9.163	1505.495	1504.762	1510.623	-0.565	-0.214	-0.550	-6.124	-0.077	8.115
217457.916	NaN	-3.413	1.804	9.163	1504.762	1504.029	1509.158	-0.412	-0.397	-0.489	-6.048	0.000	7.962
217458.893	NaN	-3.424	1.804	9.163	1504.029	1504.762	1509.890	-0.427	-0.427	-0.382	-6.201	0.077	8.191
217459.869	NaN	-3.424	1.793	9.163	1504.029	1504.029	1509.158	-0.626	-0.244	-0.443	-6.124	0.077	8.115
217460.846	NaN	-3.413	1.804	9.163	1505.495	1502.564	1509.158	-0.855	-0.290	-0.611	-6.048	0.000	8.115
217461.823	NaN	-3.402	1.804	9.152	1506.227	1504.029	1509.890	-0.870	-0.534	-0.489	-6.048	-0.077	8.038
217462.799	NaN	-3.413	1.804	9.141	1504.029	1504.029	1509.890	-0.733	-0.702	-0.137	-6.201	0.000	8.115
217463.776	NaN	-3.413	1.793	9.141	1505.495	1503.297	1509.890	-0.748	-0.504	-0.183	-6.124	-0.077	8.038
217464.752	NaN	-3.413	1.804	9.152	1505.495	1504.029	1510.623	-0.687	-0.229	-0.504	-5.971	-0.077	8.115
217465.729	NaN	-3.424	1.793	9.152	1503.297	1504.029	1509.890	-0.504	-0.061	-0.580	-6.124	-0.077	8.191
217466.705	NaN	-3.413	1.793	9.163	1504.029	1503.297	1508.425	-0.565	-0.244	-0.489	-6.124	-0.077	8.115
217467.682	NaN	-3.413	1.793	9.163	1504.762	1502.564	1509.890	-0.641	-0.489	-0.443	-6.201	0.000	8.038
217468.658	NaN	-3.402	1.804	9.163	1504.762	1504.029	1509.890	-0.718	-0.473	-0.412	-6.048	0.077	7.962
217469.635	NaN	-3.413	1.793	9.163	1505.495	1503.297	1510.623	-0.550	-0.412	-0.137	-6.201	-0.077	8.038
217470.612	NaN	-3.391	1.804	9.174	1504.762	1504.029	1510.623	-0.550	-0.427	-0.137	-6.124	0.000	8.038
217471.588	NaN	-3.413	1.804	9.152	1504.762	1504.029	1510.623	-0.641	-0.458	-0.504	-6.124	-0.077	8.115
217472.565	NaN	-3.413	1.793	9.141	1505.495	1504.029	1509.890	-0.672	-0.489	-0.550	-6.124	-0.077	8.115
217473.541	NaN	-3.413	1.804	9.152	1504.762	1504.762	1511.355	-0.611	-0.290	-0.473	-6.278	0.000	8.115
217474.518	NaN	-3.413	1.793	9.152	1506.227	1504.762	1510.623	-0.595	-0.427	-0.260	-6.124	0.077	8.038
217475.494	NaN	-3.402	1.793	9.141	1505.495	1503.297	1511.355	-0.366	-0.626	-0.351	-6.048	0.000	8.115
217476.471	NaN	-3.424	1.793	9.152	1505.495	1504.029	1509.158	-0.382	-0.580	-0.473	-6.124	0.077	8.115
217477.448	NaN	-3.435	1.793	9.163	1504.762	1502.564	1509.890	-0.397	-0.397	-0.550	-6.124	0.000	8.191
217478.424	NaN	-3.435	1.804	9.185	1504.762	1504.029	1509.158	-0.519	-0.290	-0.550	-6.048	0.077	8.038
217479.401	NaN	-3.446	1.793	9.185	1505.495	1504.029	1509.890	-0.580	-0.321	-0.489	-6.048	-0.077	8.344
217480.377	NaN	-3.457	1.793	9.196	1506.960	1504.029	1509.890	-0.534	-0.550	-0.427	-6.124	0.000	8.115
217481.354	NaN	-3.467	1.793	9.207	1505.495	1503.297	1509.890	-0.550	-0.580	-0.443	-6.201	0.000	8.038
217482.330	NaN	-3.457	1.804	9.207	1506.960	1504.762	1509.890	-0.748	-0.458	-0.321	-6.201	-0.077	8.115
217483.307	NaN	-3.467	1.804	9.217	1506.227	1504.029	1510.623	-0.656	-0.473	-0.336	-6.201	0.000	8.115
217484.283	NaN	-3.467	1.804	9.217	1506.960	1503.297	1509.890	-0.824	-0.519	-0.366	-6.201	0.000	8.115
217485.260	NaN	-3.467	1.793	9.217	1505.495	1504.029	1510.623	-0.641	-0.656	-0.290	-6.124	0.000	8.038
217486.237	NaN	-3.478	1.793	9.217	1506.227	1504.029	1509.890	-0.504	-0.595	-0.351	-6.201	0.077	8.268
217487.213	NaN	-3.478	1.804	9.228	1504.762	1504.029	1509.890	-0.473	-0.565	-0.504	-6.278	0.077	8.115
217488.190	NaN	-3.478	1.804	9.228	1504.762	1504.029	1509.158	-0.504	-0.458	-0.351	-6.201	-0.077	8.421
217489.166	NaN	-3.467	1.804	9.239	1504.762	1503.297	1509.890	-0.626	-0.580	-0.336	-6.201	0.000	8.115
217490.143	NaN	-3.478	1.804	9.239	1506.227	1504.029	1510.623	-0.672	-0.626	-0.336	-6.278	0.000	8.191
217491.119	NaN	-3.478	1.804	9.239	1506.960	1504.029	1511.355	-0.580	-0.656	-0.351	-6.278	0.000	8.191
217492.096	NaN	-3.489	1.793	9.239	1506.960	1504.762	1510.623	-0.504	-0.626	-0.473	-6.201	-0.230	8.191
217493.073	NaN	-3.500	1.793	9.250	1506.227	1504.029	1510.623	-0.366	-0.504	-0.366	-6.048	0.077	8.268
217494.049	NaN	-3.489	1.783	9.250	1505.495	1504.029	1510.623	-0.534	-0.519	-0.290	-6.201	0.000	8.115
217495.026	NaN	-3.489	1.793	9.261	1506.960	1504.762	1508.425	-0.626	-0.427	-0.198	-6.354	0.000	8.191
217496.002	NaN	-3.478	1.804	9.272	1506.227	1504.029	1510.623	-0.595	-0.397	-0.183	-6.124	-0.153	8.268
217496.979	NaN	-3.489	1.804	9.272	1506.227	1504.029	1510.623	-0.656	-0.550	-0.290	-6.124	0.000	8.268
217497.955	NaN	-3.489	1.815	9.283	1504.762	1504.029	1510.623	-0.626	-0.656	-0.473	-6.278	0.000	8.344
217498.932	NaN	-3.500	1.804	9.283	1505.495	1503.297	1511.355	-0.611	-0.580	-0.382	-6.201	0.000	8.191
217499.908	NaN	-3.500	1.804	9.272	1506.227	1504.762	1511.355	-0.565	-0.473	-0.458	-6.201	-0.077	8.191
217500.885	NaN	-3.500	1.804	9.283	1505.495	1504.762	1511.355	-0.656	-0.489	-0.458	-6.201	0.000	8.268
217501.862	NaN	-3.511	1.815	9.283	1504.762	1504.762	1512.088	-0.580	-0.504	-0.473	-6.201	-0.077	8.115
217502.838	NaN	-3.522	1.815	9.283	1505.495	1503.297	1509.890	-0.351	-0.565	-0.275	-6.201	-0.153	8.268
217503.815	NaN	-3.522	1.804	9.283	1505.495	1504.029	1509.158	-0.473	-0.519	-0.214	-6.278	0.077	8.191
217504.791	NaN	-3.522	1.804	9.293	1505.495	1502.564	1509.158	-0.473	-0.412	-0.382	-6.201	0.000	8.191
217505.768	NaN	-3.500	1.804	9.293	1506.227	1504.762	1509.890	-0.519	-0.595	-0.412	-6.201	-0.077	8.115
217506.744	NaN	-3.500	1.793	9.293	1506.960	1503.297	1510.623	-0.718	-0.595	-0.382	-6.354	-0.077	8.268
217507.721	NaN	-3.511	1.793	9.304	1504.029	1503.297	1509.890	-0.733	-0.641	-0.275	-6.278	0.000	8.115
217508.698	NaN	-3.522	1.793	9.293	1506.227	1504.762	1509.158	-0.656	-0.702	-0.244	-6.278	0.000	8.268
217509.674	NaN	-3.522	1.793	9.272	1505.495	1504.029	1509.158	-0.489	-0.763	-0.244	-6.201	-0.077	8.191
217510.651	NaN	-3.522	1.804	9.272	1504.762	1503.297	1508.425	-0.382	-0.611	-0.397	-6.278	-0.077	8.268
217511.627	NaN	-3.511	1.804	9.261	1505.495	1504.762	1509.158	-0.534	-0.473	-0.534	-6.354	0.077	8.191
217512.604	NaN	-3.511	1.793	9.272	1505.495	1502.564	1509.890	-0.641	-0.504	-0.626	-6.201	-0.077	8.115
217513.580	NaN	-3.511	1.804	9.283	1505.495	1503.297	1509.890	-0.763	-0.656	-0.351	-6.354	-0.077	8.115
217514.557	NaN	-3.522	1.783	9.283	1505.495	1504.029	1508.425	-0.824	-0.595	-0.137	-6.201	0.000	8.268
217515.533	NaN	-3.511	1.793	9.283	1505.495	1504.029	1509.158	-0.656	-0.458	-0.168	-6.201	0.000	8.191
217516.510	NaN	-3.511	1.783	9.283	1505.495	1504.029	1509.890	-0.611	-0.366	-0.382	-6.201	-0.077	8.038
217517.487	NaN	-3.511	1.783	9.272	1506.227	1504.029	1509.890	-0.702	-0.351	-0.504	-6.201	-0.077	8.191
217518.463	NaN	-3.511	1.783	9.272	1506.227	1504.029	1510.623	-0.611	-0.382	-0.489	-6.124	0.000	8.115
217519.440	NaN	-3.511	1.793	9.272	1506.227	1504.762	1509.890	-0.595	-0.550	-0.565	-6.201	0.000	8.344
217520.416	NaN	-3.511	1.793	9.272	1505.495	1504.762	1509.158	-0.840	-0.687	-0.656	-6.124	0.000	8.191
217521.393	3736847127.308	-3.511	1.793	9.272	1504.762	1504.029	1509.890	-0.779	-0.687	-0.504	-6.278	0.000	8.191
217522.369	NaN	-3.511	1.793	9.283	1506.227	1505.495	1509.890	-0.611	-0.718	-0.382	-6.201	0.077	8.191
217523.346	NaN	-3.511	1.793	9.272	1504.762	1503.297	1509.890	-0.473	-0.656	-0.275	-6.124	0.000	8.115
217524.323	NaN	-3.489	1.804	9.283	1506.227	1504.762	1510.623	-0.397	-0.534	-0.275	-6.201	-0.077	8.115
217525.299	NaN	-3.489	1.804	9.272	1505.495	1504.029	1509.158	-0.397	-0.626	-0.580	-6.201	0.077	8.191
217526.276	NaN	-3.489	1.793	9.261	1506.227	1504.762	1509.890	-0.565	-0.794	-0.595	-6.278	0.000	8.115
217527.252	NaN	-3.467	1.793	9.250	1506.227	1504.029	1510.623	-0.702	-0.656	-0.275	-5.053	0.000	8.038
217528.229	NaN	-3.467	1.793	9.261	1505.495	1504.029	1511.355	-0.794	-0.473	-0.321	-6.124	0.077	8.115
217529.205	NaN	-3.467	1.793	9.250	1506.227	1504.029	1509.890	-0.656	-0.382	-0.260	-6.278	0.077	8.191
217530.182	NaN	-3.478	1.783	9.250	1506.227	1504.762	1510.623	-0.824	-0.565	-0.275	-6.048	0.000	8.268
217531.158	NaN	-3.467	1.804	9.250	1505.495	1504.762	1510.623	-0.992	-0.702	-0.351	-6.124	0.077	8.191
217532.135	NaN	-3.467	1.804	9.250	1506.227	1504.762	1511.355	-0.992	-0.809	-0.397	-6.201	-0.153	8.038
217533.112	NaN	-3.478	1.815	9.239	1505.495	1504.029	1509.158	-0.992	-0.672	-0.351	-6.278	-0.077	8.115
217534.088	NaN	-3.478	1.804	9.239	1504.029	1502.564	1508.425	-0.901	-0.489	-0.198	-4.976	0.000	8.191
217535.065	NaN	-3.467	1.815	9.239	1505.495	1504.029	1509.158	-0.794	-0.565	-0.275	-6.124	0.077	8.115
217536.041	NaN	-3.467	1.815	9.239	1505.495	1504.762	1512.088	-0.870	-0.748	-0.305	-6.201	-0.077	8.115
217537.018	NaN	-3.467	1.826	9.239	1506.227	1504.029	1510.623	-0.962	-0.733	-0.321	-6.201	0.000	8.115
217537.994	NaN	-3.467	1.826	9.239	1506.960	1504.029	1509.158	-0.901	-0.656	-0.397	-6.124	0.000	8.038
217538.971	NaN	-3.478	1.815	9.239	1506.960	1504.029	1509.890	-0.870	-0.550	-0.550	-6.278	-0.153	8.115
217539.948	NaN	-3.478	1.815	9.239	1505.495	1502.564	1509.890	-0.702	-0.519	-0.565	-6.124	-0.077	8.038
217540.924	NaN	-3.467	1.826	9.239	1506.227	1504.029	1509.890	-0.458	-0.611	-0.427	-6.124	-1.148	8.038
217541.901	NaN	-3.478	1.815	9.228	1505.495	1504.029	1508.425	-0.656	-0.809	-0.382	-6.124	0.000	8.115
217542.877	NaN	-3.478	1.804	9.228	1504.762	1503.297	1509.890	-1.053	-0.733	-0.244	-6.354	-0.153	8.038
217543.854	NaN	-3.467	1.804	9.228	1506.227	1504.029	1509.890	-1.023	-0.656	-0.351	-6.201	-0.153	8.038
217544.830	NaN	-3.467	1.804	9.228	1504.762	1504.029	1511.355	-0.748	-0.870	-0.458	-6.278	0.000	8.191
217545.807	NaN	-3.457	1.804	9.228	1506.960	1504.029	1511.355	-0.748	-0.962	-0.550	-6.124	0.000	7.962
217546.783	NaN	-3.457	1.804	9.228	1505.495	1504.762	1509.890	-0.779	-0.779	-0.321	-6.124	-0.077	8.115
217547.760	NaN	-3.457	1.804	9.228	1505.495	1504.029	1510.623	-0.763	-0.565	-0.397	-6.048	0.077	7.962
217548.737	NaN	-3.467	1.793	9.217	1504.762	1503.297	1509.158	-0.534	-0.672	-0.366	-6.048	0.000	8.115
217549.713	NaN	-3.457	1.815	9.228	1504.029	1503.297	1509.158	-0.412	-0.534	-0.305	-6.124	0.000	8.115
217550.690	NaN	-3.446	1.826	9.217	1504.762	1504.029	1509.890	-0.473	-0.672	-0.260	-6.201	-0.077	8.191
217551.666	NaN	-3.446	1.815	9.217	1505.495	1504.029	1510.623	-0.763	-0.763	-0.229	-6.124	-0.077	8.191
217552.643	NaN	-3.446	1.815	9.217	1506.227	1503.297	1509.890	-1.053	-0.748	-0.473	-6.124	-0.077	8.191
217553.619	NaN	-3.435	1.815	9.217	1506.227	1504.029	1510.623	-1.084	-0.763	-0.458	-6.201	-0.077	8.038
217554.596	NaN	-3.435	1.826	9.217	1506.227	1504.762	1509.158	-0.656	-0.687	-0.519	-6.124	0.153	8.115
217555.573	NaN	-3.446	1.815	9.207	1506.960	1504.029	1510.623	-0.687	-0.733	-0.565	-6.124	0.000	8.115
217556.549	NaN	-3.446	1.804	9.207	1505.495	1502.564	1509.158	-0.947	-0.870	-0.565	-5.971	-0.153	8.191
217557.526	NaN	-3.446	1.815	9.207	1506.227	1504.029	1509.890	-0.840	-0.931	-0.580	-5.971	-0.077	8.038
217558.502	NaN	-3.446	1.815	9.207	1506.227	1504.029	1509.890	-0.824	-0.840	-0.473	-6.048	-0.077	8.038
217559.479	NaN	-3.435	1.804	9.207	1504.762	1504.029	1509.890	-0.794	-0.794	-0.427	-6.354	0.000	8.038
217560.455	NaN	-3.435	1.804	9.185	1504.029	1504.029	1510.623	-0.916	-0.840	-0.366	-6.201	-0.077	8.268
217561.432	NaN	-3.446	1.804	9.185	1504.029	1503.297	1509.890	-0.718	-0.748	-0.534	-6.201	-0.153	8.115
217562.408	NaN	-3.435	1.815	9.185	1506.227	1504.029	1509.158	-0.580	-0.763	-0.473	-6.048	-0.077	8.191
217563.385	NaN	-3.413	1.815	9.185	1505.495	1504.029	1510.623	-0.641	-0.733	-0.290	-6.278	0.000	8.038
217564.362	NaN	-3.413	1.815	9.185	1504.762	1504.029	1509.890	-0.641	-0.702	-0.351	-6.124	0.077	8.115
217565.338	NaN	-3.424	1.815	9.185	1504.762	1503.297	1509.890	-0.626	-0.702	-0.382	-6.048	0.000	8.115
217566.315	NaN	-3.435	1.815	9.174	1504.762	1503.297	1508.425	-0.580	-1.023	-0.427	-6.201	0.077	8.268
217567.291	NaN	-3.424	1.826	9.185	1504.762	1504.762	1509.890	-0.626	-0.916	-0.519	-6.201	-0.077	8.115
217568.268	NaN	-3.435	1.826	9.174	1504.762	1504.762	1510.623	-0.779	-0.901	-0.229	-6.124	0.077	8.115
217569.244	NaN	-3.446	1.815	9.185	1504.762	1504.762	1509.890	-0.718	-0.824	-0.122	-6.201	0.077	8.038
217570.221	NaN	-3.446	1.815	9.174	1504.762	1504.029	1509.890	-0.702	-0.901	-0.351	-6.124	-0.153	8.038
217571.198	NaN	-3.446	1.804	9.152	1505.495	1504.029	1511.355	-0.550	-0.901	-0.565	-6.201	-0.077	7.962
217572.174	NaN	-3.446	1.815	9.152	1504.762	1504.029	1510.623	-0.656	-0.947	-0.458	-6.201	0.077	8.038
217573.151	NaN	-3.446	1.815	9.152	1504.029	1503.297	1509.158	-0.687	-0.870	-0.443	-6.048	-1.148	7.962
217574.127	NaN	-3.446	1.826	9.163	1504.762	1504.029	1508.425	-0.733	-0.992	-0.458	-6.124	0.000	8.038
217575.104	NaN	-3.446	1.804	9.152	1505.495	1503.297	1509.158	-0.672	-0.992	-0.443	-6.048	0.000	8.115
217576.080	NaN	-3.446	1.815	9.152	1506.227	1504.029	1510.623	-0.794	-0.809	-0.458	-6.048	0.000	8.038
217577.057	NaN	-3.446	1.804	9.152	1504.762	1503.297	1510.623	-0.870	-0.824	-0.321	-6.124	-0.077	7.962
217578.033	NaN	-3.446	1.793	9.163	1505.495	1504.762	1509.890	-0.718	-0.748	-0.443	-6.124	-0.153	8.038
217579.010	NaN	-3.435	1.793	9.163	1504.762	1502.564	1510.623	-0.595	-0.855	-0.626	-6.124	-0.077	8.115
217579.987	NaN	-3.435	1.793	9.174	1505.495	1504.762	1510.623	-0.687	-0.962	-0.443	-6.201	0.000	8.191
217580.963	NaN	-3.446	1.793	9.185	1503.297	1504.029	1508.425	-0.870	-0.824	-0.305	-6.124	-0.153	8.191
217581.940	NaN	-3.424	1.804	9.196	1505.495	1502.564	1509.158	-0.855	-0.931	-0.198	-6.201	0.000	8.115
217582.916	NaN	-3.424	1.804	9.196	1505.495	1504.029	1510.623	-0.641	-1.084	-0.534	-6.124	-0.077	8.191
217583.893	NaN	-3.424	1.793	9.185	1504.762	1504.029	1510.623	-0.763	-0.931	-0.458	-6.201	-0.077	8.038
217584.869	NaN	-3.435	1.793	9.196	1505.495	1504.762	1509.890	-0.687	-1.038	-0.458	-6.201	-0.077	8.038
217585.846	NaN	-3.435	1.804	9.196	1502.564	1504.762	1509.890	-0.916	-1.069	-0.489	-6.201	-0.077	8.115
217586.823	NaN	-3.446	1.793	9.196	1505.495	1504.029	1510.623	-0.824	-0.977	-0.519	-6.048	0.000	7.962
