Timestamp	PC Timestamp	Low Noise Accelerometer X	Low Noise Accelerometer Y	Low Noise Accelerometer Z	Int A12	Int A13	Int A14	Gyroscope X	Gyroscope Y	Gyroscope Z	Wide Range Accelerometer X	Wide Range Accelerometer Y	Wide Range Accelerometer Z
44599.518	NaN	2.511	6.880	-5.228	1510.623	1499.634	1499.634	-0.702	-0.137	-0.885	0.459	5.359	-7.349
44600.494	NaN	2.511	6.891	-5.217	1510.623	1500.366	1499.634	-0.519	0.076	-0.779	0.383	5.512	-7.579
44601.471	NaN	2.511	6.880	-5.207	1510.623	1498.901	1500.366	-0.748	0.183	-0.809	0.306	5.512	-7.502
44602.448	NaN	2.511	6.880	-5.207	1509.158	1498.901	1499.634	-0.733	0.229	-0.855	0.383	5.512	-7.579
44603.424	NaN	2.500	6.870	-5.196	1509.890	1499.634	1500.366	-0.702	0.137	-0.718	0.306	5.435	-7.502
44604.401	NaN	2.489	6.870	-5.207	1510.623	1499.634	1500.366	-0.855	0.000	-0.718	0.383	5.359	-7.502
44605.377	NaN	2.500	6.870	-5.207	1510.623	1500.366	1500.366	-1.176	0.000	-0.763	0.306	5.589	-7.732
44606.354	NaN	2.511	6.880	-5.196	1510.623	1499.634	1500.366	-0.992	0.031	-0.977	0.230	5.589	-7.579
44607.330	NaN	2.511	6.880	-5.196	1509.890	1499.634	1498.901	-0.809	0.244	-0.916	0.459	5.512	-7.502
44608.307	NaN	2.500	6.880	-5.196	1510.623	1499.634	1499.634	-0.855	0.168	-0.840	0.306	5.435	-7.579
44609.283	NaN	2.489	6.880	-5.207	1509.890	1499.634	1500.366	-0.916	0.107	-0.977	0.306	5.435	-7.502
44610.260	NaN	2.489	6.880	-5.196	1509.890	1500.366	1500.366	-1.053	0.229	-1.191	0.383	5.359	-7.579
44611.237	NaN	2.500	6.880	-5.185	1513.553	1500.366	1500.366	-0.580	0.351	-1.023	0.383	5.435	-7.656
44612.213	NaN	2.511	6.870	-5.196	1510.623	1499.634	1500.366	-0.489	0.275	-1.008	0.383	5.435	-7.426
44613.190	NaN	2.511	6.870	-5.207	1510.623	1499.634	1501.099	-0.656	0.214	-0.992	0.383	5.359	-7.656
44614.166	NaN	2.522	6.880	-5.217	1510.623	1499.634	1500.366	-0.794	0.275	-0.916	0.383	5.512	-7.579
44615.143	NaN	2.522	6.880	-5.207	1510.623	1500.366	1500.366	-0.870	0.244	-0.748	0.306	5.512	-7.656
44616.119	NaN	2.511	6.880	-5.207	1509.890	1499.634	1500.366	-0.763	0.275	-0.733	0.230	5.435	-7.502
44617.096	NaN	2.511	6.870	-5.207	1509.890	1499.634	1501.099	-0.748	0.321	-0.870	0.230	5.435	-7.732
44618.073	NaN	2.500	6.859	-5.217	1510.623	1498.901	1499.634	-0.840	0.473	-1.008	0.306	5.512	-7.579
44619.049	NaN	2.500	6.870	-5.207	1511.355	1500.366	1500.366	-0.519	0.519	-0.916	0.459	5.435	-7.656
44620.026	NaN	2.500	6.880	-5.207	1510.623	1500.366	1500.366	-0.489	0.351	-0.870	0.383	5.435	-7.579
44621.002	NaN	2.511	6.880	-5.217	1509.890	1499.634	1498.901	-0.519	0.244	-0.855	0.230	5.589	-7.579
44621.979	NaN	2.500	6.880	-5.217	1509.890	1500.366	1499.634	-0.534	0.260	-0.977	0.306	5.589	-7.579
44622.955	NaN	2.500	6.880	-5.217	1510.623	1500.366	1500.366	-0.794	0.336	-1.008	0.306	5.512	-7.732
44623.932	NaN	2.511	6.891	-5.207	1509.158	1498.901	1499.634	-0.718	0.397	-0.947	0.383	5.512	-7.656
44624.908	NaN	2.511	6.891	-5.228	1510.623	1500.366	1500.366	-0.580	0.443	-0.885	0.536	5.512	-7.656
44625.885	NaN	2.511	6.902	-5.217	1509.890	1499.634	1501.832	-0.473	0.412	-0.794	0.383	5.589	-7.656
44626.862	NaN	2.511	6.891	-5.239	1510.623	1499.634	1499.634	-0.702	0.275	-0.962	0.383	5.512	-7.579
44627.838	NaN	2.511	6.891	-5.239	1510.623	1501.099	1499.634	-0.885	0.183	-0.824	0.536	5.589	-7.579
44628.815	NaN	2.511	6.880	-5.239	1510.623	1499.634	1501.099	-0.840	0.366	-0.931	0.459	5.359	-7.732
44629.791	NaN	2.511	6.891	-5.239	1511.355	1500.366	1499.634	-0.885	0.565	-0.992	0.459	5.512	-7.732
44630.768	NaN	2.511	6.880	-5.239	1511.355	1499.634	1500.366	-0.779	0.534	-0.947	0.383	5.512	-7.579
44631.744	NaN	2.511	6.880	-5.250	1511.355	1500.366	1498.901	-0.748	0.290	-1.023	0.306	5.589	-7.502
44632.721	NaN	2.533	6.891	-5.239	1511.355	1500.366	1499.634	-0.748	0.412	-0.992	0.459	5.512	-7.809
44633.698	NaN	2.533	6.891	-5.250	1510.623	1499.634	1500.366	-0.748	0.458	-0.992	0.306	5.589	-7.579
44634.674	NaN	2.533	6.902	-5.261	1511.355	1499.634	1501.099	-0.718	0.336	-0.870	0.383	5.435	-7.656
44635.651	NaN	2.522	6.902	-5.283	1511.355	1498.901	1501.832	-0.733	0.351	-0.718	0.383	5.435	-7.656
44636.627	NaN	2.522	6.902	-5.272	1509.158	1500.366	1500.366	-0.641	0.290	-0.870	0.230	5.359	-7.885
44637.604	NaN	2.522	6.902	-5.283	1510.623	1498.901	1498.901	-0.550	0.412	-0.824	0.459	5.512	-7.656
44638.580	NaN	2.533	6.902	-5.272	1511.355	1500.366	1499.634	-0.580	0.290	-0.962	0.383	5.359	-7.656
44639.557	NaN	2.533	6.891	-5.293	1510.623	1498.901	1499.634	-0.656	0.275	-1.069	0.383	5.435	-7.579
44640.533	NaN	2.522	6.891	-5.283	1510.623	1499.634	1499.634	-0.733	0.229	-1.038	0.306	5.589	-7.732
44641.510	NaN	2.522	6.891	-5.272	1510.623	1498.901	1498.901	-0.611	0.275	-0.901	0.306	5.435	-7.502
44642.487	NaN	2.533	6.913	-5.272	1509.890	1499.634	1498.901	-0.275	0.183	-0.901	0.459	5.589	-7.732
44643.463	NaN	2.522	6.902	-5.283	1509.890	1499.634	1499.634	-0.214	0.046	-0.702	0.536	5.589	-7.656
44644.440	NaN	2.511	6.902	-5.283	1509.890	1500.366	1498.901	-0.321	0.153	-0.824	0.306	5.589	-7.885
44645.416	NaN	2.511	6.902	-5.283	1509.890	1500.366	1501.099	-0.565	0.275	-1.023	0.536	5.512	-7.579
44646.393	NaN	2.522	6.902	-5.283	1510.623	1499.634	1500.366	-0.718	0.214	-0.931	0.459	5.512	-7.656
44647.369	NaN	2.522	6.891	-5.283	1509.890	1499.634	1498.901	-0.656	0.198	-0.809	0.459	5.589	-7.732
44648.346	NaN	2.522	6.891	-5.283	1510.623	1498.901	1500.366	-0.809	0.397	-0.733	0.383	5.589	-7.656
44649.323	NaN	2.522	6.891	-5.283	1511.355	1498.901	1500.366	-0.931	0.336	-0.687	0.459	5.512	-7.885
44650.299	NaN	2.533	6.902	-5.272	1511.355	1500.366	1498.901	-0.840	0.153	-0.794	0.306	5.512	-7.579
44651.276	NaN	2.533	6.902	-5.283	1510.623	1499.634	1500.366	-0.794	0.290	-0.962	0.230	5.512	-7.656
44652.252	NaN	2.533	6.913	-5.283	1509.158	1499.634	1499.634	-0.611	0.321	-0.763	0.383	5.435	-7.502
44653.229	NaN	2.533	6.902	-5.272	1510.623	1498.901	1500.366	-0.687	0.260	-0.840	0.536	5.665	-7.656
44654.205	NaN	2.533	6.902	-5.283	1510.623	1500.366	1498.901	-0.733	0.290	-1.206	0.383	5.589	-7.809
44655.182	NaN	2.533	6.902	-5.272	1508.425	1499.634	1501.832	-0.809	0.290	-1.191	0.306	5.512	-7.579
44656.158	NaN	2.533	6.913	-5.272	1511.355	1500.366	1500.366	-0.794	0.336	-1.069	0.383	5.435	-7.656
44657.135	NaN	2.533	6.913	-5.283	1509.890	1499.634	1500.366	-0.733	0.351	-0.855	0.383	5.512	-7.809
44658.112	NaN	2.533	6.902	-5.293	1510.623	1500.366	1499.634	-0.687	0.183	-0.702	0.383	5.435	-7.656
44659.088	NaN	2.533	6.891	-5.283	1510.623	1500.366	1498.901	-0.809	-0.015	-0.779	0.306	5.665	-7.579
44660.065	NaN	2.533	6.902	-5.272	1510.623	1500.366	1498.901	-0.794	0.092	-1.115	0.459	5.512	-7.809
44661.041	NaN	2.533	6.902	-5.283	1510.623	1500.366	1498.901	-0.779	0.061	-1.145	0.306	5.435	-7.656
44662.018	NaN	2.554	6.902	-5.283	1510.623	1499.634	1500.366	-0.687	-0.076	-1.023	0.383	5.435	-7.732
44662.994	NaN	2.543	6.913	-5.293	1509.158	1499.634	1501.099	-0.794	-0.107	-1.038	0.306	5.435	-7.656
44663.971	NaN	2.543	6.913	-5.304	1509.890	1498.168	1499.634	-0.794	-0.122	-0.992	0.459	5.512	-7.809
44664.948	NaN	2.543	6.913	-5.293	1510.623	1499.634	1500.366	-0.626	-0.244	-0.901	0.459	5.512	-7.809
44665.924	NaN	2.533	6.913	-5.293	1510.623	1500.366	1500.366	-0.580	-0.107	-0.992	0.383	5.512	-7.732
44666.901	NaN	2.533	6.913	-5.315	1509.890	1499.634	1500.366	-0.519	-0.015	-1.023	0.383	5.435	-7.809
44667.877	NaN	2.543	6.913	-5.304	1510.623	1500.366	1498.901	-0.580	0.092	-1.008	0.383	5.512	-7.962
44668.854	NaN	2.533	6.902	-5.293	1510.623	1500.366	1498.901	-0.595	-0.031	-0.992	0.383	5.359	-7.656
44669.830	NaN	2.522	6.902	-5.293	1510.623	1500.366	1499.634	-0.779	-0.061	-1.145	0.383	5.512	-7.732
44670.807	NaN	2.533	6.913	-5.283	1510.623	1499.634	1500.366	-0.855	-0.015	-1.053	0.459	5.512	-7.656
44671.783	NaN	2.522	6.913	-5.293	1510.623	1499.634	1500.366	-0.870	0.000	-1.069	0.383	5.435	-7.732
44672.760	NaN	2.511	6.913	-5.283	1509.890	1498.901	1499.634	-0.382	-0.015	-0.855	0.459	5.589	-7.732
44673.737	NaN	2.522	6.902	-5.283	1509.890	1499.634	1500.366	-0.290	-0.015	-0.840	0.536	5.512	-7.732
44674.713	NaN	2.533	6.913	-5.272	1509.890	1499.634	1501.099	-0.519	-0.137	-0.870	0.306	5.589	-7.656
44675.690	NaN	2.522	6.913	-5.272	1509.890	1500.366	1499.634	-0.794	-0.168	-0.977	0.306	5.435	-7.732
44676.666	NaN	2.522	6.902	-5.283	1506.960	1498.901	1500.366	-0.672	-0.229	-0.977	0.459	5.589	-7.579
44677.643	NaN	2.533	6.902	-5.272	1511.355	1500.366	1499.634	-0.702	-0.229	-0.947	0.306	5.589	-7.732
44678.619	NaN	2.522	6.902	-5.272	1511.355	1499.634	1501.099	-0.977	-0.214	-0.824	0.383	5.512	-7.579
44679.596	NaN	2.522	6.891	-5.272	1509.890	1499.634	1499.634	-0.779	-0.198	-0.870	0.230	5.435	-7.809
44680.573	NaN	2.533	6.891	-5.261	1509.158	1499.634	1499.634	-0.687	-0.137	-1.038	0.536	5.512	-7.656
44681.549	NaN	2.533	6.891	-5.261	1511.355	1500.366	1499.634	-0.794	0.076	-1.115	0.536	5.359	-7.656
44682.526	NaN	2.533	6.880	-5.250	1510.623	1500.366	1499.634	-0.855	0.092	-0.855	0.459	5.512	-7.809
44683.502	NaN	2.533	6.870	-5.261	1510.623	1499.634	1500.366	-0.901	-0.168	-0.733	0.383	5.665	-7.502
44684.479	NaN	2.522	6.870	-5.250	1510.623	1499.634	1501.099	-0.702	-0.351	-0.718	0.230	5.512	-7.732
44685.455	NaN	2.511	6.870	-5.261	1510.623	1500.366	1499.634	-0.565	-0.092	-0.809	0.306	5.435	-7.502
44686.432	NaN	2.522	6.859	-5.261	1509.890	1499.634	1501.099	-0.534	0.198	-0.855	0.459	5.512	-7.656
44687.408	NaN	2.533	6.870	-5.261	1510.623	1498.168	1499.634	-0.702	0.229	-0.962	0.459	5.282	-7.656
44688.385	NaN	2.533	6.870	-5.239	1510.623	1499.634	1500.366	-0.656	-0.153	-0.931	0.459	5.512	-7.579
44689.362	NaN	2.511	6.870	-5.250	1511.355	1499.634	1500.366	-0.687	0.015	-0.947	0.383	5.435	-7.732
44690.338	NaN	2.522	6.870	-5.228	1510.623	1500.366	1501.099	-0.702	0.168	-0.885	0.459	5.512	-7.656
44691.315	NaN	2.500	6.870	-5.228	1509.890	1500.366	1499.634	-0.702	-0.061	-0.748	0.383	5.359	-7.579
44692.291	NaN	2.511	6.880	-5.228	1509.890	1499.634	1500.366	-0.840	-0.168	-0.779	0.230	5.435	-7.732
44693.268	NaN	2.511	6.880	-5.228	1509.890	1499.634	1499.634	-0.962	0.015	-0.885	0.383	5.512	-7.732
44694.244	NaN	2.511	6.870	-5.239	1510.623	1500.366	1499.634	-0.733	0.168	-0.962	0.306	5.589	-7.426
44695.221	NaN	2.500	6.880	-5.239	1510.623	1499.634	1501.099	-0.534	0.321	-0.901	0.459	5.359	-7.502
44696.198	NaN	2.500	6.870	-5.228	1510.623	1499.634	1500.366	-0.580	0.015	-0.809	0.536	5.435	-7.579
44697.174	NaN	2.489	6.870	-5.228	1509.890	1499.634	1501.832	-0.855	-0.061	-0.824	0.383	5.512	-7.656
44698.151	NaN	2.478	6.870	-5.228	1510.623	1499.634	1501.099	-0.809	0.107	-0.931	0.306	5.665	-7.579
44699.127	NaN	2.500	6.870	-5.228	1512.088	1499.634	1501.099	-0.489	0.290	-0.840	0.459	5.512	-7.579
44700.104	NaN	2.489	6.870	-5.228	1510.623	1500.366	1500.366	-0.519	0.305	-0.824	0.383	5.435	-7.732
44701.080	NaN	2.500	6.880	-5.217	1510.623	1499.634	1500.366	-0.718	0.183	-0.809	0.383	5.589	-7.732
44702.057	NaN	2.500	6.859	-5.228	1509.890	1500.366	1498.168	-0.855	0.214	-0.672	0.383	5.512	-7.656
44703.033	NaN	2.489	6.859	-5.228	1511.355	1499.634	1500.366	-0.885	0.229	-0.779	0.459	5.435	-7.579
44704.010	NaN	2.500	6.870	-5.217	1511.355	1501.099	1500.366	-0.763	0.321	-0.931	0.306	5.359	-7.579
44704.987	NaN	2.500	6.870	-5.228	1509.158	1499.634	1501.832	-0.550	0.443	-0.977	0.306	5.435	-7.579
44705.963	NaN	2.511	6.870	-5.217	1510.623	1499.634	1501.099	-0.504	0.321	-0.977	0.230	5.512	-7.656
44706.940	NaN	2.500	6.859	-5.217	1508.425	1500.366	1500.366	-0.504	0.214	-0.779	0.306	5.512	-7.579
44707.916	NaN	2.500	6.859	-5.228	1510.623	1501.099	1500.366	-0.489	0.198	-0.824	0.383	5.435	-7.732
44708.893	NaN	2.500	6.859	-5.228	1510.623	1500.366	1500.366	-0.733	0.198	-0.824	0.383	5.589	-7.579
44709.869	NaN	2.489	6.870	-5.228	1510.623	1498.901	1500.366	-0.733	0.260	-0.763	0.459	5.435	-7.579
44710.846	NaN	2.489	6.870	-5.228	1509.890	1499.634	1500.366	-0.702	0.504	-0.809	0.383	5.359	-7.656
44711.823	NaN	2.489	6.870	-5.228	1509.890	1499.634	1500.366	-0.595	0.550	-0.733	0.459	5.435	-7.656
44712.799	NaN	2.500	6.880	-5.228	1511.355	1500.366	1501.832	-0.809	0.534	-0.580	0.306	5.359	-7.579
44713.776	NaN	2.500	6.870	-5.228	1510.623	1500.366	1500.366	-0.947	0.397	-0.672	0.306	5.435	-7.656
44714.752	NaN	2.511	6.870	-5.239	1510.623	1500.366	1499.634	-0.992	0.382	-0.779	0.306	5.359	-7.579
44715.729	NaN	2.511	6.870	-5.239	1509.890	1498.901	1500.366	-0.840	0.519	-0.763	0.306	5.512	-7.656
44716.705	NaN	2.500	6.870	-5.239	1511.355	1499.634	1500.366	-0.687	0.580	-0.763	0.306	5.435	-7.732
44717.682	NaN	2.500	6.870	-5.228	1509.890	1500.366	1500.366	-0.702	0.626	-0.947	0.306	5.435	-7.502
44718.658	NaN	2.500	6.859	-5.228	1509.890	1501.099	1500.366	-0.748	0.534	-0.992	0.459	5.512	-7.656
44719.635	NaN	2.511	6.870	-5.228	1511.355	1499.634	1500.366	-0.718	0.519	-0.840	0.306	5.512	-7.656
44720.612	NaN	2.500	6.870	-5.250	1510.623	1499.634	1501.832	-0.641	0.489	-0.824	0.536	5.435	-7.426
44721.588	NaN	2.511	6.880	-5.228	1509.890	1500.366	1500.366	-0.641	0.611	-0.870	0.230	5.435	-7.656
44722.565	NaN	2.511	6.870	-5.217	1509.890	1500.366	1498.901	-0.504	0.565	-0.947	0.306	5.589	-7.656
44723.541	NaN	2.511	6.859	-5.228	1510.623	1499.634	1501.099	-0.458	0.427	-0.794	0.306	5.435	-7.502
44724.518	NaN	2.511	6.870	-5.228	1509.890	1500.366	1499.634	-0.565	0.427	-0.443	0.383	5.512	-7.502
44725.494	NaN	2.500	6.870	-5.239	1509.158	1498.901	1499.634	-0.595	0.489	-0.550	0.383	5.435	-7.656
44726.471	NaN	2.500	6.880	-5.217	1511.355	1499.634	1500.366	-0.611	0.656	-0.702	0.383	5.282	-7.656
44727.448	NaN	2.500	6.880	-5.217	1510.623	1500.366	1498.901	-0.718	0.702	-0.794	0.306	5.512	-7.656
44728.424	NaN	2.511	6.880	-5.207	1510.623	1500.366	1499.634	-0.809	0.672	-0.748	0.306	5.589	-7.732
44729.401	NaN	2.511	6.870	-5.217	1509.890	1499.634	1500.366	-1.053	0.519	-0.687	0.306	5.512	-7.732
44730.377	NaN	2.511	6.891	-5.228	1509.890	1501.099	1499.634	-0.962	0.611	-0.733	0.383	5.512	-7.579
44731.354	NaN	2.511	6.880	-5.239	1509.158	1499.634	1499.634	-0.962	0.473	-0.763	0.153	5.589	-7.579
44732.330	NaN	2.522	6.880	-5.250	1508.425	1499.634	1499.634	-0.794	0.351	-0.718	0.306	5.589	-7.732
44733.307	NaN	2.522	6.891	-5.239	1510.623	1499.634	1501.099	-0.626	0.565	-0.641	0.459	5.589	-7.656
44734.283	NaN	2.522	6.891	-5.239	1509.158	1498.901	1502.564	-0.534	0.779	-0.687	0.459	5.359	-7.656
44735.260	NaN	2.533	6.880	-5.239	1509.158	1499.634	1500.366	-0.611	0.901	-0.763	0.459	5.512	-7.502
44736.237	NaN	2.522	6.891	-5.250	1509.890	1499.634	1499.634	-0.977	0.718	-0.855	0.306	5.435	-7.732
44737.213	NaN	2.533	6.880	-5.250	1509.890	1498.901	1499.634	-1.023	0.626	-0.855	0.306	5.359	-7.809
44738.190	NaN	2.533	6.891	-5.239	1510.623	1499.634	1500.366	-0.840	0.779	-0.916	0.459	5.435	-7.732
44739.166	NaN	2.533	6.891	-5.250	1509.890	1498.901	1498.901	-0.672	0.733	-0.901	0.459	5.589	-7.656
44740.143	NaN	2.533	6.891	-5.261	1510.623	1498.168	1500.366	-0.702	0.580	-0.687	0.383	5.435	-7.732
44741.119	NaN	2.543	6.902	-5.250	1511.355	1499.634	1498.901	-0.718	0.504	-0.458	0.459	5.512	-7.579
44742.096	NaN	2.543	6.902	-5.261	1509.890	1500.366	1498.901	-0.779	0.565	-0.427	0.459	5.589	-7.579
44743.073	NaN	2.533	6.902	-5.293	1509.158	1498.901	1499.634	-0.672	0.504	-0.565	0.306	5.435	-7.579
44744.049	NaN	2.533	6.902	-5.283	1510.623	1500.366	1501.099	-0.855	0.672	-0.748	0.459	5.512	-7.656
44745.026	NaN	2.543	6.891	-5.283	1509.890	1499.634	1501.832	-0.763	0.809	-0.779	0.306	5.512	-7.732
44746.002	NaN	2.543	6.902	-5.283	1509.890	1500.366	1499.634	-0.687	0.794	-0.809	0.306	5.512	-7.579
44746.979	NaN	2.522	6.891	-5.283	1509.890	1500.366	1498.901	-0.412	0.611	-0.870	0.306	5.435	-7.502
44747.955	NaN	2.522	6.902	-5.304	1509.890	1500.366	1498.901	-0.611	0.779	-0.885	0.306	5.589	-7.809
44748.932	NaN	2.533	6.902	-5.293	1511.355	1499.634	1500.366	-0.489	0.763	-0.824	0.459	5.512	-7.732
44749.908	NaN	2.533	6.902	-5.293	1510.623	1500.366	1498.901	-0.519	0.687	-0.794	0.536	5.589	-7.732
44750.885	NaN	2.533	6.902	-5.304	1510.623	1500.366	1498.901	-0.595	0.626	-0.763	0.459	5.665	-7.732
44751.862	NaN	2.522	6.891	-5.315	1511.355	1498.901	1499.634	-0.794	0.611	-0.916	0.383	5.435	-7.732
44752.838	NaN	2.533	6.902	-5.293	1511.355	1500.366	1500.366	-0.580	0.595	-0.885	0.459	5.589	-7.732
44753.815	NaN	2.533	6.902	-5.293	1510.623	1500.366	1499.634	-0.550	0.702	-0.656	0.612	5.512	-7.732
44754.791	NaN	2.533	6.902	-5.304	1509.890	1499.634	1500.366	-0.702	0.718	-0.580	0.306	5.512	-7.809
44755.768	NaN	2.533	6.913	-5.293	1510.623	1500.366	1499.634	-0.809	0.611	-0.595	0.306	5.589	-7.579
44756.744	NaN	2.533	6.913	-5.315	1509.890	1499.634	1500.366	-0.733	0.519	-0.763	0.459	5.512	-7.809
44757.721	NaN	2.543	6.913	-5.315	1509.890	1499.634	1499.634	-0.809	0.550	-0.718	0.306	5.512	-7.885
44758.698	NaN	2.543	6.902	-5.315	1508.425	1498.901	1498.901	-0.962	0.565	-0.855	0.383	5.435	-7.656
44759.674	NaN	2.543	6.913	-5.304	1509.890	1499.634	1499.634	-0.672	0.565	-0.779	0.306	5.512	-7.732
44760.651	NaN	2.543	6.902	-5.304	1509.158	1499.634	1499.634	-0.489	0.687	-0.565	0.306	5.589	-7.656
44761.627	NaN	2.554	6.924	-5.304	1510.623	1500.366	1498.901	-0.611	0.656	-0.565	0.459	5.435	-7.656
44762.604	NaN	2.533	6.913	-5.304	1512.088	1499.634	1501.099	-0.824	0.626	-0.595	0.306	5.589	-7.732
44763.580	NaN	2.543	6.924	-5.315	1509.890	1499.634	1499.634	-0.733	0.458	-0.779	0.383	5.589	-7.732
44764.557	NaN	2.533	6.902	-5.293	1509.890	1499.634	1500.366	-0.977	0.275	-0.748	0.459	5.435	-7.809
44765.533	NaN	2.522	6.902	-5.293	1511.355	1499.634	1500.366	-1.176	0.260	-0.794	0.536	5.435	-7.656
44766.510	NaN	2.522	6.902	-5.293	1509.890	1498.901	1499.634	-1.099	0.305	-0.947	0.459	5.435	-7.656
44767.487	NaN	2.543	6.902	-5.304	1510.623	1498.168	1499.634	-0.779	0.290	-0.901	0.459	5.512	-7.809
44768.463	NaN	2.543	6.902	-5.293	1510.623	1499.634	1500.366	-0.855	0.321	-0.718	0.383	5.435	-7.809
44769.440	NaN	2.533	6.902	-5.293	1510.623	1500.366	1498.901	-0.947	0.336	-0.641	0.306	5.512	-7.579
44770.416	NaN	2.533	6.891	-5.283	1510.623	1499.634	1501.832	-0.840	0.336	-0.656	0.383	5.359	-7.732
44771.393	NaN	2.533	6.891	-5.283	1511.355	1500.366	1501.099	-0.824	0.366	-0.809	0.383	5.665	-7.579
44772.369	NaN	2.533	6.902	-5.293	1509.890	1500.366	1499.634	-1.053	0.504	-0.855	0.383	5.435	-7.502
44773.346	NaN	2.543	6.902	-5.283	1509.890	1498.901	1498.168	-0.931	0.550	-0.733	0.459	5.512	-7.579
44774.323	NaN	2.533	6.891	-5.283	1510.623	1498.901	1499.634	-0.611	0.382	-0.702	0.383	5.512	-7.656
44775.299	NaN	2.533	6.891	-5.293	1510.623	1498.901	1500.366	-0.656	0.214	-0.672	0.536	5.435	-7.809
44776.276	NaN	2.543	6.891	-5.272	1509.890	1499.634	1501.099	-0.779	0.229	-0.641	0.383	5.589	-7.579
44777.252	NaN	2.533	6.880	-5.283	1509.890	1500.366	1499.634	-0.824	0.305	-0.733	0.459	5.435	-7.656
44778.229	NaN	2.533	6.870	-5.283	1509.158	1499.634	1498.901	-0.580	0.275	-0.672	0.306	5.435	-7.656
44779.205	NaN	2.533	6.870	-5.283	1512.088	1500.366	1499.634	-0.718	0.137	-0.733	0.306	5.435	-7.732
44780.182	NaN	2.533	6.870	-5.283	1510.623	1500.366	1499.634	-0.779	-0.046	-0.763	0.230	5.589	-7.732
44781.158	NaN	2.533	6.870	-5.283	1511.355	1500.366	1499.634	-0.962	0.092	-0.656	0.383	5.512	-7.732
44782.135	NaN	2.522	6.870	-5.272	1509.890	1499.634	1501.832	-0.855	0.366	-0.611	0.383	5.512	-7.502
44783.112	NaN	2.522	6.870	-5.261	1510.623	1498.901	1498.901	-0.733	0.321	-0.550	0.306	5.359	-7.732
44784.088	NaN	2.522	6.870	-5.250	1511.355	1500.366	1499.634	-0.763	0.122	-0.580	0.306	5.435	-7.656
44785.065	NaN	2.511	6.880	-5.250	1510.623	1499.634	1500.366	-0.763	0.061	-0.672	0.459	5.435	-7.579
44786.041	NaN	2.511	6.880	-5.261	1510.623	1500.366	1498.901	-0.779	0.107	-0.611	0.383	5.435	-7.656
44787.018	NaN	2.511	6.870	-5.250	1509.890	1498.901	1499.634	-0.870	0.214	-0.687	0.383	5.512	-7.809
44787.994	NaN	2.511	6.870	-5.239	1510.623	1499.634	1499.634	-0.931	0.122	-0.656	0.459	5.282	-7.579
44788.971	NaN	2.522	6.870	-5.228	1510.623	1499.634	1500.366	-0.672	0.137	-0.672	0.383	5.512	-7.732
44789.948	NaN	2.533	6.848	-5.228	1510.623	1499.634	1500.366	-0.733	0.305	-0.595	0.459	5.512	-7.502
44790.924	NaN	2.533	6.848	-5.239	1509.890	1500.366	1500.366	-0.763	0.473	-0.565	0.383	5.359	-7.579
44791.901	NaN	2.522	6.848	-5.239	1509.890	1500.366	1499.634	-0.763	0.504	-0.718	0.459	5.512	-7.732
44792.877	NaN	2.522	6.848	-5.239	1510.623	1500.366	1500.366	-0.977	0.214	-0.595	0.459	5.435	-7.579
44793.854	NaN	2.522	6.859	-5.228	1509.158	1501.099	1499.634	-1.069	0.122	-0.641	0.383	5.589	-7.732
44794.830	NaN	2.522	6.848	-5.217	1510.623	1500.366	1499.634	-0.580	0.260	-0.885	0.383	5.512	-7.732
44795.807	NaN	2.533	6.848	-5.207	1510.623	1500.366	1499.634	-0.427	0.244	-0.733	0.459	5.512	-7.579
44796.783	NaN	2.522	6.848	-5.207	1509.890	1499.634	1499.634	-0.656	0.290	-0.748	0.383	5.512	-7.656
44797.760	NaN	2.533	6.837	-5.185	1511.355	1501.099	1500.366	-0.779	0.198	-0.611	0.459	5.512	-7.656
44798.737	NaN	2.533	6.837	-5.185	1510.623	1500.366	1501.099	-0.672	0.183	-0.672	0.306	5.435	-7.502
44799.713	NaN	2.522	6.848	-5.185	1509.890	1500.366	1499.634	-0.733	0.229	-0.840	0.230	5.359	-7.502
44800.690	NaN	2.522	6.859	-5.196	1510.623	1499.634	1499.634	-0.916	0.137	-0.855	0.306	5.359	-7.579
44801.666	NaN	2.522	6.870	-5.196	1510.623	1500.366	1500.366	-0.916	0.183	-0.718	0.459	5.435	-7.502
44802.643	NaN	2.522	6.870	-5.185	1511.355	1499.634	1499.634	-0.931	0.321	-0.534	0.306	5.512	-7.656
44803.619	NaN	2.533	6.859	-5.185	1509.890	1499.634	1500.366	-0.931	0.351	-0.397	0.306	5.435	-7.656
44804.596	NaN	2.533	6.859	-5.196	1509.158	1499.634	1500.366	-0.702	0.534	-0.565	0.383	5.512	-7.579
44805.573	NaN	2.522	6.848	-5.207	1509.890	1499.634	1500.366	-0.504	0.534	-0.656	0.459	5.512	-7.579
44806.549	NaN	2.511	6.859	-5.207	1511.355	1499.634	1500.366	-0.656	0.321	-0.672	0.459	5.359	-7.732
44807.526	NaN	2.511	6.848	-5.207	1511.355	1499.634	1500.366	-0.809	0.168	-0.733	0.383	5.435	-7.349
44808.502	NaN	2.511	6.859	-5.196	1509.890	1500.366	1500.366	-0.916	0.122	-0.748	0.383	5.435	-7.579
44809.479	NaN	2.522	6.848	-5.207	1510.623	1499.634	1501.099	-0.992	0.366	-0.687	0.306	5.512	-7.502
44810.455	NaN	2.522	6.859	-5.207	1511.355	1499.634	1499.634	-0.855	0.336	-0.748	0.383	5.359	-7.502
44811.432	NaN	2.511	6.848	-5.207	1509.890	1499.634	1501.099	-0.885	0.229	-0.702	0.306	5.589	-7.579
44812.408	NaN	2.522	6.859	-5.207	1509.158	1498.901	1500.366	-0.901	0.412	-0.718	0.383	5.512	-7.502
44813.385	NaN	2.533	6.870	-5.196	1510.623	1500.366	1499.634	-0.962	0.366	-0.947	0.383	5.435	-7.656
44814.362	NaN	2.533	6.859	-5.185	1509.890	1498.901	1501.099	-0.794	0.504	-0.855	0.383	5.589	-7.656
44815.338	NaN	2.533	6.848	-5.174	1508.425	1500.366	1500.366	-0.824	0.656	-0.763	0.306	5.512	-7.656
44816.315	NaN	2.511	6.837	-5.196	1510.623	1498.901	1499.634	-0.794	0.489	-0.748	0.306	5.435	-7.502
44817.291	NaN	2.522	6.837	-5.185	1509.158	1499.634	1500.366	-0.809	0.458	-0.733	0.383	5.512	-7.502
44818.268	NaN	2.533	6.837	-5.196	1510.623	1498.901	1499.634	-0.962	0.504	-0.702	0.306	5.435	-7.426
44819.244	NaN	2.522	6.837	-5.207	1511.355	1500.366	1498.901	-1.099	0.473	-0.641	0.306	5.512	-7.579
44820.221	NaN	2.533	6.859	-5.207	1509.890	1498.901	1501.832	-1.084	0.550	-0.718	0.306	5.589	-7.579
44821.198	NaN	2.522	6.859	-5.207	1509.158	1500.366	1500.366	-1.008	0.473	-0.672	0.383	5.589	-7.656
44822.174	NaN	2.522	6.870	-5.217	1511.355	1499.634	1499.634	-0.870	0.458	-0.718	0.383	5.512	-7.579
44823.151	NaN	2.500	6.859	-5.228	1509.890	1499.634	1500.366	-0.733	0.611	-0.794	0.383	5.512	-7.502
44824.127	NaN	2.511	6.859	-5.250	1510.623	1500.366	1500.366	-0.870	0.641	-0.809	0.383	5.435	-7.732
44825.104	NaN	2.511	6.859	-5.250	1510.623	1500.366	1498.901	-1.038	0.656	-0.687	0.306	5.435	-7.656
44826.080	NaN	2.511	6.870	-5.250	1510.623	1500.366	1498.901	-1.023	0.626	-0.656	0.459	5.512	-7.732
44827.057	NaN	2.511	6.870	-5.250	1510.623	1498.901	1500.366	-0.916	0.412	-0.656	0.383	5.512	-7.809
44828.033	NaN	2.500	6.870	-5.261	1511.355	1499.634	1499.634	-0.809	0.275	-0.763	0.306	5.512	-7.579
44829.010	NaN	2.522	6.870	-5.261	1510.623	1500.366	1500.366	-0.870	0.321	-0.779	0.459	5.589	-7.579
44829.987	NaN	2.522	6.880	-5.250	1510.623	1498.901	1501.099	-1.023	0.366	-0.763	0.459	5.512	-7.579
44830.963	NaN	2.522	6.870	-5.261	1510.623	1499.634	1500.366	-0.840	0.611	-0.733	0.536	5.512	-7.579
44831.940	NaN	2.511	6.870	-5.272	1509.890	1498.901	1498.901	-0.687	0.626	-0.977	0.306	5.589	-7.579
44832.916	NaN	2.511	6.880	-5.250	1509.890	1500.366	1501.099	-0.824	0.397	-1.069	0.459	5.435	-7.579
44833.893	3736842346.820	2.511	6.880	-5.250	1511.355	1500.366	1500.366	-0.977	0.275	-0.855	0.383	5.512	-7.732
44834.869	NaN	2.511	6.891	-5.261	1510.623	1500.366	1498.901	-0.992	0.412	-0.916	0.383	5.512	-7.732
44835.846	NaN	2.511	6.891	-5.272	1509.890	1498.901	1498.901	-0.870	0.489	-0.840	0.383	5.512	-7.732
44836.823	NaN	2.522	6.891	-5.283	1510.623	1498.901	1500.366	-0.992	0.443	-0.748	0.459	5.435	-7.579
44837.799	NaN	2.522	6.902	-5.272	1511.355	1500.366	1498.901	-1.099	0.458	-0.733	0.306	5.435	-7.809
44838.776	NaN	2.511	6.891	-5.304	1509.158	1500.366	1497.436	-1.145	0.260	-1.008	0.383	5.512	-7.732
44839.752	NaN	2.522	6.913	-5.293	1510.623	1499.634	1498.901	-0.855	0.244	-1.069	0.459	5.665	-7.809
44840.729	NaN	2.522	6.913	-5.304	1510.623	1498.901	1501.099	-0.672	0.321	-0.809	0.383	5.512	-7.732
44841.705	NaN	2.522	6.902	-5.315	1511.355	1499.634	1500.366	-0.824	0.397	-0.977	0.306	5.512	-7.732
44842.682	NaN	2.533	6.902	-5.315	1510.623	1500.366	1499.634	-1.038	0.290	-0.901	0.383	5.435	-7.732
44843.658	NaN	2.522	6.902	-5.315	1510.623	1498.901	1500.366	-0.885	0.244	-0.687	0.383	5.435	-7.579
44844.635	NaN	2.533	6.913	-5.315	1509.890	1499.634	1501.099	-1.069	0.244	-0.855	0.383	5.435	-7.732
44845.612	NaN	2.533	6.902	-5.326	1509.890	1499.634	1500.366	-1.237	0.153	-1.023	0.306	5.512	-7.656
44846.588	NaN	2.543	6.913	-5.315	1510.623	1500.366	1499.634	-1.191	0.168	-0.992	0.306	5.665	-7.809
44847.565	NaN	2.533	6.902	-5.315	1510.623	1499.634	1500.366	-0.901	0.107	-0.855	0.383	5.665	-7.579
44848.541	NaN	2.533	6.913	-5.315	1510.623	1499.634	1501.099	-0.641	0.336	-0.504	0.383	5.435	-7.885
44849.518	NaN	2.543	6.902	-5.304	1510.623	1499.634	1499.634	-0.947	0.580	-0.702	0.459	5.435	-7.579
44850.494	NaN	2.543	6.902	-5.315	1510.623	1500.366	1500.366	-1.160	0.473	-0.901	0.459	5.435	-7.732
44851.471	NaN	2.533	6.902	-5.315	1509.158	1498.901	1498.901	-1.023	0.229	-0.824	0.383	5.359	-7.732
44852.448	NaN	2.543	6.891	-5.293	1509.890	1498.901	1499.634	-0.931	0.107	-0.824	0.383	5.435	-7.732
44853.424	NaN	2.533	6.891	-5.304	1510.623	1499.634	1500.366	-0.992	0.198	-0.672	0.383	5.512	-7.656
44854.401	NaN	2.522	6.891	-5.304	1509.890	1498.901	1498.901	-1.069	0.305	-0.763	0.383	5.359	-7.732
44855.377	NaN	2.533	6.902	-5.304	1510.623	1500.366	1501.099	-1.282	0.168	-0.855	0.383	5.512	-7.656
44856.354	NaN	2.522	6.891	-5.293	1509.890	1501.099	1498.901	-1.282	0.000	-0.916	0.536	5.512	-7.732
44857.330	NaN	2.533	6.880	-5.304	1509.890	1498.901	1498.168	-1.053	-0.015	-0.855	0.459	5.665	-7.732
44858.307	NaN	2.522	6.891	-5.283	1509.890	1499.634	1499.634	-1.176	0.031	-0.855	0.306	5.512	-7.656
44859.283	NaN	2.522	6.880	-5.293	1511.355	1499.634	1500.366	-1.298	0.214	-0.901	0.306	5.435	-7.732
44860.260	NaN	2.522	6.880	-5.293	1509.890	1500.366	1498.901	-1.145	0.305	-0.763	0.459	5.435	-7.656
44861.237	NaN	2.533	6.891	-5.304	1510.623	1500.366	1499.634	-1.099	0.351	-0.504	0.306	5.589	-7.579
44862.213	NaN	2.533	6.891	-5.315	1510.623	1499.634	1501.099	-1.130	0.366	-0.702	0.383	5.589	-7.656
44863.190	NaN	2.522	6.891	-5.315	1509.158	1499.634	1500.366	-0.947	0.275	-1.084	0.383	5.512	-7.656
44864.166	NaN	2.533	6.902	-5.304	1510.623	1500.366	1498.168	-0.931	0.260	-1.069	0.306	5.435	-7.579
44865.143	NaN	2.543	6.913	-5.293	1511.355	1499.634	1501.099	-1.069	0.336	-0.702	0.383	5.589	-7.732
44866.119	NaN	2.543	6.902	-5.293	1512.088	1500.366	1498.901	-1.237	0.168	-0.641	0.306	5.512	-7.656
44867.096	3736842346.970	2.543	6.902	-5.283	1510.623	1499.634	1500.366	-1.191	-0.031	-0.855	0.306	5.435	-7.656
44868.073	NaN	2.533	6.891	-5.293	1510.623	1500.366	1499.634	-1.191	-0.046	-0.794	0.383	5.359	-7.656
44869.049	NaN	2.533	6.891	-5.283	1510.623	1499.634	1500.366	-1.145	0.046	-0.687	0.383	5.435	-7.732
44870.026	NaN	2.533	6.891	-5.283	1512.088	1500.366	1500.366	-1.099	0.168	-0.656	0.306	5.512	-7.732
44871.002	NaN	2.533	6.880	-5.272	1509.890	1499.634	1501.099	-1.237	0.214	-0.901	0.383	5.589	-7.732
44871.979	NaN	2.533	6.891	-5.272	1509.890	1499.634	1501.832	-1.298	0.092	-0.840	0.536	5.589	-7.809
44872.955	NaN	2.533	6.891	-5.272	1511.355	1501.099	1501.099	-1.252	0.015	-0.824	0.306	5.435	-7.732
44873.932	NaN	2.533	6.891	-5.272	1511.355	1499.634	1501.832	-1.221	0.183	-0.763	0.536	5.359	-7.579
44874.908	NaN	2.533	6.891	-5.261	1510.623	1500.366	1500.366	-1.206	0.153	-0.824	0.230	5.359	-7.732
44875.885	NaN	2.522	6.891	-5.261	1510.623	1499.634	1501.099	-1.298	-0.046	-0.809	0.383	5.512	-7.579
44876.862	NaN	2.522	6.880	-5.239	1509.158	1499.634	1499.634	-1.267	0.092	-0.779	0.383	5.359	-7.656
44877.838	NaN	2.522	6.891	-5.250	1510.623	1500.366	1499.634	-1.237	0.198	-0.809	0.306	5.512	-7.656
44878.815	NaN	2.511	6.870	-5.261	1509.890	1499.634	1499.634	-1.344	0.229	-0.779	0.306	5.435	-7.656
44879.791	NaN	2.533	6.880	-5.250	1509.890	1499.634	1499.634	-1.389	0.061	-0.809	0.383	5.435	-7.656
44880.768	NaN	2.533	6.859	-5.250	1509.890	1500.366	1498.168	-1.160	0.153	-0.824	0.383	5.512	-7.579
44881.744	NaN	2.533	6.859	-5.250	1511.355	1501.099	1500.366	-1.053	0.275	-0.748	0.459	5.512	-7.502
44882.721	NaN	2.522	6.870	-5.239	1509.890	1499.634	1500.366	-1.053	0.183	-0.733	0.383	5.435	-7.656
44883.698	NaN	2.522	6.880	-5.228	1509.158	1498.901	1499.634	-1.160	-0.015	-0.763	0.306	5.512	-7.732
44884.674	NaN	2.522	6.891	-5.228	1509.890	1499.634	1501.099	-1.237	0.137	-0.870	0.459	5.435	-7.656
44885.651	NaN	2.533	6.891	-5.239	1510.623	1499.634	1499.634	-1.191	0.214	-0.916	0.306	5.435	-7.656
44886.627	NaN	2.522	6.880	-5.239	1511.355	1500.366	1498.901	-1.053	0.382	-0.840	0.383	5.359	-7.579
44887.604	NaN	2.533	6.880	-5.228	1511.355	1499.634	1501.099	-1.069	0.489	-0.748	0.306	5.512	-7.656
44888.580	NaN	2.533	6.870	-5.217	1510.623	1499.634	1501.099	-1.389	0.427	-0.656	0.383	5.512	-7.502
44889.557	NaN	2.522	6.870	-5.217	1509.890	1499.634	1500.366	-1.389	0.214	-0.733	0.383	5.435	-7.732
44890.533	NaN	2.522	6.870	-5.217	1510.623	1500.366	1498.901	-1.481	0.076	-0.870	0.306	5.435	-7.656
44891.510	NaN	2.533	6.870	-5.207	1510.623	1499.634	1500.366	-1.511	-0.031	-0.885	0.459	5.435	-7.656
44892.487	NaN	2.533	6.859	-5.207	1509.890	1500.366	1500.366	-1.405	-0.092	-0.977	0.306	5.589	-7.732
44893.463	NaN	2.522	6.859	-5.207	1509.890	1500.366	1498.901	-1.237	-0.153	-0.870	0.383	5.435	-7.502
44894.440	NaN	2.511	6.859	-5.196	1509.158	1500.366	1500.366	-1.145	-0.031	-0.870	0.459	5.512	-7.579
44895.416	NaN	2.500	6.859	-5.207	1511.355	1500.366	1499.634	-1.176	0.137	-0.718	0.306	5.589	-7.502
44896.393	NaN	2.511	6.848	-5.196	1510.623	1499.634	1501.099	-1.328	0.214	-0.992	0.459	5.665	-7.579
44897.369	NaN	2.522	6.859	-5.185	1511.355	1498.901	1499.634	-1.221	0.092	-0.992	0.306	5.512	-7.656
44898.346	NaN	2.522	6.859	-5.196	1510.623	1499.634	1500.366	-1.038	0.046	-0.794	0.306	5.435	-7.732
44899.323	NaN	2.500	6.859	-5.207	1509.158	1498.901	1501.099	-1.023	0.015	-0.794	0.459	5.512	-7.732
44900.299	NaN	2.511	6.870	-5.196	1509.890	1499.634	1501.099	-1.145	0.244	-0.824	0.306	5.435	-7.579
44901.276	NaN	2.500	6.870	-5.207	1511.355	1499.634	1500.366	-1.176	0.305	-0.794	0.383	5.435	-7.502
44902.252	NaN	2.489	6.870	-5.196	1511.355	1500.366	1500.366	-1.221	0.122	-1.008	0.383	5.512	-7.579
44903.229	NaN	2.500	6.870	-5.185	1510.623	1498.901	1500.366	-1.206	0.092	-1.023	0.306	5.359	-7.579
44904.205	NaN	2.511	6.870	-5.196	1510.623	1499.634	1500.366	-1.084	0.183	-0.855	0.383	5.435	-7.579
44905.182	NaN	2.511	6.859	-5.196	1511.355	1499.634	1500.366	-1.084	0.076	-0.641	0.383	5.512	-7.426
44906.158	NaN	2.511	6.859	-5.207	1510.623	1499.634	1499.634	-1.160	-0.107	-0.718	0.459	5.435	-7.656
44907.135	NaN	2.500	6.870	-5.217	1510.623	1500.366	1499.634	-1.069	-0.137	-1.038	0.383	5.435	-7.656
44908.112	NaN	2.500	6.859	-5.228	1509.890	1500.366	1499.634	-1.389	-0.076	-0.992	0.459	5.512	-7.349
44909.088	NaN	2.511	6.870	-5.217	1512.088	1501.099	1502.564	-1.298	0.092	-1.023	0.536	5.512	-7.656
44910.065	NaN	2.511	6.880	-5.228	1510.623	1500.366	1499.634	-1.252	0.244	-0.947	0.383	5.512	-7.656
44911.041	NaN	2.511	6.891	-5.228	1510.623	1499.634	1499.634	-1.359	0.275	-0.763	0.306	5.512	-7.579
44912.018	NaN	2.511	6.891	-5.239	1509.890	1501.099	1498.901	-1.542	0.153	-0.855	0.306	5.512	-7.426
44912.994	NaN	2.511	6.902	-5.239	1509.158	1500.366	1499.634	-1.450	-0.031	-1.008	0.230	5.512	-7.579
44913.971	NaN	2.511	6.891	-5.228	1511.355	1500.366	1501.832	-1.435	-0.046	-1.023	0.459	5.512	-7.656
44914.948	NaN	2.522	6.891	-5.239	1510.623	1500.366	1500.366	-1.023	0.046	-0.962	0.230	5.589	-7.732
44915.924	NaN	2.522	6.891	-5.239	1510.623	1499.634	1500.366	-0.794	0.107	-0.855	0.383	5.512	-7.732
44916.901	NaN	2.511	6.902	-5.239	1510.623	1499.634	1501.832	-0.992	0.015	-0.962	0.459	5.435	-7.579
44917.877	NaN	2.511	6.891	-5.239	1511.355	1499.634	1500.366	-1.191	0.168	-0.962	0.383	5.435	-7.502
44918.854	NaN	2.500	6.891	-5.228	1511.355	1500.366	1501.099	-1.298	0.137	-0.809	0.306	5.359	-7.809
44919.830	NaN	2.500	6.891	-5.217	1509.890	1499.634	1501.099	-1.344	0.137	-0.901	0.383	5.359	-7.732
44920.807	NaN	2.511	6.880	-5.228	1510.623	1499.634	1500.366	-1.374	0.321	-0.992	0.459	5.435	-7.732
44921.783	NaN	2.489	6.880	-5.250	1509.890	1499.634	1500.366	-1.496	0.366	-0.855	0.383	5.435	-7.656
44922.760	NaN	2.511	6.880	-5.250	1511.355	1500.366	1499.634	-1.282	0.229	-0.611	0.306	5.435	-7.809
44923.737	NaN	2.511	6.870	-5.250	1510.623	1500.366	1498.901	-1.115	0.198	-0.748	0.383	5.512	-7.579
44924.713	NaN	2.511	6.870	-5.261	1509.890	1500.366	1498.901	-1.038	0.153	-1.099	0.306	5.435	-7.579
44925.690	NaN	2.511	6.880	-5.250	1510.623	1499.634	1500.366	-1.130	0.168	-1.053	0.306	5.435	-7.656
44926.666	3736842347.087	2.511	6.891	-5.250	1511.355	1500.366	1499.634	-1.145	0.229	-0.809	0.306	5.512	-7.732
44927.643	NaN	2.522	6.891	-5.239	1511.355	1499.634	1500.366	-1.008	0.198	-0.733	0.459	5.512	-7.579
44928.619	NaN	2.522	6.891	-5.228	1509.890	1500.366	1501.099	-0.901	0.122	-0.809	0.459	5.435	-7.809
44929.596	NaN	2.522	6.891	-5.239	1510.623	1499.634	1499.634	-1.023	0.031	-0.855	0.306	5.512	-7.502
44930.573	NaN	2.511	6.891	-5.239	1511.355	1498.901	1501.099	-1.237	0.153	-0.809	0.383	5.435	-7.656
44931.549	NaN	2.522	6.891	-5.239	1510.623	1500.366	1500.366	-1.328	0.290	-0.916	0.459	5.359	-7.656
44932.526	NaN	2.522	6.902	-5.228	1510.623	1499.634	1501.099	-1.389	0.107	-1.069	0.459	5.589	-7.656
44933.502	NaN	2.522	6.891	-5.239	1510.623	1499.634	1501.099	-1.359	0.198	-1.130	0.306	5.589	-7.656
44934.479	NaN	2.511	6.902	-5.239	1509.890	1500.366	1498.901	-1.023	0.198	-0.992	0.536	5.435	-7.656
44935.455	NaN	2.511	6.891	-5.272	1510.623	1499.634	1501.099	-1.053	0.122	-0.855	0.383	5.512	-7.579
44936.432	NaN	2.511	6.902	-5.261	1510.623	1500.366	1500.366	-1.130	0.061	-0.718	0.306	5.435	-7.656
44937.408	NaN	2.522	6.902	-5.261	1510.623	1500.366	1499.634	-1.374	0.168	-0.794	0.383	5.512	-7.732
44938.385	NaN	2.511	6.902	-5.272	1509.890	1499.634	1501.099	-1.374	0.244	-0.962	0.306	5.512	-7.502
44939.362	NaN	2.500	6.902	-5.283	1509.158	1499.634	1500.366	-1.221	0.275	-0.901	0.306	5.359	-7.809
44940.338	NaN	2.511	6.913	-5.283	1510.623	1500.366	1498.901	-0.992	0.061	-0.779	0.459	5.512	-7.809
44941.315	NaN	2.511	6.913	-5.283	1510.623	1499.634	1500.366	-1.084	0.031	-0.794	0.383	5.435	-7.732
44942.291	NaN	2.522	6.924	-5.293	1509.158	1500.366	1498.901	-1.115	0.275	-0.718	0.306	5.435	-7.732
44943.268	NaN	2.522	6.913	-5.293	1510.623	1499.634	1501.099	-1.267	0.366	-0.748	0.383	5.512	-7.656
44944.244	NaN	2.522	6.902	-5.304	1512.088	1500.366	1499.634	-1.344	0.336	-0.885	0.536	5.589	-7.502
44945.221	NaN	2.533	6.902	-5.293	1511.355	1500.366	1500.366	-1.282	0.198	-0.962	0.383	5.435	-7.579
44946.198	NaN	2.533	6.913	-5.304	1510.623	1499.634	1502.564	-1.176	0.229	-0.992	0.230	5.359	-7.656
44947.174	NaN	2.533	6.924	-5.293	1509.890	1499.634	1501.832	-1.069	0.351	-0.962	0.153	5.512	-7.732
44948.151	NaN	2.522	6.902	-5.315	1510.623	1499.634	1500.366	-1.053	0.321	-0.931	0.306	5.512	-7.579
44949.127	NaN	2.533	6.913	-5.315	1511.355	1500.366	1500.366	-0.992	0.076	-0.779	0.230	5.512	-7.579
44950.104	NaN	2.522	6.913	-5.315	1511.355	1500.366	1500.366	-1.053	0.244	-0.794	0.230	5.589	-7.656
44951.080	NaN	2.533	6.913	-5.315	1510.623	1500.366	1500.366	-1.206	0.244	-0.885	0.306	5.512	-7.732
44952.057	NaN	2.522	6.924	-5.304	1510.623	1499.634	1501.099	-1.328	0.168	-0.992	0.383	5.512	-7.579
44953.033	NaN	2.511	6.913	-5.326	1509.890	1500.366	1500.366	-1.176	0.244	-0.885	0.383	5.589	-7.732
44954.010	NaN	2.522	6.924	-5.304	1510.623	1500.366	1500.366	-1.191	0.168	-0.901	0.459	5.435	-7.732
44954.987	NaN	2.522	6.924	-5.293	1509.890	1500.366	1500.366	-1.176	0.168	-0.977	0.306	5.435	-7.502
44955.963	NaN	2.511	6.924	-5.315	1509.890	1500.366	1501.099	-1.237	0.137	-1.084	0.383	5.435	-7.732
44956.940	NaN	2.511	6.902	-5.315	1510.623	1499.634	1499.634	-1.115	0.092	-1.237	0.383	5.589	-7.732
44957.916	NaN	2.511	6.902	-5.315	1510.623	1498.901	1498.901	-0.885	0.229	-1.191	0.306	5.359	-7.732
44958.893	NaN	2.533	6.902	-5.304	1509.890	1498.901	1498.168	-0.947	0.321	-1.099	0.459	5.512	-7.732
44959.869	NaN	2.533	6.913	-5.283	1509.890	1500.366	1499.634	-1.328	0.153	-1.099	0.383	5.435	-7.809
44960.846	NaN	2.533	6.913	-5.293	1510.623	1499.634	1500.366	-1.527	0.122	-1.099	0.459	5.665	-7.732
44961.823	NaN	2.511	6.913	-5.315	1511.355	1498.901	1500.366	-1.359	0.122	-0.794	0.383	5.435	-7.732
44962.799	NaN	2.511	6.913	-5.304	1510.623	1499.634	1501.832	-1.267	0.198	-0.763	0.306	5.589	-7.732
44963.776	NaN	2.511	6.913	-5.304	1511.355	1499.634	1501.099	-1.191	0.137	-1.053	0.230	5.512	-7.656
44964.752	NaN	2.511	6.924	-5.304	1509.158	1499.634	1500.366	-1.130	-0.076	-1.053	0.383	5.512	-7.732
44965.729	NaN	2.522	6.902	-5.293	1511.355	1499.634	1499.634	-1.160	0.076	-0.901	0.383	5.512	-7.656
44966.705	NaN	2.522	6.902	-5.304	1509.890	1501.099	1498.168	-0.977	0.137	-0.870	0.306	5.512	-7.732
44967.682	NaN	2.522	6.891	-5.304	1510.623	1500.366	1499.634	-0.931	-0.229	-0.931	0.383	5.589	-7.732
44968.658	NaN	2.522	6.891	-5.315	1511.355	1499.634	1501.099	-1.115	-0.122	-1.099	0.230	5.512	-7.732
44969.635	NaN	2.522	6.891	-5.315	1509.890	1500.366	1500.366	-1.160	-0.015	-1.221	0.383	5.665	-7.656
44970.612	NaN	2.522	6.891	-5.315	1509.890	1499.634	1500.366	-1.160	0.015	-0.992	0.536	5.435	-7.809
44971.588	NaN	2.533	6.902	-5.293	1511.355	1499.634	1501.099	-1.130	0.275	-1.038	0.536	5.512	-7.732
44972.565	NaN	2.543	6.902	-5.283	1511.355	1500.366	1500.366	-1.176	0.336	-1.176	0.459	5.589	-7.656
44973.541	NaN	2.543	6.902	-5.293	1508.425	1500.366	1500.366	-1.206	0.046	-1.160	0.459	5.512	-7.809
44974.518	NaN	2.543	6.902	-5.283	1509.890	1500.366	1500.366	-1.160	-0.046	-1.084	0.306	5.512	-7.732
44975.494	NaN	2.533	6.902	-5.304	1511.355	1499.634	1500.366	-0.947	0.015	-0.947	0.459	5.589	-7.656
44976.471	NaN	2.522	6.902	-5.293	1510.623	1499.634	1501.099	-0.916	-0.046	-0.916	0.383	5.435	-7.656
44977.448	NaN	2.511	6.891	-5.293	1512.088	1499.634	1500.366	-1.191	-0.168	-0.962	0.306	5.435	-7.502
44978.424	NaN	2.500	6.880	-5.283	1510.623	1499.634	1501.099	-1.344	-0.275	-0.931	0.383	5.435	-7.732
44979.401	NaN	2.500	6.880	-5.283	1510.623	1498.901	1501.099	-1.176	-0.153	-0.931	0.459	5.512	-7.656
44980.377	NaN	2.511	6.880	-5.272	1511.355	1501.099	1500.366	-1.115	-0.214	-1.145	0.459	5.512	-7.732
44981.354	NaN	2.522	6.891	-5.272	1510.623	1499.634	1501.832	-1.176	-0.107	-1.206	0.383	5.512	-7.656
44982.330	NaN	2.522	6.880	-5.272	1510.623	1500.366	1498.168	-1.038	0.046	-1.053	0.383	5.589	-7.656
44983.307	NaN	2.533	6.891	-5.261	1510.623	1500.366	1499.634	-0.702	0.015	-0.855	0.383	5.589	-7.732
44984.283	NaN	2.522	6.880	-5.261	1511.355	1498.901	1498.901	-0.870	-0.107	-0.824	0.383	5.512	-7.579
44985.260	NaN	2.522	6.880	-5.250	1509.890	1500.366	1499.634	-1.084	-0.168	-0.824	0.230	5.512	-7.809
44986.237	NaN	2.533	6.880	-5.250	1510.623	1501.099	1500.366	-1.542	0.015	-0.977	0.383	5.512	-7.656
44987.213	NaN	2.511	6.870	-5.228	1510.623	1501.099	1500.366	-1.435	0.015	-1.038	0.230	5.435	-7.656
44988.190	NaN	2.511	6.870	-5.217	1510.623	1499.634	1500.366	-1.221	-0.107	-0.992	0.383	5.282	-7.579
44989.166	NaN	2.511	6.880	-5.228	1512.088	1500.366	1498.901	-1.145	-0.153	-0.992	0.383	5.589	-7.656
44990.143	NaN	2.511	6.891	-5.228	1510.623	1499.634	1501.099	-1.328	-0.015	-1.084	0.383	5.435	-7.656
44991.119	NaN	2.511	6.880	-5.228	1510.623	1498.901	1500.366	-1.389	0.046	-1.023	0.383	5.435	-7.426
44992.096	NaN	2.522	6.870	-5.228	1509.158	1499.634	1501.099	-0.855	-0.061	-0.840	0.306	5.512	-7.579
44993.073	NaN	2.522	6.870	-5.217	1510.623	1499.634	1498.901	-0.794	-0.153	-1.023	0.459	5.435	-7.656
44994.049	NaN	2.522	6.870	-5.207	1510.623	1500.366	1499.634	-0.962	-0.168	-1.099	0.306	5.589	-7.579
44995.026	NaN	2.533	6.870	-5.207	1511.355	1499.634	1501.099	-1.099	-0.153	-1.084	0.383	5.435	-7.579
44996.002	NaN	2.522	6.880	-5.196	1509.890	1499.634	1500.366	-0.916	0.000	-0.947	0.306	5.435	-7.656
44996.979	NaN	2.522	6.880	-5.196	1510.623	1499.634	1502.564	-1.023	0.122	-0.718	0.536	5.512	-7.502
45077.057	NaN	2.533	6.891	-5.250	1510.623	1500.366	1498.901	-0.748	-0.031	-1.053	0.383	5.435	-7.656
45078.033	NaN	2.533	6.891	-5.261	1510.623	1499.634	1500.366	-0.809	-0.214	-1.115	0.383	5.359	-7.656
45079.010	NaN	2.533	6.880	-5.261	1511.355	1500.366	1500.366	-0.840	-0.305	-1.160	0.383	5.665	-7.579
45079.987	NaN	2.533	6.880	-5.261	1511.355	1499.634	1500.366	-0.824	-0.168	-1.145	0.383	5.435	-7.732
45080.963	NaN	2.533	6.870	-5.261	1510.623	1499.634	1499.634	-0.718	-0.137	-1.084	0.306	5.435	-7.732
45081.940	NaN	2.522	6.870	-5.261	1509.890	1499.634	1499.634	-0.550	-0.122	-1.191	0.459	5.359	-7.732
45082.916	NaN	2.511	6.870	-5.261	1511.355	1499.634	1500.366	-0.611	-0.015	-0.977	0.383	5.435	-7.656
45083.893	NaN	2.511	6.891	-5.250	1511.355	1500.366	1499.634	-0.580	0.046	-0.855	0.383	5.512	-7.809
45084.869	NaN	2.511	6.880	-5.239	1509.890	1499.634	1498.901	-0.473	0.000	-0.916	0.459	5.512	-7.656
45085.846	NaN	2.511	6.891	-5.239	1510.623	1499.634	1501.099	-0.427	0.046	-0.840	0.383	5.359	-7.656
45086.823	NaN	2.511	6.880	-5.239	1511.355	1499.634	1499.634	-0.687	-0.092	-0.672	0.383	5.512	-7.656
45087.799	NaN	2.522	6.891	-5.228	1510.623	1500.366	1500.366	-0.702	0.000	-0.885	0.230	5.435	-7.732
45088.776	NaN	2.533	6.891	-5.217	1510.623	1500.366	1499.634	-0.733	0.076	-0.977	0.306	5.512	-7.502
45089.752	NaN	2.533	6.880	-5.217	1509.890	1500.366	1500.366	-0.656	0.061	-0.962	0.383	5.512	-7.579
45090.729	NaN	2.543	6.880	-5.217	1509.890	1500.366	1500.366	-0.504	0.031	-0.931	0.383	5.589	-7.579
45091.705	NaN	2.522	6.880	-5.217	1510.623	1499.634	1499.634	-0.412	-0.092	-0.885	0.383	5.435	-7.656
45092.682	NaN	2.522	6.880	-5.217	1510.623	1499.634	1501.832	-0.763	-0.031	-0.794	0.383	5.512	-7.656
45093.658	NaN	2.522	6.902	-5.217	1510.623	1499.634	1500.366	-0.885	0.015	-0.809	0.383	5.512	-7.732
45094.635	NaN	2.522	6.902	-5.228	1509.890	1498.901	1499.634	-0.916	-0.015	-0.855	0.306	5.512	-7.502
45095.612	NaN	2.511	6.880	-5.239	1510.623	1498.901	1500.366	-0.718	-0.061	-0.718	0.383	5.282	-7.579
45096.588	NaN	2.522	6.880	-5.228	1510.623	1501.099	1500.366	-0.504	-0.275	-0.641	0.459	5.512	-7.732
45097.565	NaN	2.522	6.880	-5.228	1510.623	1499.634	1501.832	-0.382	-0.305	-0.901	0.306	5.435	-7.579
45098.541	NaN	2.511	6.880	-5.228	1509.890	1499.634	1501.099	-0.412	-0.046	-1.069	0.306	5.435	-7.579
45099.518	NaN	2.511	6.870	-5.228	1509.890	1500.366	1498.901	-0.580	0.122	-1.160	0.306	5.512	-7.502
45100.494	NaN	2.500	6.870	-5.239	1509.890	1501.099	1498.901	-0.611	0.015	-1.008	0.459	5.435	-7.656
45149.323	NaN	2.511	6.902	-5.304	1509.158	1499.634	1500.366	-0.489	0.168	-0.748	0.459	5.589	-7.732
45150.299	NaN	2.511	6.913	-5.293	1510.623	1500.366	1501.832	-0.397	0.305	-0.840	0.306	5.512	-7.809
45151.276	NaN	2.511	6.913	-5.304	1509.890	1500.366	1498.901	-0.427	0.107	-0.824	0.383	5.665	-7.579
45152.252	NaN	2.500	6.902	-5.293	1511.355	1501.099	1500.366	-0.427	0.015	-0.748	0.306	5.435	-7.732
45153.229	NaN	2.511	6.902	-5.304	1509.890	1499.634	1501.832	-0.351	-0.031	-0.870	0.383	5.589	-7.732
45154.205	NaN	2.500	6.913	-5.326	1511.355	1500.366	1499.634	-0.229	0.061	-0.962	0.383	5.512	-7.656
45155.182	NaN	2.522	6.913	-5.315	1511.355	1499.634	1501.099	-0.244	0.198	-0.977	0.459	5.589	-7.885
45156.158	NaN	2.522	6.924	-5.315	1510.623	1500.366	1501.099	-0.275	0.214	-0.901	0.383	5.589	-7.656
45157.135	3736842347.254	2.533	6.924	-5.326	1509.158	1499.634	1499.634	-0.412	0.046	-1.023	0.306	5.512	-7.809
45158.112	NaN	2.522	6.924	-5.337	1510.623	1499.634	1501.832	-0.336	-0.046	-0.779	0.383	5.435	-7.809
45159.088	NaN	2.533	6.924	-5.326	1511.355	1499.634	1501.099	-0.122	-0.137	-0.626	0.383	5.665	-7.732
45160.065	NaN	2.533	6.924	-5.326	1511.355	1499.634	1499.634	-0.305	0.031	-0.672	0.459	5.512	-7.732
45161.041	NaN	2.522	6.913	-5.326	1510.623	1499.634	1500.366	-0.626	0.168	-1.038	0.383	5.435	-7.885
45162.018	NaN	2.522	6.924	-5.326	1509.890	1500.366	1501.099	-0.672	-0.015	-1.115	0.306	5.512	-7.579
45162.994	NaN	2.511	6.924	-5.326	1511.355	1499.634	1499.634	-0.244	-0.061	-0.901	0.383	5.435	-7.656
45163.971	NaN	2.511	6.924	-5.315	1510.623	1500.366	1499.634	-0.214	0.000	-0.824	0.306	5.512	-7.809
45164.948	NaN	2.511	6.913	-5.315	1509.890	1500.366	1498.901	-0.519	-0.015	-0.901	0.459	5.512	-7.502
45165.924	NaN	2.500	6.913	-5.326	1509.158	1499.634	1500.366	-0.382	0.000	-0.809	0.306	5.359	-7.656
45166.901	NaN	2.511	6.913	-5.315	1509.890	1500.366	1499.634	-0.397	0.000	-0.870	0.306	5.512	-7.579
45167.877	NaN	2.511	6.913	-5.315	1510.623	1501.099	1499.634	-0.473	-0.015	-0.916	0.459	5.589	-7.732
45168.854	NaN	2.500	6.913	-5.304	1510.623	1500.366	1499.634	-0.412	0.046	-0.763	0.383	5.359	-7.732
45169.830	NaN	2.511	6.913	-5.304	1509.890	1499.634	1501.099	-0.351	0.168	-0.809	0.459	5.435	-7.962
45170.807	NaN	2.511	6.913	-5.272	1509.158	1500.366	1501.099	-0.336	0.214	-0.885	0.383	5.512	-7.885
45171.783	NaN	2.500	6.902	-5.283	1510.623	1499.634	1500.366	-0.351	-0.092	-0.870	0.383	5.512	-7.885
45172.760	NaN	2.500	6.891	-5.283	1509.890	1501.099	1500.366	-0.412	-0.229	-0.763	0.306	5.512	-7.579
45173.737	NaN	2.500	6.891	-5.283	1510.623	1500.366	1498.901	-0.183	-0.076	-0.672	0.383	5.435	-7.579
45174.713	NaN	2.500	6.880	-5.283	1509.890	1500.366	1500.366	-0.260	0.107	-0.763	0.459	5.435	-7.656
45175.690	NaN	2.500	6.891	-5.261	1509.890	1499.634	1500.366	-0.580	0.153	-0.885	0.459	5.435	-7.732
45176.666	NaN	2.511	6.902	-5.272	1511.355	1499.634	1501.099	-0.550	0.061	-0.870	0.459	5.589	-7.656
45177.643	NaN	2.511	6.902	-5.261	1510.623	1499.634	1501.099	-0.321	-0.031	-0.718	0.383	5.512	-7.656
45178.619	NaN	2.511	6.891	-5.250	1511.355	1499.634	1500.366	-0.275	0.137	-0.748	0.306	5.512	-7.885
45179.596	NaN	2.500	6.902	-5.250	1509.890	1499.634	1498.901	-0.321	0.122	-0.885	0.306	5.589	-7.656
45180.573	NaN	2.489	6.902	-5.272	1511.355	1499.634	1498.901	-0.244	0.076	-0.809	0.306	5.512	-7.502
45181.549	NaN	2.489	6.902	-5.250	1509.890	1500.366	1501.099	-0.275	0.092	-0.840	0.383	5.359	-7.656
45182.526	NaN	2.500	6.891	-5.239	1509.890	1499.634	1500.366	-0.489	0.122	-0.779	0.383	5.589	-7.579
45183.502	NaN	2.511	6.891	-5.239	1510.623	1500.366	1500.366	-0.595	0.275	-0.718	0.459	5.359	-7.656
45184.479	NaN	2.511	6.880	-5.239	1509.890	1498.901	1501.099	-0.443	0.198	-0.687	0.306	5.435	-7.732
45185.455	NaN	2.511	6.891	-5.261	1509.890	1500.366	1500.366	-0.290	0.183	-0.656	0.306	5.512	-7.426
45186.432	NaN	2.511	6.891	-5.239	1509.890	1500.366	1500.366	-0.519	0.214	-0.672	0.306	5.512	-7.579
45187.408	NaN	2.522	6.880	-5.228	1512.088	1499.634	1500.366	-0.718	0.260	-0.702	0.459	5.512	-7.426
45188.385	NaN	2.522	6.880	-5.228	1509.890	1499.634	1500.366	-0.443	0.260	-0.779	0.459	5.512	-7.579
45189.362	NaN	2.511	6.880	-5.239	1510.623	1499.634	1501.099	-0.198	0.031	-0.870	0.459	5.512	-7.579
45190.338	NaN	2.500	6.870	-5.228	1509.890	1498.901	1498.901	-0.137	0.031	-0.840	0.230	5.435	-7.579
45191.315	NaN	2.511	6.891	-5.196	1509.890	1499.634	1500.366	-0.137	0.046	-0.763	0.383	5.589	-7.579
45192.291	NaN	2.500	6.880	-5.207	1510.623	1499.634	1500.366	-0.443	0.244	-0.901	0.383	5.512	-7.502
45193.268	NaN	2.500	6.880	-5.207	1509.890	1500.366	1498.168	-0.427	0.244	-0.840	0.383	5.435	-7.656
45194.244	NaN	2.500	6.870	-5.207	1511.355	1500.366	1500.366	-0.489	0.153	-0.641	0.459	5.282	-7.579
45195.221	NaN	2.500	6.870	-5.196	1510.623	1500.366	1499.634	-0.366	0.076	-0.580	0.383	5.589	-7.579
45196.198	NaN	2.511	6.859	-5.196	1509.890	1499.634	1500.366	-0.137	0.214	-0.611	0.383	5.435	-7.502
45197.174	NaN	2.511	6.859	-5.196	1510.623	1499.634	1501.099	-0.092	0.382	-0.641	0.306	5.359	-7.502
45198.151	NaN	2.500	6.859	-5.207	1509.890	1499.634	1500.366	-0.336	0.336	-0.656	0.306	5.282	-7.656
45199.127	NaN	2.511	6.880	-5.207	1512.088	1500.366	1499.634	-0.519	0.290	-0.794	0.459	5.359	-7.502
45200.104	NaN	2.500	6.870	-5.196	1510.623	1500.366	1500.366	-0.427	0.351	-0.885	0.230	5.435	-7.656
45201.080	NaN	2.500	6.870	-5.207	1510.623	1500.366	1499.634	-0.336	0.458	-0.824	0.383	5.359	-7.579
45202.057	NaN	2.489	6.859	-5.196	1510.623	1499.634	1499.634	-0.336	0.458	-0.794	0.383	5.435	-7.579
45203.033	NaN	2.489	6.870	-5.196	1511.355	1500.366	1499.634	-0.626	0.244	-0.733	0.383	5.589	-7.502
45204.010	NaN	2.500	6.870	-5.174	1509.890	1501.099	1499.634	-0.504	0.229	-0.595	0.459	5.359	-7.656
45262.604	NaN	2.522	6.891	-5.293	1509.890	1498.168	1501.099	-0.534	0.046	-0.748	0.459	5.589	-7.732
45263.580	NaN	2.533	6.902	-5.293	1509.890	1500.366	1500.366	-0.366	-0.076	-0.809	0.459	5.589	-7.579
45264.557	NaN	2.522	6.891	-5.293	1509.158	1498.901	1498.901	-0.397	0.061	-0.824	0.383	5.512	-7.732
45265.533	NaN	2.533	6.902	-5.293	1511.355	1499.634	1498.901	-0.504	-0.046	-0.565	0.306	5.589	-7.732
45266.510	NaN	2.522	6.891	-5.293	1509.890	1499.634	1499.634	-0.580	0.092	-0.733	0.383	5.589	-7.579
45267.487	NaN	2.533	6.891	-5.283	1508.425	1499.634	1499.634	-0.840	0.290	-0.931	0.459	5.359	-7.732
45268.463	NaN	2.543	6.891	-5.272	1510.623	1499.634	1501.832	-0.641	0.229	-0.840	0.383	5.435	-7.732
45269.440	NaN	2.533	6.902	-5.272	1509.158	1498.901	1499.634	-0.504	0.183	-0.809	0.230	5.512	-7.579
45270.416	NaN	2.533	6.902	-5.272	1509.890	1500.366	1497.436	-0.580	0.061	-0.763	0.383	5.435	-7.656
45271.393	NaN	2.533	6.902	-5.283	1509.890	1499.634	1499.634	-0.626	0.168	-0.626	0.383	5.512	-7.502
45272.369	NaN	2.543	6.902	-5.272	1510.623	1498.901	1500.366	-0.672	0.076	-0.718	0.459	5.512	-7.656
45273.346	NaN	2.533	6.902	-5.272	1511.355	1499.634	1500.366	-0.687	0.031	-0.779	0.306	5.512	-7.579
45274.323	NaN	2.533	6.891	-5.272	1511.355	1499.634	1500.366	-0.550	-0.031	-0.809	0.383	5.512	-7.656
45275.299	NaN	2.543	6.902	-5.250	1511.355	1500.366	1501.099	-0.336	-0.015	-0.855	0.306	5.435	-7.579
45276.276	NaN	2.543	6.891	-5.250	1511.355	1500.366	1500.366	-0.382	0.061	-0.809	0.459	5.435	-7.579
45277.252	NaN	2.533	6.891	-5.239	1510.623	1500.366	1499.634	-0.763	0.092	-0.641	0.306	5.435	-7.656
45278.229	NaN	2.522	6.870	-5.239	1510.623	1499.634	1499.634	-0.840	0.046	-0.718	0.459	5.512	-7.656
45279.205	NaN	2.511	6.880	-5.250	1511.355	1500.366	1499.634	-0.504	0.092	-0.840	0.459	5.435	-7.579
45280.182	NaN	2.511	6.870	-5.250	1511.355	1498.901	1500.366	-0.351	0.061	-0.763	0.383	5.435	-7.426
45281.158	NaN	2.500	6.880	-5.261	1510.623	1499.634	1501.099	-0.305	0.031	-0.702	0.459	5.359	-7.732
45282.135	NaN	2.511	6.870	-5.250	1510.623	1498.901	1498.901	-0.412	0.031	-0.779	0.153	5.512	-7.502
45283.112	NaN	2.500	6.870	-5.239	1510.623	1498.901	1499.634	-0.611	0.183	-0.809	0.383	5.512	-7.502
45284.088	NaN	2.511	6.870	-5.228	1510.623	1500.366	1500.366	-0.656	0.244	-0.702	0.306	5.359	-7.579
45285.065	NaN	2.522	6.880	-5.217	1510.623	1500.366	1499.634	-0.534	0.229	-0.565	0.383	5.512	-7.579
45286.041	NaN	2.522	6.870	-5.217	1509.890	1500.366	1500.366	-0.534	0.153	-0.718	0.383	5.435	-7.502
45287.018	NaN	2.533	6.880	-5.228	1510.623	1499.634	1500.366	-0.656	0.000	-0.824	0.306	5.512	-7.656
45287.994	NaN	2.522	6.880	-5.250	1511.355	1499.634	1500.366	-0.626	-0.046	-0.748	0.306	5.512	-7.656
45288.971	NaN	2.522	6.880	-5.228	1510.623	1500.366	1499.634	-0.366	0.031	-0.626	0.383	5.512	-7.426
45289.948	NaN	2.511	6.870	-5.228	1510.623	1499.634	1500.366	-0.443	0.046	-0.656	0.306	5.512	-7.656
45290.924	NaN	2.500	6.880	-5.228	1509.890	1500.366	1499.634	-0.641	0.031	-0.748	0.383	5.512	-7.579
45291.901	NaN	2.500	6.859	-5.228	1508.425	1499.634	1500.366	-0.718	-0.092	-0.718	0.306	5.512	-7.656
45292.877	NaN	2.500	6.870	-5.228	1511.355	1501.099	1501.099	-0.611	-0.015	-0.809	0.383	5.435	-7.579
45293.854	NaN	2.511	6.870	-5.217	1510.623	1499.634	1501.099	-0.397	0.000	-0.718	0.459	5.359	-7.656
45294.830	NaN	2.500	6.870	-5.217	1511.355	1499.634	1501.832	-0.427	-0.137	-0.718	0.383	5.512	-7.502
45295.807	NaN	2.500	6.870	-5.207	1510.623	1500.366	1498.901	-0.626	0.000	-0.824	0.459	5.435	-7.579
45296.783	NaN	2.500	6.870	-5.228	1510.623	1499.634	1501.099	-0.656	0.168	-0.718	0.383	5.435	-7.656
45297.760	NaN	2.500	6.870	-5.217	1508.425	1500.366	1500.366	-0.641	0.076	-0.702	0.306	5.359	-7.579
45298.737	NaN	2.511	6.870	-5.217	1511.355	1500.366	1501.099	-0.534	0.092	-0.748	0.459	5.512	-7.579
45299.713	NaN	2.511	6.859	-5.217	1511.355	1499.634	1501.099	-0.641	0.321	-0.885	0.306	5.435	-7.502
45300.690	NaN	2.511	6.848	-5.207	1507.692	1499.634	1500.366	-0.656	0.336	-0.794	0.306	5.512	-7.656
45301.666	NaN	2.522	6.859	-5.217	1511.355	1500.366	1500.366	-0.489	0.107	-0.901	0.306	5.359	-7.656
45302.643	NaN	2.522	6.859	-5.217	1510.623	1499.634	1500.366	-0.534	0.107	-0.947	0.383	5.435	-7.579
45303.619	NaN	2.522	6.859	-5.217	1511.355	1499.634	1500.366	-0.672	0.107	-0.885	0.230	5.435	-7.579
45304.596	NaN	2.522	6.859	-5.228	1509.890	1500.366	1500.366	-0.794	0.061	-0.672	0.383	5.282	-7.656
45328.033	NaN	2.511	6.870	-5.250	1509.158	1500.366	1498.901	-0.748	0.183	-0.718	0.459	5.512	-7.426
45329.010	NaN	2.533	6.870	-5.239	1509.890	1500.366	1501.099	-0.687	0.214	-0.702	0.306	5.435	-7.732
45329.987	NaN	2.511	6.870	-5.261	1509.890	1499.634	1500.366	-0.840	0.107	-1.023	0.383	5.512	-7.579
45330.963	NaN	2.533	6.870	-5.239	1510.623	1499.634	1501.832	-0.947	0.122	-1.008	0.306	5.435	-7.732
45331.940	NaN	2.533	6.870	-5.261	1509.158	1501.099	1498.901	-0.855	0.122	-0.824	0.306	5.435	-7.732
45332.916	NaN	2.522	6.870	-5.261	1509.890	1498.901	1499.634	-0.748	0.137	-0.733	0.306	5.359	-7.732
45333.893	NaN	2.533	6.880	-5.250	1510.623	1499.634	1500.366	-0.702	0.046	-0.779	0.230	5.359	-7.809
45334.869	NaN	2.533	6.880	-5.272	1510.623	1500.366	1499.634	-0.824	0.000	-0.763	0.459	5.435	-7.656
45335.846	NaN	2.533	6.891	-5.250	1510.623	1499.634	1500.366	-0.733	0.137	-0.931	0.383	5.435	-7.732
45336.823	NaN	2.511	6.891	-5.261	1509.890	1500.366	1500.366	-0.824	0.321	-0.916	0.306	5.435	-7.502
45337.799	NaN	2.511	6.891	-5.261	1510.623	1498.901	1499.634	-0.885	0.244	-0.748	0.306	5.435	-7.579
45338.776	NaN	2.511	6.891	-5.261	1510.623	1500.366	1500.366	-0.885	0.122	-0.870	0.383	5.589	-7.656
45339.752	NaN	2.511	6.891	-5.261	1510.623	1500.366	1501.099	-0.748	0.260	-0.885	0.306	5.435	-7.732
45340.729	NaN	2.511	6.891	-5.272	1508.425	1499.634	1499.634	-0.779	0.168	-0.870	0.383	5.512	-7.732
45341.705	NaN	2.522	6.880	-5.272	1510.623	1500.366	1500.366	-0.916	0.061	-0.977	0.383	5.512	-7.656
45342.682	NaN	2.522	6.891	-5.272	1510.623	1499.634	1499.634	-0.870	0.031	-0.992	0.383	5.359	-7.732
45343.658	NaN	2.533	6.880	-5.261	1509.890	1499.634	1501.099	-0.794	-0.061	-0.931	0.306	5.589	-7.809
45344.635	NaN	2.522	6.880	-5.272	1510.623	1499.634	1500.366	-0.840	0.000	-0.672	0.306	5.512	-7.579
45345.612	NaN	2.511	6.880	-5.283	1510.623	1499.634	1500.366	-0.977	-0.076	-0.565	0.306	5.512	-7.656
45346.588	NaN	2.522	6.891	-5.250	1511.355	1499.634	1501.099	-1.008	-0.061	-0.763	0.306	5.512	-7.656
45347.565	NaN	2.522	6.880	-5.261	1510.623	1499.634	1501.832	-0.733	-0.015	-0.870	0.383	5.589	-7.732
45348.541	NaN	2.533	6.891	-5.272	1510.623	1498.901	1500.366	-0.885	0.107	-0.763	0.306	5.435	-7.732
45349.518	NaN	2.533	6.891	-5.283	1510.623	1499.634	1501.099	-0.977	0.198	-0.595	0.536	5.512	-7.809
45350.494	NaN	2.522	6.891	-5.272	1511.355	1499.634	1498.901	-0.809	0.137	-0.718	0.383	5.512	-7.809
45351.471	NaN	2.522	6.891	-5.261	1511.355	1499.634	1500.366	-1.008	0.092	-0.748	0.459	5.512	-7.502
45352.448	NaN	2.511	6.891	-5.272	1510.623	1499.634	1501.099	-1.145	0.092	-0.748	0.536	5.435	-7.885
45353.424	NaN	2.500	6.880	-5.261	1511.355	1498.901	1499.634	-1.130	0.046	-0.641	0.306	5.512	-7.656
45354.401	NaN	2.500	6.891	-5.261	1510.623	1499.634	1499.634	-0.977	0.107	-0.748	0.459	5.512	-7.732
45355.377	NaN	2.511	6.902	-5.272	1511.355	1500.366	1498.901	-0.763	-0.031	-0.794	0.383	5.512	-7.656
45356.354	NaN	2.522	6.891	-5.261	1510.623	1498.901	1500.366	-0.672	-0.076	-1.084	0.459	5.359	-7.579
45357.330	NaN	2.522	6.891	-5.272	1509.890	1500.366	1500.366	-0.641	0.046	-1.069	0.383	5.512	-7.579
45358.307	NaN	2.522	6.891	-5.283	1510.623	1499.634	1500.366	-0.901	0.076	-0.718	0.383	5.512	-7.809
45359.283	NaN	2.533	6.891	-5.293	1510.623	1500.366	1499.634	-0.916	-0.137	-0.641	0.383	5.435	-7.732
45360.260	NaN	2.543	6.891	-5.293	1510.623	1500.366	1500.366	-1.038	0.031	-0.733	0.383	5.589	-7.656
45361.237	NaN	2.543	6.902	-5.304	1509.890	1500.366	1500.366	-0.962	0.000	-0.809	0.459	5.512	-7.962
45362.213	NaN	2.533	6.891	-5.304	1510.623	1498.168	1500.366	-1.023	-0.214	-0.901	0.306	5.435	-7.502
45363.190	NaN	2.522	6.891	-5.304	1509.890	1499.634	1499.634	-0.947	-0.198	-0.992	0.383	5.435	-7.656
45364.166	NaN	2.533	6.891	-5.304	1511.355	1499.634	1500.366	-0.870	0.031	-1.053	0.459	5.435	-7.656
45365.143	NaN	2.533	6.891	-5.304	1508.425	1500.366	1499.634	-0.901	0.260	-0.992	0.459	5.435	-7.732
45366.119	NaN	2.543	6.870	-5.315	1509.890	1499.634	1501.099	-0.992	0.183	-0.992	0.459	5.512	-7.579
45367.096	NaN	2.533	6.880	-5.315	1512.821	1499.634	1499.634	-1.145	0.137	-0.855	0.459	5.435	-7.579
45368.073	NaN	2.533	6.880	-5.315	1509.890	1499.634	1501.099	-1.359	0.000	-0.779	0.383	5.512	-7.732
45369.049	NaN	2.543	6.880	-5.304	1509.890	1500.366	1500.366	-1.221	0.092	-0.763	0.383	5.589	-7.809
45370.026	NaN	2.533	6.891	-5.293	1509.890	1499.634	1501.099	-0.977	0.000	-0.977	0.306	5.589	-7.809
45371.002	NaN	2.522	6.880	-5.283	1509.158	1499.634	1499.634	-0.824	0.000	-0.855	0.306	5.435	-7.656
45371.979	NaN	2.522	6.880	-5.283	1510.623	1499.634	1500.366	-0.794	-0.046	-0.977	0.383	5.512	-7.579
45372.955	NaN	2.511	6.880	-5.293	1511.355	1500.366	1499.634	-1.084	-0.015	-1.069	0.383	5.512	-7.502
45373.932	NaN	2.511	6.891	-5.283	1510.623	1500.366	1499.634	-1.053	-0.076	-1.237	0.306	5.589	-7.809
45374.908	NaN	2.511	6.880	-5.272	1509.890	1499.634	1500.366	-0.824	-0.168	-1.130	0.306	5.435	-7.732
45375.885	NaN	2.511	6.880	-5.272	1510.623	1500.366	1498.168	-0.779	0.000	-0.901	0.383	5.435	-7.732
45376.862	NaN	2.489	6.870	-5.283	1510.623	1498.901	1500.366	-0.794	0.031	-0.687	0.383	5.512	-7.732
45377.838	NaN	2.500	6.880	-5.272	1511.355	1500.366	1499.634	-1.084	-0.092	-0.763	0.383	5.359	-7.656
45378.815	NaN	2.511	6.870	-5.283	1510.623	1500.366	1501.099	-1.160	-0.031	-0.855	0.306	5.435	-7.579
45379.791	NaN	2.511	6.880	-5.272	1509.158	1500.366	1500.366	-0.977	-0.031	-1.084	0.383	5.589	-7.809
45380.768	NaN	2.500	6.880	-5.272	1510.623	1499.634	1498.901	-1.053	0.061	-1.023	0.306	5.512	-7.732
45381.744	NaN	2.500	6.880	-5.261	1511.355	1500.366	1499.634	-1.206	0.015	-0.885	0.536	5.435	-7.579
45382.721	NaN	2.500	6.880	-5.239	1510.623	1500.366	1501.832	-1.237	-0.214	-0.901	0.459	5.512	-7.579
45383.698	NaN	2.511	6.891	-5.239	1510.623	1500.366	1501.099	-0.977	-0.336	-0.977	0.383	5.512	-7.809
45384.674	NaN	2.511	6.891	-5.239	1509.890	1499.634	1499.634	-0.901	-0.260	-1.115	0.459	5.435	-7.809
45385.651	NaN	2.500	6.870	-5.250	1510.623	1498.901	1501.099	-0.901	0.046	-1.115	0.383	5.512	-7.656
45386.627	NaN	2.511	6.859	-5.250	1509.158	1499.634	1500.366	-1.176	-0.015	-0.962	0.383	5.282	-7.579
45387.604	NaN	2.511	6.870	-5.239	1509.158	1499.634	1500.366	-1.084	-0.137	-0.901	0.306	5.435	-7.426
45388.580	NaN	2.511	6.870	-5.239	1510.623	1499.634	1500.366	-0.794	-0.321	-0.870	0.306	5.359	-7.579
45389.557	NaN	2.500	6.880	-5.239	1509.158	1499.634	1499.634	-0.885	-0.122	-0.992	0.306	5.435	-7.656
45390.533	NaN	2.511	6.880	-5.228	1511.355	1499.634	1501.099	-1.115	0.031	-0.992	0.230	5.359	-7.656
45391.510	NaN	2.522	6.880	-5.217	1509.158	1499.634	1501.832	-1.130	0.015	-0.977	0.383	5.589	-7.502
45392.487	NaN	2.522	6.859	-5.217	1510.623	1499.634	1500.366	-0.977	0.061	-0.855	0.306	5.512	-7.579
45393.463	NaN	2.522	6.859	-5.217	1510.623	1500.366	1499.634	-1.053	0.015	-0.931	0.459	5.589	-7.732
45394.440	NaN	2.511	6.859	-5.228	1509.890	1500.366	1500.366	-1.130	0.046	-0.718	0.383	5.435	-7.656
45395.416	NaN	2.511	6.870	-5.217	1510.623	1498.901	1498.901	-1.084	-0.015	-0.748	0.306	5.589	-7.656
45396.393	NaN	2.511	6.859	-5.217	1508.425	1499.634	1499.634	-1.069	-0.015	-0.947	0.383	5.435	-7.502
45397.369	NaN	2.511	6.870	-5.217	1511.355	1500.366	1498.901	-1.115	0.031	-1.145	0.383	5.435	-7.579
45398.346	NaN	2.511	6.859	-5.207	1509.158	1499.634	1501.099	-1.115	0.107	-0.947	0.383	5.435	-7.579
45399.323	NaN	2.511	6.870	-5.217	1510.623	1499.634	1499.634	-1.176	-0.046	-0.855	0.306	5.512	-7.732
45400.299	NaN	2.511	6.859	-5.228	1509.158	1499.634	1500.366	-1.374	-0.046	-0.809	0.383	5.512	-7.502
45401.276	NaN	2.533	6.870	-5.217	1510.623	1499.634	1499.634	-1.328	0.015	-0.794	0.383	5.435	-7.579
45402.252	NaN	2.522	6.859	-5.228	1510.623	1499.634	1500.366	-1.298	-0.076	-0.947	0.306	5.435	-7.656
45403.229	NaN	2.522	6.870	-5.228	1509.890	1499.634	1499.634	-1.023	0.107	-0.992	0.459	5.359	-7.656
45404.205	NaN	2.522	6.870	-5.228	1509.890	1500.366	1500.366	-0.992	0.153	-0.794	0.230	5.512	-7.809
45405.182	NaN	2.511	6.859	-5.239	1509.158	1500.366	1499.634	-1.115	0.076	-0.687	0.459	5.435	-7.579
45406.158	NaN	2.522	6.859	-5.217	1509.890	1498.901	1500.366	-1.267	-0.061	-0.840	0.459	5.512	-7.579
45407.135	NaN	2.522	6.870	-5.217	1510.623	1499.634	1501.099	-1.298	0.092	-0.901	0.383	5.435	-7.579
45408.112	NaN	2.522	6.859	-5.217	1510.623	1498.901	1499.634	-1.267	0.107	-0.885	0.306	5.435	-7.656
45409.088	NaN	2.533	6.859	-5.196	1511.355	1500.366	1499.634	-1.053	0.061	-0.962	0.383	5.589	-7.502
45410.065	NaN	2.511	6.848	-5.207	1510.623	1499.634	1499.634	-0.870	0.000	-1.038	0.383	5.512	-7.656
45411.041	NaN	2.522	6.870	-5.207	1508.425	1498.901	1499.634	-0.916	0.107	-1.053	0.459	5.435	-7.732
45412.018	NaN	2.511	6.859	-5.217	1511.355	1499.634	1500.366	-1.023	0.137	-0.977	0.383	5.359	-7.579
45412.994	3736842347.420	2.511	6.870	-5.239	1510.623	1500.366	1501.099	-1.191	0.168	-0.931	0.230	5.359	-7.656
45413.971	NaN	2.511	6.870	-5.217	1510.623	1499.634	1501.099	-1.206	0.275	-0.916	0.383	5.359	-7.579
45414.948	NaN	2.522	6.870	-5.228	1511.355	1500.366	1499.634	-1.084	0.153	-0.870	0.383	5.435	-7.502
45415.924	NaN	2.511	6.859	-5.239	1510.623	1499.634	1499.634	-0.962	0.000	-0.992	0.383	5.589	-7.579
45416.901	NaN	2.511	6.848	-5.239	1509.890	1499.634	1500.366	-1.115	0.031	-0.977	0.383	5.512	-7.732
45417.877	NaN	2.511	6.859	-5.239	1510.623	1500.366	1498.901	-1.160	0.015	-0.962	0.306	5.512	-7.656
45418.854	NaN	2.522	6.870	-5.217	1509.158	1500.366	1500.366	-1.069	-0.015	-1.115	0.459	5.512	-7.809
45419.830	NaN	2.522	6.870	-5.239	1511.355	1500.366	1499.634	-0.962	-0.076	-1.008	0.383	5.435	-7.885
45420.807	NaN	2.511	6.870	-5.239	1510.623	1499.634	1500.366	-1.084	0.107	-0.870	0.459	5.665	-7.732
45421.783	NaN	2.511	6.880	-5.250	1510.623	1499.634	1500.366	-1.160	0.260	-0.947	0.306	5.435	-7.656
45422.760	NaN	2.522	6.880	-5.239	1511.355	1499.634	1502.564	-1.008	0.198	-1.038	0.459	5.512	-7.579
45423.737	NaN	2.511	6.880	-5.239	1510.623	1501.099	1499.634	-0.992	0.168	-0.962	0.383	5.512	-7.656
45424.713	NaN	2.511	6.870	-5.228	1510.623	1499.634	1500.366	-1.115	0.244	-0.901	0.383	5.435	-7.426
45425.690	NaN	2.500	6.870	-5.239	1510.623	1499.634	1500.366	-1.145	0.137	-0.885	0.230	5.665	-7.579
45426.666	NaN	2.511	6.880	-5.250	1511.355	1500.366	1498.901	-1.221	0.076	-0.992	0.383	5.435	-7.732
45427.643	NaN	2.500	6.870	-5.239	1510.623	1499.634	1500.366	-1.252	0.061	-1.038	0.230	5.512	-7.502
45428.619	NaN	2.511	6.880	-5.239	1509.890	1499.634	1500.366	-1.252	0.137	-0.779	0.306	5.589	-7.579
45429.596	NaN	2.522	6.880	-5.239	1511.355	1498.901	1500.366	-1.328	-0.092	-1.023	0.306	5.359	-7.732
45430.573	NaN	2.511	6.880	-5.239	1509.890	1500.366	1498.901	-1.038	-0.137	-1.084	0.383	5.589	-7.656
45431.549	NaN	2.511	6.880	-5.239	1509.890	1501.099	1498.901	-1.160	0.000	-1.084	0.306	5.435	-7.579
45432.526	NaN	2.511	6.880	-5.239	1511.355	1499.634	1500.366	-1.084	0.092	-1.145	0.383	5.512	-7.656
45433.502	NaN	2.511	6.870	-5.239	1510.623	1499.634	1499.634	-0.992	0.214	-0.962	0.230	5.512	-7.885
45434.479	NaN	2.500	6.859	-5.239	1510.623	1499.634	1501.832	-0.901	0.168	-0.809	0.306	5.435	-7.732
45435.455	NaN	2.511	6.859	-5.239	1511.355	1500.366	1500.366	-1.130	0.122	-0.794	0.306	5.512	-7.732
45436.432	NaN	2.522	6.880	-5.228	1510.623	1501.099	1498.901	-1.282	0.137	-0.702	0.383	5.589	-7.579
45437.408	NaN	2.533	6.870	-5.228	1509.890	1500.366	1500.366	-1.145	0.061	-0.779	0.459	5.359	-7.579
45438.385	NaN	2.543	6.891	-5.250	1510.623	1500.366	1499.634	-1.374	0.092	-0.947	0.459	5.512	-7.656
45439.362	NaN	2.533	6.880	-5.250	1510.623	1499.634	1499.634	-1.267	0.015	-0.947	0.306	5.435	-7.656
45440.338	NaN	2.533	6.891	-5.239	1511.355	1500.366	1500.366	-1.176	0.122	-1.053	0.383	5.512	-7.656
45441.315	NaN	2.533	6.902	-5.250	1511.355	1500.366	1499.634	-1.038	0.015	-1.084	0.230	5.435	-7.656
45442.291	NaN	2.533	6.891	-5.250	1510.623	1499.634	1501.099	-1.008	0.000	-1.191	0.383	5.359	-7.579
45443.268	NaN	2.533	6.902	-5.272	1507.692	1498.901	1500.366	-1.023	0.122	-1.038	0.383	5.589	-7.732
45444.244	NaN	2.533	6.902	-5.272	1509.890	1499.634	1500.366	-1.038	0.076	-0.962	0.383	5.435	-7.656
45445.221	NaN	2.522	6.891	-5.272	1509.890	1498.901	1499.634	-0.931	0.061	-0.885	0.383	5.665	-7.579
45446.198	NaN	2.533	6.902	-5.272	1509.890	1498.901	1499.634	-1.206	-0.015	-1.008	0.383	5.512	-7.579
45447.174	NaN	2.533	6.902	-5.272	1509.890	1499.634	1501.099	-1.313	0.076	-1.282	0.459	5.435	-7.579
45448.151	NaN	2.543	6.913	-5.272	1509.158	1499.634	1501.099	-1.344	0.076	-1.313	0.536	5.512	-7.579
45449.127	NaN	2.533	6.913	-5.283	1510.623	1501.099	1500.366	-1.115	0.137	-0.916	0.306	5.435	-7.809
45450.104	NaN	2.522	6.913	-5.304	1509.890	1499.634	1501.099	-1.008	0.107	-0.824	0.459	5.435	-7.809
45451.080	NaN	2.533	6.935	-5.283	1511.355	1500.366	1500.366	-1.008	0.061	-0.992	0.536	5.435	-7.732
45452.057	NaN	2.543	6.924	-5.283	1509.158	1499.634	1500.366	-1.206	0.000	-1.267	0.459	5.512	-7.732
45453.033	NaN	2.533	6.924	-5.283	1509.890	1499.634	1499.634	-1.435	-0.061	-1.221	0.383	5.589	-7.579
45454.010	NaN	2.533	6.902	-5.293	1510.623	1499.634	1500.366	-1.450	0.000	-0.977	0.459	5.589	-7.579
45454.987	NaN	2.533	6.913	-5.304	1511.355	1498.901	1500.366	-1.176	-0.031	-0.947	0.459	5.665	-7.579
45455.963	NaN	2.543	6.924	-5.293	1509.890	1498.168	1499.634	-0.870	-0.092	-0.947	0.383	5.512	-7.656
45456.940	NaN	2.533	6.924	-5.283	1509.890	1499.634	1499.634	-0.931	-0.046	-0.992	0.383	5.435	-7.809
45457.916	NaN	2.533	6.924	-5.293	1508.425	1499.634	1498.901	-0.977	0.031	-1.130	0.383	5.435	-7.809
45458.893	NaN	2.543	6.935	-5.293	1511.355	1500.366	1499.634	-1.008	-0.168	-1.053	0.383	5.512	-7.656
45459.869	NaN	2.533	6.924	-5.293	1511.355	1500.366	1498.901	-1.053	-0.183	-1.206	0.383	5.512	-7.656
45460.846	NaN	2.522	6.913	-5.304	1509.890	1499.634	1499.634	-0.916	-0.290	-1.237	0.383	5.435	-7.732
45461.823	NaN	2.533	6.924	-5.293	1509.890	1499.634	1500.366	-0.962	-0.046	-1.145	0.306	5.512	-7.656
45462.799	NaN	2.533	6.924	-5.293	1509.890	1498.901	1499.634	-1.130	0.015	-1.191	0.536	5.589	-7.579
45463.776	NaN	2.533	6.924	-5.293	1510.623	1499.634	1500.366	-1.252	-0.153	-1.069	0.383	5.589	-7.732
45464.752	NaN	2.533	6.924	-5.293	1510.623	1499.634	1501.099	-1.344	-0.229	-0.885	0.306	5.589	-7.732
45465.729	NaN	2.533	6.924	-5.304	1509.158	1498.901	1500.366	-0.962	-0.122	-0.992	0.459	5.512	-7.656
45466.705	NaN	2.533	6.924	-5.304	1510.623	1500.366	1499.634	-0.977	-0.076	-1.053	0.306	5.512	-7.732
45467.682	NaN	2.522	6.913	-5.315	1510.623	1498.901	1500.366	-1.267	-0.183	-1.038	0.306	5.512	-7.579
45468.658	NaN	2.522	6.924	-5.304	1509.158	1498.168	1498.901	-1.038	-0.336	-0.992	0.383	5.589	-7.656
45469.635	NaN	2.543	6.913	-5.304	1509.890	1499.634	1501.099	-0.748	-0.336	-1.008	0.306	5.589	-7.656
45470.612	NaN	2.522	6.913	-5.304	1510.623	1499.634	1499.634	-0.779	-0.244	-0.855	0.536	5.589	-7.579
45471.588	NaN	2.533	6.913	-5.283	1512.821	1500.366	1500.366	-1.023	-0.122	-0.763	0.306	5.589	-7.732
45472.565	NaN	2.543	6.913	-5.283	1511.355	1499.634	1501.099	-1.237	-0.092	-0.809	0.306	5.512	-7.732
45473.541	NaN	2.533	6.913	-5.283	1510.623	1500.366	1499.634	-0.947	-0.305	-1.053	0.459	5.512	-7.732
45474.518	NaN	2.533	6.913	-5.272	1509.890	1499.634	1500.366	-0.855	-0.275	-0.962	0.459	5.359	-7.809
45475.494	NaN	2.522	6.913	-5.293	1510.623	1500.366	1499.634	-1.053	-0.321	-0.763	0.383	5.512	-7.809
45476.471	NaN	2.522	6.924	-5.283	1509.158	1500.366	1500.366	-1.145	-0.168	-0.916	0.459	5.435	-7.579
45477.448	NaN	2.522	6.924	-5.283	1509.890	1500.366	1498.901	-1.328	-0.122	-1.008	0.459	5.512	-7.656
45478.424	NaN	2.522	6.924	-5.283	1510.623	1499.634	1501.099	-1.282	-0.092	-0.885	0.459	5.589	-7.579
45479.401	NaN	2.522	6.913	-5.283	1509.890	1500.366	1499.634	-1.206	-0.107	-1.023	0.536	5.512	-7.579
45480.377	NaN	2.543	6.924	-5.272	1509.890	1501.099	1498.901	-0.947	-0.122	-1.206	0.306	5.435	-7.502
45481.354	NaN	2.533	6.913	-5.261	1510.623	1501.099	1500.366	-1.084	-0.092	-1.069	0.306	5.512	-7.656
45482.330	NaN	2.533	6.913	-5.261	1509.890	1499.634	1499.634	-1.130	-0.214	-0.824	0.230	5.435	-7.656
45483.307	NaN	2.522	6.913	-5.250	1510.623	1499.634	1500.366	-1.023	-0.290	-0.916	0.459	5.435	-7.732
45484.283	NaN	2.522	6.924	-5.261	1509.158	1499.634	1499.634	-0.947	-0.137	-1.053	0.459	5.435	-7.579
45485.260	NaN	2.522	6.924	-5.250	1511.355	1499.634	1500.366	-0.947	-0.092	-1.038	0.383	5.589	-7.732
45486.237	NaN	2.522	6.924	-5.250	1510.623	1500.366	1500.366	-0.947	-0.229	-0.901	0.306	5.435	-7.502
45487.213	NaN	2.522	6.924	-5.261	1509.890	1500.366	1499.634	-1.008	-0.229	-0.977	0.383	5.512	-7.579
45488.190	NaN	2.522	6.902	-5.261	1510.623	1499.634	1501.832	-1.008	-0.183	-0.901	0.306	5.589	-7.502
45489.166	NaN	2.522	6.902	-5.261	1511.355	1501.099	1500.366	-0.977	-0.260	-0.763	0.612	5.435	-7.656
45490.143	NaN	2.522	6.902	-5.261	1510.623	1500.366	1499.634	-1.053	-0.290	-0.901	0.383	5.512	-7.579
45491.119	NaN	2.522	6.891	-5.250	1511.355	1500.366	1500.366	-1.298	-0.107	-1.115	0.383	5.589	-7.732
45492.096	NaN	2.533	6.891	-5.261	1509.890	1499.634	1501.099	-1.481	-0.031	-1.115	0.383	5.512	-7.732
45493.073	3736842347.588	2.522	6.891	-5.261	1509.890	1499.634	1501.099	-1.069	-0.107	-1.069	0.306	5.359	-7.579
45494.049	NaN	2.522	6.902	-5.261	1511.355	1500.366	1498.901	-0.992	-0.321	-1.084	0.230	5.512	-7.656
45495.026	NaN	2.511	6.891	-5.250	1511.355	1499.634	1500.366	-1.069	-0.473	-0.962	0.306	5.589	-7.502
45496.002	NaN	2.511	6.891	-5.250	1509.890	1501.099	1500.366	-1.176	-0.321	-0.870	0.383	5.512	-7.502
45496.979	NaN	2.500	6.880	-5.239	1510.623	1499.634	1500.366	-1.099	-0.198	-0.885	0.306	5.435	-7.656
45497.955	NaN	2.500	6.902	-5.250	1511.355	1500.366	1499.634	-0.763	-0.122	-0.855	0.230	5.435	-7.656
45498.932	NaN	2.500	6.891	-5.239	1510.623	1500.366	1500.366	-0.504	-0.290	-1.053	0.459	5.512	-7.809
45499.908	NaN	2.511	6.891	-5.239	1510.623	1500.366	1500.366	-0.885	-0.183	-1.145	0.536	5.665	-7.656
45500.885	NaN	2.500	6.891	-5.239	1510.623	1499.634	1501.832	-1.038	-0.031	-1.069	0.306	5.512	-7.579
45501.862	NaN	2.489	6.880	-5.228	1510.623	1499.634	1499.634	-1.084	-0.092	-0.962	0.536	5.512	-7.656
45502.838	NaN	2.500	6.870	-5.207	1510.623	1501.099	1501.832	-1.191	-0.061	-0.794	0.306	5.359	-7.426
45503.815	NaN	2.500	6.891	-5.207	1510.623	1499.634	1499.634	-1.008	-0.168	-1.023	0.383	5.512	-7.579
45504.791	NaN	2.511	6.870	-5.207	1510.623	1499.634	1501.099	-0.824	-0.275	-0.977	0.383	5.512	-7.349
45505.768	NaN	2.511	6.880	-5.196	1509.158	1499.634	1499.634	-0.870	-0.061	-0.779	0.459	5.435	-7.502
45506.744	NaN	2.500	6.880	-5.207	1508.425	1499.634	1498.901	-0.977	0.046	-0.870	0.230	5.589	-7.656
45507.721	NaN	2.522	6.870	-5.196	1510.623	1499.634	1501.099	-1.206	0.107	-0.947	0.459	5.435	-7.656
45519.440	NaN	2.511	6.859	-5.196	1509.158	1499.634	1499.634	-0.702	0.076	-1.008	0.536	5.435	-7.656
45520.416	NaN	2.522	6.859	-5.207	1510.623	1500.366	1500.366	-0.763	0.061	-1.023	0.383	5.359	-7.579
45521.393	NaN	2.511	6.848	-5.217	1510.623	1499.634	1500.366	-0.840	-0.107	-1.053	0.536	5.665	-7.426
45522.369	NaN	2.533	6.848	-5.196	1510.623	1499.634	1501.832	-0.931	-0.260	-1.084	0.459	5.512	-7.426
45523.346	NaN	2.533	6.848	-5.207	1509.890	1499.634	1500.366	-0.885	-0.107	-1.069	0.306	5.589	-7.656
45524.323	NaN	2.522	6.848	-5.228	1508.425	1499.634	1499.634	-0.840	0.061	-0.962	0.306	5.589	-7.502
45525.299	NaN	2.522	6.848	-5.228	1508.425	1499.634	1499.634	-0.763	0.092	-0.947	0.306	5.435	-7.502
45526.276	NaN	2.522	6.859	-5.239	1511.355	1499.634	1499.634	-0.580	-0.137	-0.992	0.459	5.359	-7.809
45527.252	NaN	2.522	6.859	-5.217	1509.890	1499.634	1500.366	-0.626	-0.275	-1.176	0.383	5.435	-7.656
45528.229	NaN	2.511	6.859	-5.217	1510.623	1499.634	1500.366	-0.733	-0.214	-1.252	0.459	5.589	-7.426
45529.205	NaN	2.511	6.870	-5.228	1509.890	1498.901	1500.366	-0.733	-0.122	-0.977	0.459	5.512	-7.732
45530.182	NaN	2.522	6.880	-5.207	1510.623	1500.366	1501.099	-0.733	-0.031	-0.611	0.383	5.359	-7.732
45531.158	NaN	2.511	6.880	-5.217	1509.890	1499.634	1501.099	-0.733	-0.076	-0.733	0.459	5.512	-7.732
45532.135	NaN	2.511	6.880	-5.217	1509.158	1499.634	1500.366	-0.779	-0.107	-1.069	0.536	5.435	-7.656
45533.112	NaN	2.511	6.891	-5.228	1509.890	1499.634	1501.099	-0.901	-0.137	-1.359	0.306	5.512	-7.809
45534.088	NaN	2.522	6.902	-5.228	1512.088	1500.366	1499.634	-0.885	-0.046	-1.160	0.459	5.512	-7.502
45535.065	NaN	2.522	6.891	-5.239	1509.890	1500.366	1498.901	-0.763	-0.183	-0.870	0.383	5.512	-7.732
45536.041	NaN	2.522	6.880	-5.239	1509.890	1499.634	1498.901	-0.641	-0.229	-1.053	0.459	5.589	-7.732
45537.018	NaN	2.533	6.880	-5.239	1510.623	1500.366	1500.366	-0.611	-0.076	-1.008	0.459	5.589	-7.579
45537.994	NaN	2.522	6.880	-5.261	1511.355	1501.099	1499.634	-0.702	0.031	-0.794	0.383	5.512	-7.502
45538.971	NaN	2.522	6.880	-5.261	1510.623	1499.634	1500.366	-0.763	-0.122	-1.038	0.383	5.512	-7.656
45539.948	NaN	2.522	6.891	-5.261	1510.623	1500.366	1499.634	-0.733	-0.336	-1.237	0.459	5.512	-7.656
45540.924	NaN	2.522	6.891	-5.272	1509.890	1499.634	1500.366	-0.550	-0.351	-1.130	0.459	5.512	-7.656
45541.901	NaN	2.522	6.902	-5.293	1509.890	1499.634	1501.832	-0.641	-0.275	-0.885	0.459	5.589	-7.656
45542.877	NaN	2.522	6.924	-5.283	1510.623	1501.099	1500.366	-0.885	-0.122	-0.885	0.306	5.512	-7.502
45543.854	NaN	2.522	6.924	-5.283	1509.890	1499.634	1501.099	-0.779	-0.214	-1.008	0.306	5.512	-7.732
45544.830	NaN	2.533	6.913	-5.283	1512.821	1498.901	1501.832	-0.580	-0.412	-1.206	0.383	5.589	-7.579
45545.807	NaN	2.533	6.924	-5.283	1510.623	1499.634	1501.099	-0.779	-0.534	-1.160	0.459	5.589	-7.809
45546.783	NaN	2.522	6.913	-5.304	1509.890	1499.634	1500.366	-0.748	-0.534	-1.084	0.383	5.435	-7.809
45547.760	NaN	2.533	6.924	-5.293	1511.355	1500.366	1499.634	-0.718	-0.351	-1.206	0.383	5.589	-7.732
45548.737	NaN	2.543	6.913	-5.293	1509.890	1500.366	1500.366	-0.672	-0.198	-1.221	0.383	5.512	-7.732
45549.713	NaN	2.543	6.913	-5.293	1510.623	1500.366	1498.901	-0.794	-0.290	-1.206	0.459	5.589	-7.656
45550.690	NaN	2.533	6.902	-5.283	1509.890	1499.634	1500.366	-0.855	-0.611	-1.160	0.306	5.589	-7.732
45551.666	NaN	2.543	6.913	-5.304	1512.088	1499.634	1500.366	-0.626	-0.580	-1.023	0.459	5.589	-7.885
45552.643	NaN	2.533	6.924	-5.304	1510.623	1499.634	1500.366	-0.580	-0.397	-0.855	0.306	5.512	-7.732
45553.619	NaN	2.533	6.935	-5.304	1510.623	1500.366	1498.901	-0.687	-0.397	-0.916	0.536	5.435	-7.732
45554.596	NaN	2.533	6.924	-5.326	1511.355	1499.634	1501.099	-0.901	-0.443	-0.855	0.459	5.512	-7.732
45555.573	NaN	2.533	6.913	-5.326	1509.890	1499.634	1501.099	-0.824	-0.351	-0.809	0.306	5.512	-7.732
45556.549	NaN	2.522	6.924	-5.315	1510.623	1501.099	1499.634	-0.824	-0.305	-0.916	0.383	5.665	-7.656
45557.526	NaN	2.522	6.924	-5.315	1511.355	1499.634	1501.099	-0.779	-0.397	-1.008	0.383	5.512	-7.732
45558.502	NaN	2.511	6.913	-5.315	1510.623	1499.634	1500.366	-0.779	-0.397	-1.160	0.383	5.435	-7.809
45559.479	NaN	2.511	6.913	-5.315	1510.623	1499.634	1500.366	-0.718	-0.412	-1.176	0.459	5.435	-7.656
45560.455	NaN	2.511	6.924	-5.315	1510.623	1500.366	1499.634	-0.718	-0.458	-1.053	0.383	5.589	-7.732
45561.432	NaN	2.522	6.913	-5.315	1511.355	1499.634	1499.634	-0.763	-0.382	-1.053	0.230	5.435	-7.656
45562.408	NaN	2.522	6.913	-5.315	1510.623	1498.901	1501.099	-0.733	-0.336	-1.145	0.383	5.435	-7.656
45563.385	NaN	2.533	6.913	-5.326	1511.355	1499.634	1499.634	-0.611	-0.534	-0.977	0.306	5.435	-7.656
45564.362	NaN	2.533	6.902	-5.326	1510.623	1499.634	1501.099	-0.763	-0.336	-0.931	0.459	5.512	-7.809
45565.338	NaN	2.533	6.913	-5.315	1512.088	1500.366	1499.634	-0.733	-0.275	-0.992	0.383	5.512	-7.579
45566.315	NaN	2.522	6.902	-5.304	1510.623	1500.366	1500.366	-0.687	-0.260	-1.099	0.383	5.589	-7.732
45567.291	NaN	2.533	6.913	-5.304	1509.890	1500.366	1500.366	-0.672	-0.321	-1.145	0.383	5.589	-7.732
45568.268	NaN	2.533	6.913	-5.304	1510.623	1500.366	1500.366	-0.519	-0.397	-1.084	0.306	5.589	-7.809
45569.244	NaN	2.522	6.924	-5.315	1511.355	1500.366	1500.366	-0.397	-0.275	-0.901	0.306	5.435	-7.656
45570.221	NaN	2.522	6.924	-5.315	1509.890	1498.168	1501.099	-0.412	-0.412	-0.840	0.459	5.512	-7.732
45571.198	NaN	2.543	6.935	-5.293	1510.623	1499.634	1501.099	-0.656	-0.443	-0.779	0.459	5.435	-7.732
45572.174	NaN	2.533	6.913	-5.304	1507.692	1499.634	1499.634	-0.962	-0.458	-1.023	0.230	5.512	-7.579
45573.151	NaN	2.522	6.913	-5.304	1509.158	1498.901	1498.168	-0.916	-0.321	-0.977	0.306	5.435	-7.732
45574.127	NaN	2.533	6.913	-5.293	1510.623	1500.366	1501.099	-0.718	-0.153	-0.931	0.306	5.435	-7.656
45575.104	NaN	2.511	6.902	-5.293	1509.158	1499.634	1499.634	-0.672	-0.305	-0.931	0.459	5.589	-7.656
45576.080	NaN	2.511	6.891	-5.304	1509.890	1499.634	1498.901	-0.702	-0.427	-1.023	0.459	5.512	-7.656
45577.057	NaN	2.522	6.891	-5.293	1510.623	1499.634	1499.634	-0.733	-0.229	-1.038	0.383	5.665	-7.885
45578.033	NaN	2.511	6.902	-5.293	1511.355	1499.634	1500.366	-0.809	-0.321	-0.962	0.383	5.512	-7.656
45579.010	NaN	2.522	6.902	-5.293	1509.890	1498.901	1501.099	-0.733	-0.412	-0.916	0.383	5.589	-7.809
45579.987	NaN	2.511	6.902	-5.283	1509.890	1498.901	1498.168	-0.718	-0.412	-1.115	0.306	5.435	-7.656
45580.963	NaN	2.511	6.902	-5.261	1510.623	1499.634	1499.634	-0.779	-0.107	-0.916	0.459	5.512	-7.579
45581.940	NaN	2.511	6.891	-5.272	1509.158	1499.634	1498.901	-0.855	0.061	-0.916	0.230	5.359	-7.656
45582.916	NaN	2.522	6.902	-5.250	1508.425	1500.366	1498.168	-0.763	-0.046	-1.053	0.306	5.359	-7.579
45583.893	NaN	2.500	6.891	-5.261	1509.890	1499.634	1501.099	-0.641	-0.229	-1.053	0.459	5.589	-7.579
45584.869	NaN	2.511	6.902	-5.250	1509.158	1499.634	1499.634	-0.595	-0.473	-0.840	0.383	5.512	-7.656
45585.846	NaN	2.533	6.891	-5.239	1509.158	1499.634	1499.634	-0.595	-0.336	-0.672	0.383	5.512	-7.579
45586.823	NaN	2.522	6.891	-5.261	1507.692	1499.634	1499.634	-0.580	-0.229	-0.824	0.306	5.512	-7.656
45587.799	NaN	2.522	6.891	-5.261	1510.623	1499.634	1501.099	-0.718	-0.122	-0.962	0.383	5.435	-7.579
45588.776	NaN	2.511	6.891	-5.261	1511.355	1500.366	1499.634	-0.519	-0.092	-1.023	0.306	5.589	-7.656
45589.752	NaN	2.511	6.880	-5.250	1509.890	1499.634	1500.366	-0.366	-0.076	-1.023	0.383	5.359	-7.426
45590.729	NaN	2.511	6.891	-5.239	1511.355	1500.366	1498.901	-0.412	-0.122	-0.977	0.459	5.512	-7.656
45591.705	NaN	2.489	6.880	-5.250	1509.158	1498.901	1499.634	-0.397	-0.321	-0.901	0.230	5.512	-7.656
45592.682	NaN	2.500	6.880	-5.250	1511.355	1500.366	1499.634	-0.473	-0.260	-0.870	0.383	5.435	-7.579
45593.658	NaN	2.500	6.880	-5.239	1511.355	1499.634	1498.901	-0.656	-0.122	-0.855	0.230	5.359	-7.732
45594.635	NaN	2.500	6.880	-5.217	1509.890	1499.634	1499.634	-0.718	0.031	-1.053	0.306	5.512	-7.579
45595.612	NaN	2.500	6.870	-5.217	1509.158	1499.634	1500.366	-0.656	-0.168	-0.885	0.383	5.512	-7.656
45596.588	NaN	2.511	6.880	-5.207	1510.623	1500.366	1498.901	-0.702	-0.260	-0.718	0.383	5.359	-7.656
45597.565	NaN	2.511	6.880	-5.207	1511.355	1500.366	1498.901	-0.718	-0.168	-0.702	0.306	5.589	-7.656
45598.541	NaN	2.511	6.880	-5.196	1510.623	1500.366	1500.366	-0.641	0.015	-0.855	0.230	5.435	-7.656
45599.518	NaN	2.522	6.880	-5.196	1510.623	1499.634	1500.366	-0.656	0.046	-1.023	0.383	5.512	-7.579
45600.494	NaN	2.511	6.891	-5.196	1511.355	1500.366	1500.366	-0.947	0.214	-0.885	0.383	5.512	-7.579
45601.471	NaN	2.500	6.880	-5.185	1510.623	1500.366	1500.366	-0.931	0.290	-0.992	0.306	5.512	-7.656
45602.448	NaN	2.511	6.880	-5.185	1510.623	1500.366	1499.634	-0.351	0.214	-1.038	0.459	5.512	-7.732
45603.424	NaN	2.500	6.870	-5.207	1510.623	1499.634	1501.099	-0.137	0.031	-0.947	0.383	5.435	-7.579
45604.401	NaN	2.500	6.870	-5.207	1509.890	1499.634	1500.366	-0.122	-0.046	-0.962	0.536	5.512	-7.579
45605.377	NaN	2.511	6.880	-5.217	1511.355	1499.634	1502.564	-0.321	0.122	-0.931	0.383	5.512	-7.656
45606.354	NaN	2.500	6.880	-5.217	1511.355	1499.634	1500.366	-0.611	0.168	-0.855	0.306	5.512	-7.502
45607.330	NaN	2.511	6.880	-5.207	1510.623	1499.634	1501.099	-0.565	0.061	-0.748	0.383	5.512	-7.656
45608.307	NaN	2.511	6.880	-5.217	1509.890	1499.634	1500.366	-0.427	-0.015	-0.840	0.383	5.512	-7.426
45609.283	NaN	2.500	6.870	-5.217	1511.355	1499.634	1501.099	-0.397	0.122	-0.855	0.306	5.359	-7.732
45610.260	NaN	2.511	6.880	-5.217	1512.088	1499.634	1500.366	-0.489	0.168	-0.748	0.383	5.512	-7.502
45654.205	NaN	2.522	6.924	-5.315	1510.623	1499.634	1498.901	-0.214	0.229	-0.977	0.383	5.589	-7.732
45655.182	NaN	2.533	6.924	-5.304	1510.623	1501.099	1499.634	-0.198	0.076	-1.069	0.230	5.742	-7.885
45656.158	NaN	2.522	6.913	-5.326	1510.623	1499.634	1498.901	-0.412	-0.061	-1.145	0.306	5.589	-7.732
45657.135	NaN	2.533	6.924	-5.304	1509.890	1499.634	1501.832	-0.473	0.076	-0.840	0.383	5.512	-7.732
45658.112	NaN	2.522	6.913	-5.315	1510.623	1500.366	1498.901	-0.321	0.092	-0.763	0.536	5.512	-7.579
45659.088	NaN	2.511	6.913	-5.315	1509.890	1498.901	1498.168	-0.214	0.122	-0.809	0.230	5.435	-7.579
45660.065	NaN	2.500	6.902	-5.293	1509.890	1498.168	1498.901	-0.244	0.015	-0.733	0.383	5.512	-7.656
45661.041	NaN	2.511	6.913	-5.283	1509.890	1499.634	1500.366	-0.458	0.000	-0.763	0.536	5.665	-7.732
45662.018	NaN	2.511	6.902	-5.293	1509.158	1499.634	1499.634	-0.565	0.092	-0.962	0.230	5.589	-7.809
45662.994	NaN	2.522	6.913	-5.293	1509.158	1499.634	1500.366	-0.534	0.092	-0.840	0.306	5.512	-7.656
45663.971	NaN	2.522	6.902	-5.304	1509.158	1499.634	1500.366	-0.290	0.000	-0.641	0.459	5.512	-7.732
45664.948	NaN	2.533	6.902	-5.304	1510.623	1499.634	1500.366	-0.183	-0.198	-0.626	0.306	5.512	-7.732
45665.924	NaN	2.533	6.913	-5.304	1511.355	1499.634	1500.366	-0.229	0.031	-0.779	0.383	5.512	-7.732
45666.901	NaN	2.522	6.902	-5.304	1509.890	1498.901	1500.366	-0.458	0.183	-0.809	0.306	5.512	-7.656
45667.877	NaN	2.511	6.913	-5.293	1510.623	1500.366	1501.099	-0.458	0.168	-0.916	0.459	5.435	-7.809
45668.854	NaN	2.511	6.902	-5.283	1509.890	1500.366	1500.366	-0.443	0.076	-0.779	0.306	5.512	-7.732
45669.830	NaN	2.511	6.902	-5.272	1510.623	1500.366	1499.634	-0.458	0.076	-0.733	0.459	5.589	-7.732
45670.807	NaN	2.511	6.891	-5.272	1510.623	1499.634	1501.099	-0.427	0.061	-0.809	0.306	5.512	-7.732
45671.783	NaN	2.500	6.902	-5.293	1511.355	1499.634	1499.634	-0.473	-0.015	-0.885	0.383	5.435	-7.579
45672.760	NaN	2.511	6.891	-5.293	1510.623	1500.366	1500.366	-0.397	-0.092	-1.023	0.383	5.435	-7.579
45673.737	NaN	2.511	6.902	-5.283	1510.623	1500.366	1499.634	-0.489	-0.076	-1.008	0.230	5.359	-7.502
45674.713	NaN	2.511	6.891	-5.283	1509.158	1500.366	1498.168	-0.458	-0.076	-1.008	0.383	5.589	-7.732
45675.690	NaN	2.500	6.902	-5.283	1510.623	1498.901	1500.366	-0.672	-0.015	-1.008	0.306	5.512	-7.732
45676.666	NaN	2.511	6.902	-5.293	1512.088	1499.634	1501.099	-0.489	0.107	-0.962	0.383	5.435	-7.579
45677.643	NaN	2.511	6.891	-5.293	1509.890	1500.366	1500.366	-0.229	0.076	-0.901	0.383	5.435	-7.579
45678.619	NaN	2.511	6.880	-5.283	1510.623	1500.366	1501.099	-0.351	-0.092	-0.718	0.459	5.512	-7.732
45679.596	NaN	2.522	6.891	-5.272	1511.355	1498.901	1501.832	-0.137	-0.076	-0.672	0.306	5.589	-7.732
45680.573	NaN	2.511	6.880	-5.283	1509.890	1499.634	1500.366	0.000	0.122	-0.779	0.383	5.359	-7.732
45681.549	NaN	2.522	6.891	-5.261	1512.088	1500.366	1500.366	-0.046	-0.015	-0.687	0.383	5.435	-7.656
45682.526	NaN	2.533	6.891	-5.250	1511.355	1499.634	1500.366	-0.275	-0.046	-0.656	0.383	5.359	-7.502
45683.502	NaN	2.543	6.891	-5.250	1510.623	1499.634	1499.634	-0.519	0.153	-0.855	0.383	5.589	-7.732
45684.479	NaN	2.533	6.891	-5.239	1510.623	1498.901	1499.634	-0.733	0.107	-0.809	0.306	5.435	-7.732
45685.455	NaN	2.511	6.880	-5.239	1511.355	1499.634	1500.366	-0.489	0.198	-0.626	0.383	5.435	-7.656
45686.432	NaN	2.511	6.891	-5.228	1511.355	1499.634	1500.366	-0.229	0.260	-0.748	0.383	5.435	-7.732
45687.408	NaN	2.511	6.902	-5.228	1510.623	1499.634	1500.366	0.000	0.229	-0.885	0.383	5.435	-7.732
45688.385	NaN	2.511	6.902	-5.239	1509.890	1499.634	1500.366	-0.198	0.168	-0.779	0.230	5.435	-7.579
45689.362	NaN	2.511	6.891	-5.250	1509.890	1499.634	1500.366	-0.382	0.214	-0.718	0.383	5.512	-7.579
45705.963	NaN	2.500	6.880	-5.228	1509.890	1499.634	1499.634	-0.122	0.031	-0.931	0.306	5.512	-7.579
45706.940	NaN	2.489	6.870	-5.217	1511.355	1499.634	1499.634	-0.214	-0.015	-0.779	0.459	5.589	-7.579
45707.916	NaN	2.489	6.880	-5.217	1511.355	1499.634	1501.832	-0.504	0.168	-0.824	0.383	5.435	-7.656
45708.893	NaN	2.500	6.880	-5.207	1510.623	1500.366	1499.634	-0.550	0.382	-0.992	0.306	5.512	-7.502
45709.869	NaN	2.489	6.870	-5.217	1511.355	1499.634	1501.099	-0.305	0.443	-0.931	0.612	5.512	-7.579
45710.846	NaN	2.511	6.880	-5.207	1509.890	1499.634	1500.366	-0.229	0.565	-0.702	0.306	5.512	-7.502
45711.823	NaN	2.511	6.891	-5.207	1510.623	1499.634	1499.634	-0.443	0.412	-0.595	0.230	5.435	-7.656
45712.799	NaN	2.522	6.880	-5.228	1509.158	1500.366	1498.168	-0.580	0.366	-0.611	0.383	5.512	-7.502
45713.776	NaN	2.522	6.880	-5.207	1509.890	1499.634	1500.366	-0.458	0.427	-0.748	0.306	5.512	-7.656
45714.752	NaN	2.522	6.870	-5.228	1510.623	1498.901	1500.366	-0.275	0.275	-0.779	0.459	5.512	-7.579
45715.729	NaN	2.522	6.870	-5.228	1509.890	1499.634	1500.366	-0.137	0.168	-0.870	0.306	5.512	-7.579
45716.705	NaN	2.533	6.880	-5.217	1509.890	1500.366	1498.901	-0.275	0.260	-0.763	0.383	5.512	-7.502
45717.682	NaN	2.522	6.859	-5.217	1506.960	1499.634	1501.832	-0.534	0.427	-0.702	0.306	5.435	-7.656
45718.658	NaN	2.533	6.870	-5.196	1509.890	1499.634	1501.099	-0.305	0.351	-0.824	0.383	5.512	-7.732
45719.635	NaN	2.543	6.870	-5.207	1509.890	1499.634	1500.366	-0.214	0.153	-0.962	0.383	5.512	-7.579
45720.612	NaN	2.533	6.870	-5.228	1509.890	1498.901	1500.366	-0.412	0.076	-0.870	0.383	5.512	-7.732
45721.588	NaN	2.533	6.870	-5.217	1510.623	1499.634	1500.366	-0.351	0.168	-0.718	0.383	5.512	-7.656
45722.565	NaN	2.522	6.870	-5.228	1510.623	1498.901	1499.634	-0.031	0.321	-0.718	0.306	5.435	-7.579
45723.541	NaN	2.533	6.870	-5.217	1510.623	1499.634	1499.634	-0.046	0.351	-0.855	0.459	5.359	-7.579
45724.518	NaN	2.533	6.859	-5.207	1510.623	1499.634	1500.366	-0.229	0.153	-0.794	0.383	5.435	-7.579
45725.494	NaN	2.533	6.859	-5.217	1510.623	1498.901	1499.634	-0.550	0.183	-0.809	0.306	5.435	-7.656
45726.471	NaN	2.543	6.870	-5.207	1510.623	1498.901	1499.634	-0.565	0.305	-0.565	0.383	5.359	-7.579
45727.448	NaN	2.543	6.859	-5.217	1509.890	1498.901	1500.366	-0.305	0.397	-0.641	0.383	5.512	-7.502
45728.424	NaN	2.543	6.859	-5.228	1509.158	1498.901	1499.634	-0.168	0.412	-0.656	0.383	5.435	-7.656
45729.401	NaN	2.543	6.859	-5.217	1508.425	1500.366	1498.901	-0.198	0.214	-0.885	0.383	5.589	-7.656
45730.377	NaN	2.554	6.870	-5.207	1511.355	1499.634	1502.564	-0.229	0.153	-0.931	0.459	5.435	-7.732
45731.354	NaN	2.543	6.870	-5.217	1508.425	1500.366	1500.366	-0.427	0.046	-0.794	0.306	5.589	-7.502
45732.330	NaN	2.533	6.870	-5.228	1509.158	1500.366	1499.634	-0.397	0.092	-0.748	0.459	5.435	-7.579
45733.307	NaN	2.522	6.870	-5.250	1510.623	1499.634	1499.634	-0.351	0.229	-0.840	0.383	5.512	-7.732
45734.283	NaN	2.522	6.880	-5.250	1509.890	1500.366	1498.901	-0.305	0.351	-0.626	0.383	5.359	-7.579
45735.260	NaN	2.533	6.870	-5.250	1511.355	1500.366	1498.901	-0.473	0.366	-0.794	0.383	5.435	-7.426
45736.237	NaN	2.522	6.880	-5.261	1508.425	1499.634	1498.901	-0.321	0.321	-0.855	0.383	5.512	-7.349
45737.213	NaN	2.511	6.870	-5.261	1510.623	1498.901	1501.099	-0.305	0.366	-0.977	0.306	5.435	-7.656
45738.190	NaN	2.511	6.880	-5.250	1510.623	1500.366	1498.901	-0.412	0.366	-1.053	0.536	5.512	-7.426
45739.166	NaN	2.522	6.891	-5.261	1511.355	1500.366	1500.366	-0.321	0.321	-1.023	0.383	5.512	-7.732
45740.143	NaN	2.533	6.891	-5.261	1510.623	1500.366	1499.634	-0.443	0.321	-0.947	0.383	5.589	-7.656
45741.119	NaN	2.533	6.880	-5.250	1509.158	1500.366	1500.366	-0.214	0.183	-0.824	0.306	5.589	-7.656
45742.096	NaN	2.522	6.880	-5.261	1510.623	1499.634	1500.366	-0.427	0.122	-0.779	0.459	5.512	-7.656
45743.073	NaN	2.522	6.891	-5.272	1511.355	1500.366	1500.366	-0.565	0.198	-0.855	0.383	5.512	-7.502
45744.049	NaN	2.533	6.880	-5.261	1509.158	1500.366	1498.168	-0.672	0.290	-0.885	0.383	5.435	-7.732
45745.026	NaN	2.533	6.891	-5.261	1508.425	1499.634	1501.832	-0.565	0.260	-0.901	0.306	5.512	-7.732
45746.002	NaN	2.533	6.891	-5.261	1509.158	1498.901	1500.366	-0.458	0.229	-0.824	0.306	5.435	-7.732
45746.979	NaN	2.543	6.891	-5.283	1509.890	1500.366	1500.366	-0.672	0.260	-0.855	0.383	5.589	-7.656
45747.955	NaN	2.533	6.880	-5.272	1510.623	1499.634	1500.366	-0.672	0.366	-0.885	0.383	5.435	-7.809
45748.932	3736842347.754	2.533	6.870	-5.272	1511.355	1500.366	1499.634	-0.427	0.198	-0.931	0.306	5.512	-7.579
45749.908	NaN	2.533	6.870	-5.293	1510.623	1499.634	1500.366	-0.519	-0.031	-0.931	0.383	5.512	-7.809
45750.885	NaN	2.533	6.859	-5.293	1509.890	1500.366	1498.901	-0.550	0.076	-0.702	0.459	5.512	-7.732
45751.862	NaN	2.533	6.859	-5.283	1510.623	1499.634	1500.366	-0.351	0.153	-0.840	0.459	5.742	-7.656
45752.838	NaN	2.533	6.870	-5.272	1511.355	1499.634	1500.366	-0.366	0.153	-0.977	0.383	5.512	-7.656
45753.815	NaN	2.522	6.870	-5.272	1509.890	1499.634	1499.634	-0.275	0.183	-1.053	0.536	5.512	-7.656
45754.791	NaN	2.533	6.880	-5.283	1510.623	1499.634	1501.099	-0.397	0.137	-0.870	0.459	5.359	-7.656
45755.768	NaN	2.533	6.891	-5.293	1510.623	1499.634	1501.099	-0.443	0.015	-0.794	0.306	5.435	-7.732
45756.744	NaN	2.522	6.891	-5.293	1510.623	1499.634	1500.366	-0.382	0.122	-0.595	0.383	5.512	-7.732
45757.721	NaN	2.533	6.902	-5.283	1511.355	1499.634	1500.366	-0.397	0.092	-0.763	0.383	5.359	-7.656
45758.698	NaN	2.543	6.902	-5.293	1510.623	1498.901	1500.366	-0.336	-0.061	-1.053	0.230	5.435	-7.656
45759.674	NaN	2.533	6.902	-5.304	1510.623	1498.901	1499.634	-0.473	0.000	-1.069	0.383	5.435	-7.656
45760.651	NaN	2.543	6.902	-5.315	1509.890	1499.634	1501.832	-0.748	0.122	-0.947	0.230	5.512	-7.732
45761.627	NaN	2.533	6.902	-5.315	1510.623	1498.168	1498.168	-0.656	0.198	-0.702	0.536	5.512	-7.732
45762.604	NaN	2.543	6.902	-5.315	1510.623	1500.366	1498.901	-0.366	0.198	-0.855	0.459	5.435	-7.809
45763.580	NaN	2.533	6.902	-5.315	1510.623	1500.366	1499.634	-0.168	0.122	-1.008	0.306	5.435	-7.656
45764.557	NaN	2.533	6.902	-5.304	1509.158	1498.901	1500.366	-0.382	0.076	-1.084	0.383	5.435	-7.732
45765.533	NaN	2.511	6.913	-5.304	1510.623	1498.901	1498.901	-0.748	0.168	-0.962	0.459	5.435	-7.732
45766.510	NaN	2.511	6.902	-5.304	1509.158	1499.634	1499.634	-0.656	0.031	-0.687	0.383	5.512	-7.732
45767.487	NaN	2.522	6.902	-5.293	1510.623	1498.168	1498.901	-0.534	-0.015	-0.733	0.306	5.435	-7.656
45768.463	NaN	2.522	6.902	-5.283	1511.355	1499.634	1500.366	-0.489	0.137	-0.885	0.306	5.435	-7.732
45769.440	NaN	2.522	6.891	-5.293	1509.890	1498.168	1499.634	-0.687	0.061	-0.809	0.383	5.589	-7.656
45770.416	NaN	2.533	6.891	-5.293	1510.623	1501.099	1498.901	-0.916	0.061	-0.977	0.383	5.589	-7.809
45771.393	NaN	2.522	6.891	-5.304	1511.355	1498.168	1501.099	-0.931	-0.153	-0.992	0.459	5.512	-7.809
45772.369	NaN	2.522	6.902	-5.315	1508.425	1498.901	1499.634	-0.626	-0.198	-0.901	0.459	5.359	-7.809
45773.346	NaN	2.511	6.902	-5.304	1510.623	1499.634	1500.366	-0.275	0.107	-0.992	0.383	5.512	-7.656
45774.323	NaN	2.511	6.902	-5.304	1509.890	1498.901	1499.634	-0.473	-0.015	-0.840	0.383	5.512	-7.809
45775.299	NaN	2.511	6.902	-5.293	1509.890	1498.901	1500.366	-0.412	-0.061	-0.870	0.306	5.435	-7.809
45776.276	NaN	2.533	6.913	-5.283	1509.890	1499.634	1498.901	-0.565	-0.046	-0.947	0.383	5.435	-7.579
45777.252	NaN	2.533	6.902	-5.272	1510.623	1499.634	1500.366	-0.885	0.076	-0.977	0.383	5.589	-7.732
45778.229	NaN	2.511	6.891	-5.261	1509.158	1499.634	1500.366	-0.611	0.046	-0.885	0.459	5.435	-7.656
45779.205	NaN	2.511	6.913	-5.283	1510.623	1498.901	1498.901	-0.519	0.092	-0.733	0.383	5.359	-7.579
45780.182	NaN	2.511	6.902	-5.272	1509.890	1500.366	1500.366	-0.473	-0.168	-0.794	0.383	5.359	-7.732
45781.158	NaN	2.522	6.902	-5.293	1510.623	1500.366	1498.901	-0.565	-0.412	-0.870	0.383	5.359	-7.656
45782.135	NaN	2.522	6.902	-5.293	1509.890	1499.634	1498.901	-0.748	-0.336	-0.885	0.306	5.512	-7.579
45783.112	NaN	2.522	6.891	-5.293	1511.355	1499.634	1501.099	-0.794	-0.198	-0.763	0.383	5.512	-7.656
45784.088	NaN	2.522	6.891	-5.293	1509.890	1498.901	1500.366	-0.672	-0.183	-0.809	0.536	5.512	-7.579
45785.065	NaN	2.533	6.902	-5.283	1510.623	1499.634	1499.634	-0.534	0.000	-0.992	0.230	5.512	-7.656
45786.041	NaN	2.533	6.880	-5.272	1509.890	1499.634	1499.634	-0.458	0.107	-1.160	0.536	5.589	-7.656
45787.018	NaN	2.533	6.880	-5.272	1509.158	1500.366	1498.901	-0.397	0.107	-1.008	0.230	5.435	-7.732
45787.994	NaN	2.533	6.880	-5.261	1509.158	1500.366	1500.366	-0.565	0.000	-0.794	0.536	5.359	-7.656
45788.971	NaN	2.543	6.880	-5.239	1510.623	1499.634	1501.099	-0.641	0.076	-0.916	0.383	5.359	-7.502
45789.948	NaN	2.533	6.891	-5.250	1510.623	1499.634	1500.366	-0.656	0.107	-1.130	0.383	5.435	-7.656
45790.924	NaN	2.533	6.880	-5.239	1510.623	1498.901	1500.366	-0.595	0.214	-1.191	0.306	5.435	-7.656
45791.901	NaN	2.522	6.870	-5.239	1510.623	1499.634	1501.099	-0.382	0.244	-0.992	0.383	5.435	-7.732
45792.877	NaN	2.522	6.870	-5.239	1510.623	1499.634	1499.634	-0.397	0.031	-0.916	0.383	5.512	-7.732
45793.854	NaN	2.522	6.870	-5.228	1510.623	1499.634	1501.832	-0.611	-0.061	-0.931	0.383	5.512	-7.656
45794.830	NaN	2.533	6.870	-5.228	1510.623	1499.634	1499.634	-0.870	0.000	-0.901	0.306	5.512	-7.502
45795.807	NaN	2.522	6.880	-5.228	1511.355	1499.634	1500.366	-0.870	0.061	-0.870	0.383	5.512	-7.579
45796.783	NaN	2.522	6.880	-5.228	1509.890	1500.366	1499.634	-0.779	0.015	-0.931	0.306	5.435	-7.656
45797.760	NaN	2.511	6.870	-5.217	1510.623	1499.634	1501.832	-0.702	-0.015	-0.931	0.306	5.512	-7.656
45798.737	NaN	2.511	6.870	-5.207	1510.623	1501.099	1501.099	-0.626	0.153	-0.733	0.383	5.435	-7.502
45799.713	NaN	2.522	6.880	-5.207	1510.623	1499.634	1499.634	-0.580	0.092	-0.962	0.306	5.435	-7.579
45800.690	NaN	2.511	6.859	-5.217	1509.890	1499.634	1501.099	-0.626	0.153	-1.053	0.459	5.589	-7.579
45801.666	NaN	2.533	6.859	-5.228	1512.088	1500.366	1499.634	-0.672	0.351	-0.947	0.459	5.435	-7.579
45802.643	NaN	2.522	6.859	-5.217	1510.623	1499.634	1501.099	-0.641	0.260	-0.931	0.306	5.512	-7.579
45803.619	NaN	2.511	6.859	-5.217	1510.623	1499.634	1501.099	-0.718	0.000	-0.901	0.459	5.359	-7.426
45804.596	NaN	2.511	6.870	-5.217	1510.623	1499.634	1501.099	-0.870	-0.061	-0.855	0.383	5.282	-7.579
45805.573	NaN	2.500	6.859	-5.239	1509.890	1500.366	1500.366	-0.779	0.168	-0.992	0.383	5.435	-7.579
45806.549	NaN	2.511	6.870	-5.217	1510.623	1500.366	1498.901	-0.641	0.366	-1.191	0.383	5.435	-7.502
45807.526	NaN	2.511	6.859	-5.217	1509.890	1501.099	1500.366	-0.672	0.473	-1.084	0.306	5.435	-7.656
45808.502	NaN	2.522	6.859	-5.207	1510.623	1500.366	1499.634	-0.473	0.260	-0.931	0.230	5.512	-7.656
45809.479	NaN	2.522	6.859	-5.207	1509.890	1500.366	1499.634	-0.595	0.076	-1.053	0.459	5.435	-7.579
45810.455	NaN	2.511	6.859	-5.207	1511.355	1499.634	1500.366	-0.702	0.076	-1.084	0.383	5.512	-7.579
45811.432	NaN	2.511	6.859	-5.207	1509.890	1499.634	1500.366	-0.687	0.168	-0.916	0.383	5.589	-7.656
45812.408	NaN	2.511	6.859	-5.196	1510.623	1499.634	1499.634	-0.687	0.275	-0.794	0.230	5.359	-7.579
45813.385	NaN	2.511	6.848	-5.207	1510.623	1500.366	1501.099	-0.504	0.397	-0.718	0.459	5.435	-7.579
45814.362	NaN	2.500	6.837	-5.228	1509.890	1499.634	1499.634	-0.824	0.275	-0.672	0.306	5.512	-7.579
45815.338	NaN	2.500	6.837	-5.207	1511.355	1498.901	1501.099	-1.084	0.214	-0.794	0.306	5.435	-7.579
45816.315	NaN	2.500	6.848	-5.207	1511.355	1500.366	1500.366	-0.962	0.229	-0.794	0.459	5.359	-7.579
45817.291	NaN	2.511	6.848	-5.207	1509.890	1500.366	1499.634	-0.809	0.382	-0.779	0.306	5.282	-7.656
45818.268	NaN	2.511	6.848	-5.228	1510.623	1500.366	1499.634	-0.687	0.504	-1.038	0.383	5.589	-7.579
45819.244	NaN	2.500	6.848	-5.239	1510.623	1500.366	1500.366	-0.626	0.412	-0.947	0.383	5.435	-7.579
45820.221	NaN	2.511	6.859	-5.228	1510.623	1501.099	1500.366	-0.626	0.336	-0.855	0.306	5.359	-7.656
45821.198	NaN	2.511	6.859	-5.217	1511.355	1499.634	1501.099	-0.931	0.260	-0.977	0.383	5.435	-7.656
45822.174	NaN	2.511	6.859	-5.228	1510.623	1499.634	1500.366	-0.977	0.321	-0.901	0.306	5.435	-7.656
45823.151	NaN	2.500	6.848	-5.228	1509.890	1499.634	1501.099	-0.824	0.336	-0.962	0.306	5.512	-7.579
45824.127	NaN	2.511	6.859	-5.228	1511.355	1500.366	1498.168	-0.595	0.443	-1.053	0.383	5.512	-7.656
45825.104	NaN	2.511	6.848	-5.239	1508.425	1500.366	1500.366	-0.687	0.565	-1.053	0.383	5.359	-7.809
45826.080	NaN	2.511	6.859	-5.228	1509.890	1499.634	1499.634	-0.840	0.351	-0.840	0.383	5.435	-7.579
45827.057	NaN	2.522	6.848	-5.217	1509.890	1499.634	1501.099	-0.885	0.183	-0.718	0.459	5.512	-7.732
45828.033	NaN	2.522	6.848	-5.217	1509.158	1498.901	1500.366	-0.855	0.122	-0.931	0.459	5.435	-7.656
45829.010	NaN	2.522	6.859	-5.228	1511.355	1500.366	1499.634	-0.809	0.229	-1.130	0.459	5.435	-7.579
45829.987	NaN	2.511	6.859	-5.239	1510.623	1499.634	1500.366	-1.038	0.214	-1.237	0.383	5.435	-7.656
45830.963	NaN	2.533	6.870	-5.228	1510.623	1499.634	1501.099	-1.084	0.122	-1.130	0.383	5.512	-7.656
45831.940	NaN	2.522	6.859	-5.250	1510.623	1499.634	1500.366	-1.115	0.290	-0.885	0.230	5.589	-7.656
45832.916	NaN	2.533	6.859	-5.261	1509.890	1498.901	1499.634	-0.901	0.489	-0.763	0.459	5.359	-7.579
45833.893	NaN	2.522	6.859	-5.261	1508.425	1499.634	1499.634	-0.962	0.427	-0.992	0.459	5.512	-7.656
45834.869	NaN	2.522	6.870	-5.250	1509.890	1499.634	1499.634	-1.053	0.275	-0.947	0.383	5.435	-7.656
45835.846	NaN	2.511	6.870	-5.250	1509.158	1498.901	1498.168	-0.870	0.260	-0.855	0.306	5.435	-7.579
45836.823	NaN	2.522	6.880	-5.239	1509.890	1498.901	1499.634	-0.855	0.305	-0.672	0.536	5.435	-7.656
45837.799	NaN	2.511	6.870	-5.228	1509.890	1499.634	1500.366	-0.733	0.168	-0.702	0.459	5.589	-7.656
45838.776	NaN	2.522	6.880	-5.239	1509.158	1498.168	1500.366	-0.824	0.198	-1.023	0.383	5.512	-7.656
45839.752	NaN	2.533	6.891	-5.228	1509.890	1499.634	1500.366	-0.931	0.260	-1.206	0.383	5.512	-7.809
45840.729	NaN	2.522	6.880	-5.239	1510.623	1498.901	1500.366	-1.069	0.412	-1.038	0.383	5.435	-7.732
45841.705	NaN	2.533	6.891	-5.239	1510.623	1499.634	1499.634	-1.130	0.427	-1.008	0.459	5.512	-7.732
45842.682	NaN	2.522	6.870	-5.250	1509.890	1500.366	1500.366	-1.023	0.260	-1.053	0.306	5.512	-7.732
45843.658	NaN	2.522	6.870	-5.250	1509.890	1498.901	1501.099	-0.794	0.137	-1.038	0.383	5.435	-7.579
45844.635	NaN	2.533	6.880	-5.250	1510.623	1498.901	1500.366	-0.733	0.122	-0.947	0.383	5.512	-7.809
45845.612	NaN	2.522	6.880	-5.261	1509.890	1498.901	1498.901	-0.809	0.061	-0.916	0.383	5.512	-7.656
45846.588	NaN	2.533	6.880	-5.261	1510.623	1499.634	1500.366	-0.794	0.046	-1.038	0.306	5.512	-7.656
45847.565	NaN	2.522	6.880	-5.283	1509.158	1499.634	1500.366	-0.794	0.351	-1.084	0.383	5.512	-7.732
45848.541	NaN	2.522	6.891	-5.272	1510.623	1498.901	1500.366	-0.885	0.412	-0.840	0.383	5.435	-7.656
45849.518	NaN	2.533	6.902	-5.261	1509.158	1499.634	1500.366	-0.977	0.092	-0.809	0.459	5.665	-7.656
45850.494	NaN	2.522	6.891	-5.272	1509.890	1498.901	1500.366	-1.298	0.000	-0.992	0.306	5.512	-7.809
45851.471	NaN	2.522	6.902	-5.261	1510.623	1499.634	1501.099	-1.237	0.137	-0.809	0.383	5.512	-7.579
45852.448	NaN	2.522	6.891	-5.272	1510.623	1501.099	1500.366	-0.977	0.214	-0.931	0.459	5.512	-7.656
45853.424	NaN	2.533	6.891	-5.283	1511.355	1500.366	1499.634	-0.840	0.046	-1.069	0.306	5.512	-7.732
45854.401	NaN	2.522	6.880	-5.293	1509.890	1500.366	1499.634	-0.794	-0.015	-0.962	0.383	5.512	-7.732
45855.377	NaN	2.522	6.880	-5.283	1510.623	1499.634	1500.366	-0.885	-0.031	-0.733	0.383	5.589	-7.732
45856.354	NaN	2.522	6.891	-5.293	1510.623	1500.366	1500.366	-1.053	-0.015	-0.840	0.459	5.512	-7.656
45857.330	NaN	2.522	6.891	-5.304	1509.890	1500.366	1499.634	-1.008	0.137	-1.069	0.306	5.435	-7.579
45858.307	NaN	2.522	6.891	-5.293	1509.158	1500.366	1499.634	-1.160	0.321	-1.023	0.459	5.512	-7.809
45859.283	NaN	2.522	6.891	-5.304	1509.890	1500.366	1498.901	-1.008	0.229	-1.099	0.383	5.435	-7.732
45860.260	NaN	2.533	6.891	-5.304	1510.623	1499.634	1500.366	-0.885	-0.031	-0.992	0.383	5.665	-7.809
45861.237	NaN	2.522	6.902	-5.315	1510.623	1499.634	1501.099	-1.084	0.015	-0.870	0.383	5.435	-7.732
45862.213	NaN	2.522	6.913	-5.326	1509.890	1500.366	1500.366	-1.160	0.107	-0.855	0.383	5.589	-7.732
45863.190	NaN	2.533	6.902	-5.326	1511.355	1499.634	1501.832	-1.099	0.031	-0.977	0.383	5.435	-7.656
45864.166	NaN	2.533	6.913	-5.326	1511.355	1501.099	1500.366	-0.992	-0.122	-1.145	0.306	5.512	-7.732
45865.143	NaN	2.522	6.913	-5.326	1511.355	1499.634	1500.366	-1.069	-0.015	-1.237	0.383	5.435	-7.732
45866.119	NaN	2.533	6.902	-5.315	1510.623	1501.099	1501.099	-1.069	-0.076	-0.962	0.383	5.512	-7.579
45867.096	NaN	2.533	6.902	-5.293	1510.623	1498.901	1500.366	-1.053	-0.061	-0.916	0.306	5.435	-7.732
45868.073	NaN	2.522	6.902	-5.315	1510.623	1500.366	1500.366	-1.084	-0.092	-1.069	0.306	5.512	-7.579
45869.049	NaN	2.533	6.902	-5.304	1510.623	1500.366	1499.634	-1.099	-0.153	-1.023	0.459	5.435	-7.579
45870.026	NaN	2.533	6.902	-5.304	1509.890	1500.366	1500.366	-1.191	0.000	-0.931	0.383	5.512	-7.732
45871.002	NaN	2.533	6.913	-5.293	1511.355	1500.366	1499.634	-1.099	0.000	-0.916	0.459	5.512	-7.656
45871.979	NaN	2.533	6.891	-5.293	1509.890	1499.634	1501.099	-1.069	-0.168	-0.962	0.306	5.512	-7.656
45872.955	NaN	2.533	6.902	-5.293	1511.355	1500.366	1500.366	-0.870	-0.168	-0.992	0.383	5.512	-7.579
45873.932	NaN	2.533	6.891	-5.283	1510.623	1500.366	1500.366	-0.809	0.122	-0.901	0.383	5.435	-7.656
45874.908	NaN	2.533	6.891	-5.293	1509.890	1499.634	1499.634	-1.145	0.076	-1.038	0.383	5.359	-7.732
45875.885	NaN	2.543	6.880	-5.283	1511.355	1499.634	1498.168	-1.176	0.031	-0.977	0.306	5.512	-7.732
45876.862	NaN	2.533	6.870	-5.283	1509.158	1499.634	1499.634	-1.206	0.183	-1.008	0.383	5.512	-7.885
45877.838	NaN	2.533	6.880	-5.283	1510.623	1500.366	1501.099	-1.344	0.229	-1.008	0.383	5.435	-7.732
45878.815	NaN	2.533	6.880	-5.261	1509.890	1501.099	1498.901	-1.038	0.061	-0.947	0.306	5.435	-7.656
45879.791	NaN	2.522	6.880	-5.261	1510.623	1499.634	1500.366	-0.931	0.122	-0.855	0.459	5.435	-7.579
45880.768	NaN	2.522	6.880	-5.261	1509.890	1501.099	1498.168	-1.038	0.137	-0.916	0.459	5.512	-7.579
45881.744	NaN	2.522	6.880	-5.261	1510.623	1499.634	1500.366	-1.206	0.168	-0.992	0.383	5.512	-7.502
45882.721	NaN	2.533	6.880	-5.261	1510.623	1499.634	1501.832	-1.237	0.107	-0.931	0.383	5.512	-7.732
45883.698	NaN	2.522	6.880	-5.261	1510.623	1500.366	1500.366	-1.313	0.046	-0.962	0.536	5.512	-7.732
45884.674	NaN	2.522	6.880	-5.261	1510.623	1499.634	1501.099	-1.206	-0.046	-1.084	0.306	5.435	-7.732
45885.651	NaN	2.511	6.880	-5.261	1510.623	1499.634	1501.099	-1.160	0.015	-1.099	0.459	5.512	-7.502
45886.627	NaN	2.511	6.902	-5.239	1512.088	1499.634	1500.366	-1.160	0.122	-1.069	0.306	5.589	-7.809
45887.604	NaN	2.511	6.891	-5.239	1510.623	1499.634	1501.832	-1.130	0.366	-1.008	0.536	5.512	-7.656
45888.580	NaN	2.533	6.891	-5.250	1511.355	1500.366	1499.634	-0.962	0.244	-0.992	0.383	5.435	-7.579
45889.557	NaN	2.522	6.880	-5.250	1509.890	1498.168	1500.366	-1.160	0.107	-0.870	0.306	5.512	-7.656
45890.533	NaN	2.522	6.880	-5.228	1511.355	1499.634	1500.366	-1.145	-0.046	-0.855	0.306	5.435	-7.656
45891.510	NaN	2.511	6.891	-5.250	1508.425	1499.634	1499.634	-1.053	0.076	-0.870	0.383	5.435	-7.656
45892.487	NaN	2.511	6.891	-5.250	1509.158	1498.901	1498.901	-1.176	0.275	-0.885	0.306	5.512	-7.656
45893.463	NaN	2.511	6.880	-5.228	1510.623	1500.366	1500.366	-1.191	0.351	-1.099	0.306	5.589	-7.732
45894.440	NaN	2.511	6.891	-5.217	1509.890	1499.634	1499.634	-1.313	0.229	-0.916	0.306	5.589	-7.732
45895.416	NaN	2.511	6.880	-5.239	1511.355	1500.366	1500.366	-1.252	0.229	-0.702	0.383	5.435	-7.579
45896.393	NaN	2.500	6.880	-5.239	1510.623	1499.634	1498.901	-1.053	0.153	-1.038	0.383	5.435	-7.656
45898.346	NaN	2.500	6.880	-5.239	1510.623	1500.366	1500.366	-1.099	0.214	-1.008	0.306	5.435	-7.579
45899.323	NaN	2.500	6.870	-5.239	1509.890	1498.901	1499.634	-1.267	0.015	-0.992	0.459	5.359	-7.809
45900.299	NaN	2.511	6.880	-5.228	1509.890	1499.634	1501.099	-1.206	-0.076	-0.931	0.306	5.512	-7.656
45901.276	NaN	2.500	6.870	-5.239	1509.890	1499.634	1499.634	-1.206	0.046	-0.931	0.459	5.435	-7.656
45902.252	NaN	2.511	6.870	-5.239	1509.890	1499.634	1501.832	-1.313	0.366	-0.962	0.230	5.359	-7.656
45903.229	NaN	2.522	6.880	-5.217	1510.623	1499.634	1499.634	-1.237	0.275	-1.008	0.383	5.435	-7.732
45904.205	NaN	2.511	6.880	-5.228	1510.623	1498.901	1500.366	-1.252	0.168	-1.023	0.306	5.512	-7.579
45905.182	NaN	2.522	6.891	-5.207	1510.623	1499.634	1500.366	-1.527	0.214	-0.977	0.383	5.512	-7.732
45906.158	NaN	2.522	6.891	-5.217	1509.158	1499.634	1499.634	-1.511	0.214	-0.962	0.383	5.512	-7.502
45907.135	NaN	2.533	6.880	-5.217	1510.623	1499.634	1501.099	-1.160	0.122	-0.962	0.459	5.435	-7.502
45908.112	NaN	2.500	6.880	-5.228	1509.890	1500.366	1500.366	-1.099	0.046	-0.992	0.459	5.435	-7.426
45909.088	NaN	2.500	6.870	-5.239	1509.158	1498.901	1499.634	-1.206	0.229	-1.084	0.306	5.435	-7.579
45910.065	NaN	2.511	6.870	-5.217	1510.623	1499.634	1501.099	-1.237	0.214	-1.038	0.459	5.589	-7.579
45911.041	NaN	2.500	6.880	-5.228	1509.890	1499.634	1501.832	-1.176	0.000	-0.916	0.459	5.512	-7.579
45912.018	NaN	2.500	6.880	-5.239	1509.890	1498.901	1498.901	-1.145	-0.031	-0.824	0.306	5.435	-7.502
45912.994	NaN	2.511	6.880	-5.239	1509.890	1498.901	1498.901	-1.099	0.153	-0.947	0.383	5.435	-7.656
45913.971	NaN	2.511	6.870	-5.228	1509.890	1499.634	1499.634	-1.191	0.137	-1.008	0.459	5.512	-7.502
45914.948	NaN	2.511	6.870	-5.207	1509.158	1499.634	1500.366	-1.099	0.061	-1.099	0.306	5.589	-7.579
45915.924	NaN	2.511	6.859	-5.207	1510.623	1499.634	1500.366	-1.191	0.260	-1.176	0.306	5.435	-7.732
45916.901	NaN	2.511	6.859	-5.207	1510.623	1498.901	1501.099	-1.221	0.366	-1.160	0.306	5.665	-7.579
45917.877	NaN	2.511	6.870	-5.196	1511.355	1500.366	1500.366	-1.298	0.275	-0.947	0.306	5.512	-7.579
45918.854	3736842347.921	2.511	6.880	-5.196	1511.355	1500.366	1499.634	-1.176	0.275	-0.901	0.459	5.359	-7.579
45919.830	NaN	2.511	6.870	-5.207	1509.158	1501.099	1500.366	-1.176	0.244	-0.947	0.459	5.359	-7.732
45920.807	NaN	2.511	6.870	-5.217	1510.623	1501.099	1500.366	-1.145	0.153	-0.947	0.459	5.435	-7.502
45921.783	NaN	2.511	6.870	-5.228	1509.890	1500.366	1499.634	-1.237	0.137	-0.901	0.459	5.512	-7.502
45922.760	NaN	2.533	6.870	-5.228	1510.623	1500.366	1501.099	-1.145	0.198	-1.023	0.383	5.589	-7.656
45923.737	NaN	2.533	6.880	-5.217	1509.890	1500.366	1500.366	-1.252	0.244	-1.191	0.230	5.512	-7.656
45924.713	NaN	2.522	6.880	-5.228	1509.158	1499.634	1500.366	-1.252	0.229	-1.206	0.536	5.435	-7.579
45925.690	NaN	2.511	6.880	-5.228	1509.890	1499.634	1500.366	-1.252	0.290	-1.115	0.459	5.435	-7.502
45926.666	NaN	2.522	6.880	-5.228	1512.088	1499.634	1500.366	-1.252	0.382	-1.053	0.536	5.359	-7.656
45927.643	NaN	2.511	6.880	-5.228	1511.355	1499.634	1501.832	-1.344	0.290	-1.145	0.536	5.512	-7.579
45928.619	NaN	2.522	6.880	-5.228	1511.355	1498.901	1500.366	-1.466	0.153	-1.145	0.459	5.512	-7.502
45929.596	NaN	2.533	6.880	-5.228	1510.623	1499.634	1500.366	-1.466	0.321	-1.069	0.383	5.512	-7.656
45930.573	NaN	2.522	6.880	-5.239	1511.355	1499.634	1499.634	-1.344	0.489	-1.053	0.383	5.512	-7.579
45931.549	NaN	2.533	6.880	-5.228	1510.623	1500.366	1498.901	-1.267	0.397	-1.099	0.306	5.435	-7.502
45932.526	NaN	2.533	6.880	-5.228	1511.355	1500.366	1499.634	-1.282	0.397	-1.099	0.383	5.512	-7.656
45933.502	NaN	2.522	6.870	-5.239	1511.355	1499.634	1501.832	-1.191	0.336	-1.130	0.383	5.665	-7.656
45934.479	NaN	2.522	6.880	-5.239	1512.088	1499.634	1501.099	-1.160	0.214	-1.359	0.306	5.435	-7.732
45935.455	NaN	2.522	6.880	-5.250	1509.890	1500.366	1500.366	-1.252	0.107	-1.282	0.230	5.512	-7.732
45936.432	NaN	2.522	6.891	-5.250	1511.355	1499.634	1500.366	-1.176	0.198	-0.992	0.459	5.359	-7.656
45937.408	NaN	2.522	6.880	-5.261	1509.158	1500.366	1500.366	-1.115	0.290	-0.840	0.383	5.359	-7.579
45938.385	NaN	2.533	6.891	-5.261	1508.425	1499.634	1501.832	-1.191	0.153	-0.855	0.306	5.512	-7.579
45939.362	NaN	2.533	6.891	-5.272	1509.890	1500.366	1500.366	-1.481	0.153	-0.947	0.459	5.512	-7.809
45940.338	NaN	2.522	6.891	-5.261	1511.355	1499.634	1502.564	-1.466	0.229	-1.023	0.383	5.435	-7.885
45941.315	NaN	2.533	6.891	-5.250	1509.158	1501.099	1499.634	-1.237	0.275	-1.160	0.383	5.589	-7.732
45942.291	NaN	2.533	6.880	-5.250	1510.623	1500.366	1499.634	-1.176	0.336	-1.160	0.383	5.589	-7.656
45943.268	NaN	2.533	6.880	-5.261	1509.890	1500.366	1500.366	-1.099	0.244	-0.977	0.306	5.512	-7.732
45944.244	NaN	2.522	6.902	-5.261	1511.355	1500.366	1499.634	-1.206	0.229	-0.794	0.459	5.512	-7.579
45945.221	NaN	2.522	6.902	-5.250	1511.355	1499.634	1501.099	-1.237	0.092	-1.084	0.230	5.512	-7.732
45946.198	NaN	2.533	6.913	-5.250	1511.355	1499.634	1501.099	-1.130	0.122	-1.252	0.383	5.512	-7.732
45947.174	NaN	2.533	6.902	-5.272	1510.623	1500.366	1499.634	-0.977	0.168	-1.328	0.383	5.665	-7.502
45948.151	NaN	2.522	6.891	-5.283	1510.623	1500.366	1498.901	-1.191	0.107	-1.420	0.306	5.589	-7.656
45949.127	NaN	2.533	6.902	-5.272	1511.355	1500.366	1500.366	-1.450	0.229	-1.252	0.459	5.589	-7.732
45950.104	NaN	2.533	6.913	-5.283	1509.890	1501.099	1498.901	-1.588	0.183	-1.115	0.383	5.435	-7.579
45951.080	NaN	2.543	6.902	-5.272	1510.623	1499.634	1501.099	-1.359	0.092	-1.023	0.306	5.435	-7.732
45952.057	NaN	2.533	6.902	-5.261	1510.623	1499.634	1499.634	-1.130	0.137	-1.160	0.383	5.512	-7.732
45953.033	NaN	2.533	6.902	-5.272	1510.623	1499.634	1500.366	-1.084	0.122	-1.221	0.383	5.512	-7.656
45954.010	NaN	2.543	6.913	-5.261	1509.158	1499.634	1498.168	-0.931	0.153	-1.359	0.383	5.589	-7.732
45954.987	NaN	2.533	6.902	-5.283	1510.623	1499.634	1498.901	-0.885	0.092	-1.252	0.383	5.512	-7.809
45955.963	NaN	2.533	6.913	-5.293	1509.890	1499.634	1499.634	-1.069	0.198	-1.221	0.383	5.435	-7.656
45956.940	NaN	2.533	6.913	-5.283	1509.890	1499.634	1499.634	-0.992	0.061	-0.992	0.536	5.512	-7.809
45957.916	NaN	2.543	6.924	-5.283	1510.623	1498.901	1499.634	-1.237	-0.046	-1.084	0.383	5.512	-7.656
45958.893	NaN	2.533	6.902	-5.283	1509.890	1498.901	1501.099	-1.664	-0.015	-1.160	0.459	5.512	-7.579
45959.869	NaN	2.543	6.913	-5.283	1510.623	1500.366	1499.634	-1.649	-0.061	-0.962	0.230	5.512	-7.732
45960.846	NaN	2.543	6.902	-5.293	1510.623	1499.634	1500.366	-1.130	0.107	-1.084	0.383	5.512	-7.579
45961.823	NaN	2.543	6.913	-5.283	1509.890	1500.366	1498.901	-0.962	0.137	-1.115	0.383	5.589	-7.656
45962.799	NaN	2.533	6.902	-5.304	1509.890	1499.634	1500.366	-1.176	0.092	-0.992	0.383	5.589	-7.732
45963.776	NaN	2.533	6.924	-5.293	1509.890	1498.168	1500.366	-1.176	0.046	-0.809	0.383	5.512	-7.732
45964.752	NaN	2.533	6.913	-5.293	1508.425	1499.634	1501.099	-1.130	0.046	-1.038	0.459	5.512	-7.656
45965.729	NaN	2.522	6.902	-5.293	1509.890	1499.634	1500.366	-1.160	-0.290	-1.237	0.459	5.665	-7.656
45966.705	NaN	2.522	6.913	-5.293	1509.890	1500.366	1500.366	-1.221	-0.260	-1.160	0.306	5.512	-7.579
45967.682	NaN	2.522	6.902	-5.293	1509.890	1498.901	1499.634	-1.115	-0.229	-1.145	0.306	5.589	-7.656
45968.658	NaN	2.533	6.902	-5.283	1509.158	1500.366	1499.634	-1.023	-0.031	-1.282	0.459	5.589	-7.732
45969.635	NaN	2.533	6.891	-5.293	1510.623	1500.366	1499.634	-0.992	0.076	-1.374	0.459	5.512	-7.579
45970.612	NaN	2.543	6.891	-5.293	1509.890	1499.634	1499.634	-1.328	0.092	-1.282	0.459	5.512	-7.809
45971.588	NaN	2.533	6.902	-5.293	1512.088	1500.366	1500.366	-1.282	-0.061	-1.206	0.306	5.512	-7.656
45972.565	NaN	2.533	6.902	-5.293	1510.623	1499.634	1499.634	-0.947	-0.260	-1.069	0.383	5.589	-7.656
45973.541	NaN	2.533	6.902	-5.283	1509.158	1498.901	1498.901	-1.053	-0.290	-1.115	0.306	5.512	-7.656
45974.518	NaN	2.543	6.913	-5.272	1510.623	1498.901	1501.099	-1.374	-0.092	-1.176	0.536	5.512	-7.732
45975.494	NaN	2.533	6.913	-5.293	1509.890	1499.634	1499.634	-1.450	0.214	-1.221	0.383	5.512	-7.885
45976.471	NaN	2.543	6.913	-5.272	1509.890	1498.901	1500.366	-1.359	-0.015	-1.160	0.383	5.512	-7.656
45977.448	NaN	2.533	6.913	-5.272	1510.623	1499.634	1499.634	-1.252	-0.122	-1.206	0.459	5.512	-7.656
45978.424	NaN	2.533	6.913	-5.261	1509.890	1499.634	1498.901	-0.962	-0.015	-1.160	0.459	5.665	-7.656
45979.401	NaN	2.533	6.924	-5.250	1510.623	1498.901	1500.366	-0.901	0.000	-1.115	0.459	5.512	-7.656
45980.377	NaN	2.533	6.924	-5.239	1511.355	1499.634	1502.564	-1.084	-0.260	-1.115	0.459	5.435	-7.579
45981.354	NaN	2.522	6.913	-5.250	1511.355	1499.634	1500.366	-1.206	-0.305	-1.237	0.230	5.512	-7.656
45982.330	NaN	2.522	6.913	-5.261	1509.890	1499.634	1500.366	-1.191	-0.107	-1.206	0.383	5.512	-7.732
45983.307	NaN	2.533	6.913	-5.272	1510.623	1500.366	1497.436	-1.008	-0.076	-0.931	0.383	5.665	-7.579
45984.283	NaN	2.522	6.902	-5.293	1510.623	1499.634	1500.366	-1.099	-0.137	-1.099	0.383	5.512	-7.579
45985.260	NaN	2.543	6.902	-5.272	1510.623	1500.366	1499.634	-1.069	-0.275	-1.282	0.459	5.435	-7.656
45986.237	NaN	2.543	6.902	-5.272	1510.623	1500.366	1500.366	-1.069	-0.351	-1.405	0.383	5.435	-7.579
45987.213	NaN	2.533	6.891	-5.272	1511.355	1500.366	1499.634	-1.145	-0.244	-1.374	0.383	5.435	-7.579
45988.190	NaN	2.522	6.880	-5.261	1509.890	1499.634	1500.366	-1.099	-0.153	-1.115	0.383	5.435	-7.656
45989.166	NaN	2.533	6.880	-5.261	1511.355	1500.366	1501.099	-1.115	-0.061	-1.084	0.383	5.589	-7.732
45990.143	NaN	2.533	6.891	-5.261	1510.623	1500.366	1500.366	-1.252	0.031	-1.282	0.383	5.435	-7.656
45991.119	NaN	2.533	6.891	-5.250	1511.355	1500.366	1499.634	-1.267	-0.214	-1.298	0.230	5.589	-7.732
45992.096	NaN	2.533	6.891	-5.250	1510.623	1498.901	1500.366	-1.252	-0.198	-1.160	0.383	5.589	-7.579
45993.073	NaN	2.522	6.891	-5.250	1510.623	1499.634	1501.832	-1.099	-0.137	-1.053	0.230	5.435	-7.656
45994.049	NaN	2.522	6.902	-5.228	1510.623	1500.366	1500.366	-1.069	-0.244	-1.237	0.230	5.435	-7.579
45995.026	NaN	2.522	6.891	-5.228	1510.623	1499.634	1500.366	-1.176	-0.275	-1.298	0.306	5.435	-7.502
45996.002	NaN	2.511	6.880	-5.228	1510.623	1499.634	1500.366	-1.115	-0.092	-1.252	0.383	5.359	-7.579
45996.979	NaN	2.522	6.891	-5.228	1510.623	1500.366	1499.634	-1.084	-0.092	-1.084	0.306	5.512	-7.656
45997.955	NaN	2.511	6.880	-5.239	1509.890	1499.634	1499.634	-1.298	-0.168	-1.084	0.306	5.435	-7.732
45998.932	NaN	2.522	6.870	-5.217	1509.890	1499.634	1501.099	-1.405	-0.137	-1.252	0.383	5.512	-7.809
45999.908	NaN	2.533	6.870	-5.207	1511.355	1499.634	1499.634	-1.206	0.000	-1.084	0.306	5.512	-7.732
46000.885	NaN	2.543	6.880	-5.228	1510.623	1500.366	1498.168	-1.069	0.137	-0.931	0.459	5.435	-7.579
46001.862	NaN	2.554	6.880	-5.228	1510.623	1499.634	1500.366	-1.023	0.046	-1.038	0.383	5.359	-7.656
46002.838	NaN	2.554	6.880	-5.217	1511.355	1499.634	1501.099	-0.931	-0.168	-1.160	0.383	5.512	-7.809
46003.815	NaN	2.554	6.880	-5.228	1510.623	1499.634	1498.901	-0.992	-0.305	-1.099	0.306	5.512	-7.656
46004.791	NaN	2.533	6.870	-5.228	1509.890	1500.366	1499.634	-1.008	-0.061	-1.115	0.153	5.512	-7.502
46005.768	NaN	2.533	6.870	-5.228	1509.158	1499.634	1501.099	-1.038	-0.015	-1.206	0.306	5.512	-7.579
46006.744	NaN	2.511	6.870	-5.239	1510.623	1500.366	1498.901	-1.145	-0.183	-1.130	0.383	5.435	-7.579
46007.721	NaN	2.511	6.870	-5.228	1510.623	1499.634	1501.099	-1.160	-0.137	-0.992	0.306	5.435	-7.426
46008.698	NaN	2.511	6.880	-5.228	1510.623	1499.634	1500.366	-1.130	-0.031	-0.947	0.459	5.512	-7.732
46009.674	NaN	2.511	6.870	-5.228	1509.890	1499.634	1499.634	-1.221	-0.061	-1.206	0.459	5.359	-7.579
46010.651	NaN	2.500	6.870	-5.228	1510.623	1499.634	1500.366	-1.374	0.000	-1.267	0.383	5.589	-7.656
46011.627	NaN	2.511	6.880	-5.207	1510.623	1500.366	1500.366	-1.221	-0.031	-1.099	0.383	5.359	-7.579
46012.604	NaN	2.511	6.880	-5.196	1509.890	1500.366	1500.366	-1.145	-0.076	-0.947	0.306	5.512	-7.579
46013.580	NaN	2.511	6.880	-5.196	1510.623	1499.634	1499.634	-1.160	-0.061	-0.916	0.459	5.589	-7.502
46014.557	NaN	2.522	6.880	-5.207	1510.623	1500.366	1500.366	-0.947	0.076	-1.053	0.459	5.435	-7.656
46015.533	NaN	2.522	6.880	-5.217	1510.623	1499.634	1499.634	-0.947	0.107	-1.344	0.230	5.512	-7.579
46016.510	NaN	2.522	6.880	-5.217	1510.623	1500.366	1498.168	-0.947	0.015	-1.115	0.383	5.359	-7.579
46017.487	NaN	2.500	6.880	-5.228	1510.623	1498.901	1498.901	-0.855	0.137	-1.069	0.383	5.665	-7.579
46018.463	NaN	2.500	6.870	-5.228	1509.158	1498.168	1500.366	-0.977	0.061	-1.145	0.383	5.512	-7.656
46019.440	NaN	2.511	6.880	-5.228	1509.890	1499.634	1501.099	-1.115	-0.107	-0.962	0.459	5.359	-7.656
46020.416	NaN	2.522	6.880	-5.239	1510.623	1499.634	1501.099	-1.084	-0.031	-1.023	0.459	5.512	-7.732
46021.393	NaN	2.533	6.891	-5.217	1510.623	1499.634	1501.832	-0.870	0.046	-1.160	0.459	5.512	-7.579
46022.369	NaN	2.533	6.880	-5.217	1510.623	1499.634	1500.366	-0.901	0.092	-1.282	0.459	5.512	-7.732
46023.346	NaN	2.522	6.880	-5.228	1509.158	1498.901	1499.634	-0.992	0.122	-1.206	0.383	5.589	-7.579
46024.323	NaN	2.511	6.880	-5.228	1510.623	1500.366	1501.099	-1.176	0.046	-0.916	0.383	5.589	-7.732
46025.299	NaN	2.511	6.880	-5.228	1510.623	1500.366	1500.366	-1.160	0.061	-0.824	0.536	5.512	-7.656
46026.276	NaN	2.511	6.880	-5.228	1509.890	1499.634	1499.634	-0.901	0.046	-0.855	0.306	5.435	-7.732
46027.252	NaN	2.511	6.870	-5.217	1509.890	1499.634	1501.832	-0.794	0.122	-0.840	0.306	5.512	-7.579
46028.229	NaN	2.500	6.870	-5.217	1509.158	1498.901	1499.634	-0.870	0.107	-0.962	0.459	5.359	-7.579
46029.205	NaN	2.511	6.870	-5.207	1510.623	1500.366	1498.901	-0.824	0.107	-1.023	0.383	5.512	-7.656
46030.182	NaN	2.500	6.870	-5.217	1509.890	1499.634	1499.634	-0.840	0.198	-1.160	0.306	5.512	-7.349
46031.158	NaN	2.511	6.880	-5.207	1509.158	1499.634	1499.634	-0.763	0.122	-1.267	0.383	5.435	-7.579
46032.135	NaN	2.511	6.880	-5.228	1510.623	1499.634	1500.366	-0.916	-0.122	-1.160	0.230	5.435	-7.656
46035.065	NaN	2.500	6.891	-5.239	1511.355	1499.634	1500.366	-0.885	0.153	-0.962	0.459	5.359	-7.732
46036.041	NaN	2.522	6.891	-5.239	1509.890	1498.901	1499.634	-0.702	0.275	-0.931	0.383	5.512	-7.502
46037.018	NaN	2.522	6.880	-5.239	1511.355	1499.634	1500.366	-0.763	0.260	-0.931	0.459	5.435	-7.732
46037.994	NaN	2.511	6.880	-5.272	1509.158	1498.901	1500.366	-1.053	0.076	-0.885	0.383	5.512	-7.579
46038.971	NaN	2.522	6.880	-5.250	1511.355	1500.366	1498.901	-1.130	0.046	-1.008	0.383	5.435	-7.732
46039.948	NaN	2.522	6.880	-5.283	1511.355	1499.634	1500.366	-0.962	0.015	-1.069	0.306	5.512	-7.656
46040.924	NaN	2.533	6.880	-5.272	1509.890	1498.901	1500.366	-1.069	0.107	-0.962	0.459	5.435	-7.656
46041.901	NaN	2.533	6.902	-5.250	1509.158	1498.901	1501.099	-1.160	0.031	-0.977	0.306	5.435	-7.732
46042.877	NaN	2.533	6.902	-5.261	1509.890	1498.901	1498.168	-1.084	-0.137	-1.130	0.383	5.589	-7.579
46043.854	NaN	2.533	6.891	-5.250	1509.890	1498.901	1498.901	-0.977	0.031	-1.099	0.306	5.589	-7.656
46044.830	NaN	2.522	6.891	-5.261	1508.425	1500.366	1500.366	-0.901	0.031	-1.145	0.306	5.359	-7.656
46045.807	NaN	2.522	6.891	-5.261	1509.890	1498.901	1498.168	-0.885	0.183	-1.145	0.306	5.435	-7.732
46046.783	NaN	2.511	6.880	-5.261	1509.890	1500.366	1498.901	-0.947	0.092	-1.008	0.383	5.512	-7.732
46047.760	NaN	2.533	6.891	-5.250	1510.623	1499.634	1501.832	-1.038	0.031	-0.977	0.459	5.589	-7.502
46048.737	NaN	2.522	6.891	-5.261	1509.890	1498.901	1499.634	-1.099	-0.092	-1.053	0.383	5.512	-7.579
46049.713	NaN	2.511	6.902	-5.272	1510.623	1498.901	1501.099	-0.992	-0.046	-1.084	0.383	5.512	-7.656
46050.690	NaN	2.511	6.913	-5.272	1510.623	1499.634	1500.366	-1.160	-0.168	-1.115	0.459	5.435	-7.809
46051.666	NaN	2.522	6.924	-5.272	1511.355	1500.366	1500.366	-1.038	-0.214	-0.931	0.459	5.435	-7.809
46052.643	NaN	2.522	6.913	-5.261	1510.623	1499.634	1501.832	-0.931	-0.153	-0.947	0.536	5.435	-7.579
46053.619	NaN	2.522	6.913	-5.272	1509.158	1500.366	1500.366	-0.977	-0.046	-1.069	0.383	5.512	-7.656
46054.596	NaN	2.522	6.913	-5.272	1510.623	1499.634	1499.634	-0.885	0.061	-1.221	0.306	5.512	-7.579
