Timestamp	PC Timestamp	Low Noise Accelerometer X	Low Noise Accelerometer Y	Low Noise Accelerometer Z	Int A12	Int A13	Int A14	Gyroscope X	Gyroscope Y	Gyroscope Z	Wide Range Accelerometer X	Wide Range Accelerometer Y	Wide Range Accelerometer Z
258391.510	NaN	-3.076	1.413	9.500	1504.762	1504.029	1510.623	7.863	0.779	-14.336	-5.818	-0.383	8.498
258392.487	NaN	-3.076	1.413	9.500	1505.495	1504.029	1509.158	7.878	0.855	-14.122	-5.665	-0.383	8.344
258393.463	NaN	-3.076	1.402	9.500	1504.029	1503.297	1509.158	7.863	0.916	-14.382	-5.665	-0.306	8.421
258394.440	NaN	-3.076	1.413	9.500	1504.029	1504.762	1509.158	8.046	0.962	-14.382	-5.742	-0.459	8.498
258395.416	NaN	-3.054	1.424	9.511	1505.495	1504.762	1511.355	8.046	0.931	-14.366	-5.665	-0.383	8.574
258396.393	NaN	-3.054	1.424	9.522	1506.227	1504.029	1510.623	7.924	0.840	-14.473	-5.665	-0.536	8.268
258397.369	NaN	-3.065	1.413	9.522	1505.495	1503.297	1509.890	8.076	0.840	-14.305	-5.818	-0.459	8.191
258398.346	NaN	-3.054	1.413	9.511	1505.495	1503.297	1510.623	8.244	0.840	-14.214	-5.665	-0.459	8.421
258399.323	NaN	-3.054	1.402	9.511	1505.495	1503.297	1509.890	8.336	0.916	-14.412	-5.818	-0.459	8.498
258400.299	NaN	-3.054	1.424	9.522	1506.227	1504.029	1510.623	8.107	0.931	-14.626	-5.742	-0.459	8.421
258401.276	NaN	-3.065	1.413	9.511	1505.495	1503.297	1509.890	8.107	0.931	-14.580	-5.742	-0.459	8.574
258402.252	NaN	-3.076	1.413	9.500	1504.762	1503.297	1509.890	8.092	0.931	-14.519	-5.895	-0.383	8.421
258403.229	NaN	-3.087	1.402	9.500	1505.495	1504.029	1510.623	8.061	0.855	-14.489	-5.665	-0.536	8.344
258404.205	NaN	-3.076	1.413	9.500	1505.495	1503.297	1511.355	7.817	0.687	-14.336	-5.818	-0.383	8.498
258405.182	NaN	-3.054	1.413	9.500	1504.762	1504.762	1509.890	7.786	0.702	-14.336	-5.665	-0.383	8.498
258406.158	NaN	-3.065	1.413	9.511	1504.029	1503.297	1509.890	7.969	0.580	-14.397	-5.665	-0.459	8.498
258407.135	NaN	-3.054	1.413	9.500	1504.762	1503.297	1509.158	8.092	0.733	-14.321	-5.665	-0.459	8.344
258408.112	NaN	-3.054	1.402	9.511	1506.227	1503.297	1510.623	7.908	0.901	-14.397	-5.742	-0.459	8.574
258409.088	NaN	-3.054	1.402	9.511	1504.762	1504.029	1510.623	7.969	0.855	-14.351	-5.742	-0.383	8.344
258410.065	NaN	-3.076	1.402	9.500	1505.495	1503.297	1509.890	8.107	0.992	-14.214	-5.665	-0.536	8.574
258411.041	NaN	-3.065	1.413	9.522	1504.762	1504.029	1510.623	8.275	0.916	-14.260	-5.818	-0.383	8.344
258412.018	NaN	-3.065	1.413	9.522	1504.762	1504.029	1509.890	8.260	0.916	-14.489	-5.742	-0.383	8.421
258412.994	NaN	-3.065	1.413	9.522	1506.227	1504.029	1511.355	8.137	0.870	-14.565	-5.742	-0.383	8.344
258413.971	NaN	-3.076	1.424	9.522	1505.495	1504.029	1512.088	7.924	0.809	-14.626	-5.742	-0.383	8.651
258414.948	NaN	-3.065	1.413	9.522	1504.762	1503.297	1511.355	7.847	0.947	-14.489	-5.818	-0.383	8.498
258415.924	NaN	-3.065	1.424	9.522	1506.227	1502.564	1510.623	7.939	0.931	-14.427	-5.742	-0.459	8.498
258416.901	NaN	-3.087	1.413	9.511	1505.495	1503.297	1509.158	7.924	0.947	-14.229	-5.818	-0.459	8.498
258417.877	NaN	-3.076	1.424	9.522	1505.495	1503.297	1510.623	7.985	1.053	-14.321	-5.742	-0.612	8.421
258418.854	NaN	-3.076	1.402	9.522	1505.495	1504.029	1511.355	7.969	0.992	-14.397	-5.665	-0.536	8.498
258419.830	NaN	-3.076	1.402	9.522	1505.495	1504.029	1511.355	8.061	0.962	-14.397	-5.589	-0.536	8.421
258420.807	NaN	-3.076	1.402	9.522	1505.495	1503.297	1510.623	7.939	0.855	-14.489	-5.742	-0.383	8.498
258421.783	NaN	-3.076	1.424	9.500	1505.495	1504.029	1510.623	7.817	0.840	-14.519	-5.742	-0.536	8.421
258422.760	NaN	-3.076	1.402	9.500	1505.495	1503.297	1510.623	7.878	0.931	-14.366	-5.818	-0.536	8.421
258423.737	NaN	-3.065	1.413	9.500	1504.029	1503.297	1510.623	7.939	0.931	-14.305	-5.742	-0.536	8.498
258424.713	NaN	-3.065	1.402	9.511	1504.762	1504.029	1509.890	8.015	0.901	-14.198	-5.818	-0.383	8.574
258425.690	NaN	-3.065	1.391	9.511	1504.762	1502.564	1510.623	8.076	0.916	-14.443	-5.742	-0.459	8.268
258426.666	NaN	-3.043	1.413	9.522	1505.495	1504.029	1510.623	7.924	0.916	-14.702	-5.742	-0.459	8.574
258427.643	NaN	-3.043	1.424	9.522	1504.762	1504.029	1511.355	7.618	0.931	-14.656	-5.665	-0.383	8.498
258428.619	NaN	-3.043	1.413	9.511	1505.495	1504.029	1510.623	7.725	0.748	-14.534	-5.818	-0.536	8.421
258429.596	NaN	-3.054	1.402	9.522	1504.762	1504.029	1509.158	8.015	0.641	-14.305	-5.742	-0.459	8.574
258430.573	NaN	-3.065	1.391	9.511	1505.495	1503.297	1509.890	8.061	0.519	-14.351	-5.895	-0.459	8.344
258431.549	NaN	-3.065	1.402	9.522	1504.762	1504.029	1511.355	7.924	0.641	-14.260	-5.665	-0.459	8.498
258432.526	NaN	-3.076	1.402	9.533	1505.495	1504.029	1511.355	7.817	0.611	-14.336	-5.665	-0.459	8.421
258433.502	NaN	-3.065	1.402	9.533	1505.495	1504.029	1510.623	7.924	0.672	-14.397	-5.818	-0.536	8.498
258434.479	NaN	-3.076	1.402	9.533	1505.495	1504.029	1510.623	8.153	0.763	-14.427	-5.742	-0.383	8.498
258435.455	NaN	-3.065	1.424	9.533	1504.029	1504.029	1510.623	8.305	0.702	-14.427	-5.665	-0.383	8.651
258436.432	NaN	-3.065	1.402	9.522	1504.762	1503.297	1510.623	8.168	0.733	-14.473	-5.665	-0.383	8.498
258437.408	NaN	-3.054	1.413	9.533	1505.495	1504.762	1511.355	8.244	0.962	-14.427	-5.742	-0.459	8.421
258438.385	NaN	-3.065	1.413	9.522	1505.495	1503.297	1510.623	8.092	0.947	-14.168	-5.742	-0.383	8.574
258439.362	NaN	-3.076	1.402	9.511	1504.762	1503.297	1509.890	7.908	0.855	-14.214	-5.818	-0.459	8.498
258440.338	NaN	-3.076	1.402	9.511	1504.762	1504.029	1510.623	7.878	0.962	-14.397	-5.665	-0.383	8.344
258441.315	NaN	-3.065	1.413	9.511	1506.227	1504.029	1511.355	8.015	0.977	-14.366	-5.665	-0.383	8.651
258442.291	NaN	-3.065	1.413	9.500	1505.495	1503.297	1510.623	7.893	0.931	-14.305	-5.742	-0.459	8.498
258443.268	NaN	-3.065	1.413	9.500	1503.297	1503.297	1510.623	7.802	0.901	-14.244	-5.818	-0.459	8.421
258444.244	NaN	-3.065	1.435	9.500	1504.762	1504.762	1509.158	7.832	0.779	-14.153	-5.665	-0.459	8.498
258445.221	NaN	-3.065	1.424	9.511	1505.495	1504.029	1509.158	7.954	0.779	-14.305	-5.895	-0.306	8.344
258446.198	NaN	-3.065	1.435	9.511	1505.495	1504.029	1510.623	7.969	0.870	-14.137	-5.818	-0.459	8.421
258447.174	NaN	-3.065	1.424	9.500	1504.762	1504.029	1509.158	8.015	1.008	-14.076	-5.665	-0.536	8.498
258448.151	NaN	-3.076	1.413	9.500	1504.762	1504.029	1509.890	7.939	1.038	-14.336	-5.742	-0.459	8.574
258449.127	NaN	-3.087	1.424	9.500	1506.227	1504.029	1510.623	7.771	0.992	-14.473	-5.665	-0.459	8.344
258450.104	NaN	-3.087	1.413	9.511	1505.495	1504.029	1509.890	7.756	0.885	-14.321	-5.665	-0.383	8.421
258451.080	NaN	-3.087	1.413	9.500	1505.495	1504.029	1509.890	7.756	0.870	-14.260	-5.589	-0.459	8.498
258452.057	NaN	-3.087	1.402	9.489	1506.227	1504.029	1509.890	8.076	0.901	-14.473	-5.818	-0.459	8.421
258453.033	NaN	-3.087	1.413	9.478	1506.227	1505.495	1509.890	8.214	0.947	-14.519	-5.742	-0.383	8.268
258454.010	NaN	-3.065	1.413	9.500	1505.495	1505.495	1510.623	7.969	1.023	-14.275	-5.665	-0.383	8.574
258454.987	NaN	-3.065	1.424	9.511	1505.495	1503.297	1509.890	7.771	0.779	-14.214	-5.742	-0.459	8.498
258455.963	NaN	-3.076	1.413	9.511	1505.495	1503.297	1509.890	7.756	0.641	-14.183	-5.665	-0.383	8.421
258456.940	NaN	-3.076	1.413	9.511	1504.762	1504.029	1509.158	7.618	0.595	-14.092	-5.818	-0.459	8.498
258457.916	NaN	-3.065	1.424	9.511	1504.762	1504.762	1510.623	7.588	0.672	-14.244	-5.665	-0.459	8.344
258458.893	NaN	-3.065	1.424	9.511	1504.029	1504.029	1511.355	7.985	0.702	-14.214	-5.818	-0.459	8.421
258459.869	NaN	-3.065	1.424	9.511	1504.762	1504.029	1509.158	8.107	0.611	-14.153	-5.742	-0.383	8.268
258460.846	NaN	-3.076	1.413	9.522	1506.227	1503.297	1509.158	8.107	0.473	-14.260	-5.818	-0.459	8.574
258461.823	NaN	-3.087	1.413	9.522	1504.029	1502.564	1509.158	7.939	0.595	-14.412	-5.665	-0.459	8.344
258462.799	NaN	-3.087	1.424	9.533	1505.495	1504.029	1510.623	7.817	0.672	-14.336	-5.665	-0.536	8.421
258463.776	NaN	-3.087	1.424	9.543	1506.227	1504.029	1509.158	7.847	0.687	-14.198	-5.665	-0.383	8.421
258464.752	NaN	-3.087	1.413	9.543	1504.762	1504.029	1509.890	8.031	0.672	-13.985	-5.665	-0.383	8.498
258465.729	NaN	-3.087	1.402	9.543	1504.762	1504.029	1509.890	8.122	0.656	-14.122	-5.742	-0.459	8.344
258466.705	NaN	-3.076	1.413	9.543	1505.495	1504.029	1509.890	7.969	0.626	-14.214	-5.665	-0.459	8.498
258467.682	NaN	-3.076	1.402	9.533	1506.227	1504.029	1510.623	8.137	0.626	-14.183	-5.742	-0.459	8.574
258468.658	NaN	-3.076	1.413	9.522	1506.960	1504.029	1510.623	8.229	0.595	-14.107	-5.742	-0.383	8.498
258469.635	NaN	-3.087	1.413	9.522	1506.227	1504.762	1509.890	8.183	0.687	-14.168	-5.665	-0.536	8.574
258470.612	NaN	-3.098	1.402	9.511	1505.495	1504.029	1509.890	8.031	0.779	-14.183	-5.818	-0.536	8.651
258471.588	NaN	-3.098	1.391	9.522	1505.495	1502.564	1508.425	7.954	0.916	-14.214	-5.589	-0.459	8.498
258472.565	NaN	-3.087	1.402	9.511	1505.495	1502.564	1509.890	7.924	1.069	-14.290	-5.665	-0.459	8.344
258473.541	NaN	-3.065	1.402	9.511	1503.297	1502.564	1509.158	7.847	0.870	-14.214	-5.665	-0.536	8.574
258474.518	NaN	-3.076	1.413	9.511	1506.227	1504.029	1509.158	7.847	0.656	-14.076	-5.665	-0.383	8.651
258475.494	NaN	-3.076	1.413	9.522	1505.495	1502.564	1508.425	7.832	0.580	-14.229	-5.665	-0.459	8.421
258476.471	NaN	-3.076	1.424	9.522	1505.495	1504.029	1509.890	7.817	0.824	-14.305	-5.589	-0.383	8.574
258477.448	NaN	-3.076	1.424	9.511	1505.495	1503.297	1509.890	7.908	0.763	-14.382	-5.818	-0.306	8.421
258478.424	NaN	-3.065	1.424	9.522	1504.762	1502.564	1509.890	7.863	0.611	-14.336	-5.818	-0.383	8.344
258479.401	NaN	-3.065	1.424	9.511	1504.762	1503.297	1509.158	7.771	0.550	-14.305	-5.665	-0.383	8.421
258480.377	NaN	-3.065	1.424	9.511	1505.495	1503.297	1509.890	8.015	0.626	-14.351	-5.818	-0.306	8.498
258481.354	NaN	-3.054	1.424	9.511	1504.029	1503.297	1511.355	8.015	0.672	-14.305	-5.665	-0.383	8.344
258482.330	NaN	-3.054	1.413	9.511	1505.495	1504.029	1511.355	8.092	0.733	-14.122	-5.665	-0.383	8.344
258483.307	NaN	-3.065	1.402	9.511	1504.762	1503.297	1509.158	7.939	0.779	-14.015	-5.818	-0.383	8.651
258484.283	NaN	-3.065	1.413	9.500	1505.495	1504.762	1509.890	7.985	0.809	-14.229	-5.665	-0.459	8.421
258485.260	NaN	-3.065	1.413	9.511	1505.495	1504.029	1510.623	8.107	0.855	-14.290	-5.818	-0.383	8.344
258486.237	NaN	-3.065	1.435	9.500	1506.227	1503.297	1509.158	8.046	0.641	-14.305	-5.818	-0.459	8.574
258487.213	NaN	-3.065	1.424	9.489	1506.227	1503.297	1511.355	8.015	0.687	-14.198	-5.665	-0.383	8.421
258488.190	NaN	-3.087	1.413	9.500	1504.762	1502.564	1509.158	7.969	0.611	-14.183	-5.665	-0.536	8.498
258489.166	NaN	-3.076	1.424	9.522	1506.227	1504.029	1510.623	7.954	0.718	-14.214	-5.742	-0.383	8.268
258490.143	NaN	-3.076	1.413	9.500	1504.762	1504.029	1510.623	7.771	0.779	-14.122	-5.665	-0.459	8.421
258491.119	NaN	-3.054	1.413	9.511	1504.762	1502.564	1509.890	7.908	0.702	-14.168	-5.665	-0.306	8.421
258492.096	NaN	-3.054	1.413	9.511	1505.495	1502.564	1510.623	7.756	0.534	-14.198	-5.742	-0.459	8.498
258493.073	NaN	-3.065	1.413	9.500	1504.762	1502.564	1509.890	7.786	0.733	-14.275	-5.818	-0.459	8.421
258494.049	NaN	-3.054	1.424	9.489	1505.495	1503.297	1509.890	7.985	0.885	-14.183	-5.742	-0.383	8.344
258495.026	NaN	-3.054	1.413	9.500	1505.495	1503.297	1509.158	8.046	0.733	-14.137	-5.742	-0.306	8.498
258496.002	NaN	-3.054	1.413	9.500	1505.495	1503.297	1510.623	8.015	0.519	-14.122	-5.895	-0.536	8.421
258496.979	NaN	-3.076	1.413	9.511	1505.495	1504.029	1509.158	7.924	0.489	-14.061	-5.742	-0.383	8.574
258497.955	NaN	-3.065	1.413	9.511	1506.227	1504.029	1511.355	7.740	0.687	-14.076	-5.665	-0.383	8.498
258498.932	NaN	-3.065	1.413	9.511	1504.762	1504.029	1509.890	7.588	0.779	-14.046	-5.665	-0.306	8.421
258499.908	NaN	-3.076	1.413	9.500	1505.495	1504.029	1510.623	7.679	0.748	-14.046	-5.818	-0.536	8.344
258500.885	NaN	-3.076	1.402	9.511	1504.029	1502.564	1509.890	7.618	0.702	-14.366	-5.818	-0.383	8.421
258501.862	NaN	-3.065	1.413	9.500	1504.762	1504.029	1509.890	7.725	0.763	-14.397	-5.665	-0.536	8.421
258502.838	NaN	-3.054	1.402	9.522	1506.227	1504.029	1512.088	7.924	0.672	-14.275	-5.742	-0.383	8.498
258503.815	NaN	-3.065	1.402	9.522	1504.762	1502.564	1508.425	8.061	0.687	-14.244	-5.818	-0.383	8.574
258504.791	NaN	-3.054	1.413	9.511	1506.227	1502.564	1509.890	8.092	0.779	-14.107	-5.742	-0.383	8.421
258505.768	NaN	-3.076	1.413	9.500	1504.762	1502.564	1510.623	8.046	0.901	-13.985	-5.895	-0.536	8.421
258506.744	NaN	-3.054	1.413	9.489	1505.495	1504.029	1509.158	7.878	0.733	-13.985	-5.742	-0.383	8.498
258507.721	NaN	-3.065	1.424	9.500	1506.227	1503.297	1510.623	7.710	0.641	-14.092	-5.742	-0.536	8.498
258508.698	NaN	-3.065	1.424	9.500	1507.692	1502.564	1511.355	7.802	0.687	-14.244	-5.742	-0.459	8.421
258509.674	NaN	-3.065	1.413	9.511	1504.762	1504.029	1510.623	7.786	0.992	-14.214	-5.742	-0.306	8.498
258510.651	NaN	-3.076	1.402	9.500	1505.495	1504.029	1509.890	7.802	1.053	-14.275	-5.895	-0.459	8.498
258511.627	NaN	-3.065	1.413	9.511	1504.762	1504.029	1510.623	7.893	0.779	-14.076	-5.742	-0.383	8.651
258512.604	NaN	-3.076	1.424	9.511	1506.227	1504.029	1510.623	7.985	0.733	-13.893	-5.895	-0.306	8.421
258513.580	NaN	-3.065	1.413	9.500	1505.495	1504.029	1509.890	8.046	0.794	-14.092	-5.665	-0.459	8.421
258514.557	NaN	-3.065	1.413	9.500	1505.495	1503.297	1509.890	7.802	0.687	-14.168	-5.742	-0.383	8.421
258515.533	NaN	-3.065	1.413	9.489	1506.227	1504.029	1509.890	7.786	0.641	-14.168	-5.742	-0.459	8.268
258516.510	NaN	-3.065	1.413	9.500	1504.762	1504.029	1509.890	7.802	0.550	-14.183	-5.742	-0.459	8.498
258517.487	NaN	-3.076	1.424	9.511	1504.762	1504.029	1510.623	7.695	0.504	-14.107	-5.665	-0.536	8.421
258518.463	NaN	-3.076	1.413	9.511	1505.495	1504.029	1510.623	7.756	0.733	-13.908	-5.895	-0.306	8.344
258519.440	NaN	-3.098	1.413	9.511	1504.762	1503.297	1510.623	7.802	1.008	-14.046	-5.742	-0.459	8.498
258520.416	NaN	-3.087	1.402	9.511	1504.029	1503.297	1509.890	7.847	0.962	-14.229	-5.818	-0.383	8.421
258521.393	NaN	-3.076	1.424	9.511	1506.227	1504.029	1509.890	7.786	0.718	-14.137	-5.665	-0.383	8.498
258522.369	NaN	-3.065	1.424	9.511	1505.495	1504.029	1510.623	7.908	0.565	-14.229	-5.895	-0.536	8.344
258523.346	NaN	-3.054	1.413	9.511	1504.762	1504.029	1509.158	7.878	0.504	-14.275	-5.895	-0.383	8.421
258524.323	NaN	-3.054	1.402	9.511	1506.227	1503.297	1512.088	7.771	0.641	-14.382	-5.742	-0.536	8.498
258525.299	NaN	-3.043	1.413	9.522	1506.227	1504.029	1511.355	7.756	0.702	-14.244	-5.665	-0.536	8.574
258526.276	NaN	-3.043	1.413	9.511	1504.762	1503.297	1510.623	7.954	0.595	-14.275	-5.665	-0.459	8.344
258527.252	NaN	-3.043	1.413	9.522	1505.495	1504.029	1510.623	8.015	0.534	-14.336	-5.742	-0.459	8.421
258528.229	NaN	-3.065	1.413	9.533	1504.762	1504.029	1510.623	7.756	0.656	-14.031	-5.665	-0.536	8.498
258529.205	NaN	-3.054	1.435	9.522	1504.029	1504.762	1511.355	7.832	0.733	-13.969	-5.742	-0.459	8.651
258530.182	NaN	-3.054	1.435	9.500	1506.227	1503.297	1509.890	7.817	0.855	-14.183	-5.818	-0.612	8.498
258531.158	NaN	-3.065	1.424	9.500	1505.495	1504.029	1510.623	7.802	0.779	-14.046	-5.665	-0.459	8.498
258532.135	NaN	-3.065	1.424	9.500	1506.227	1504.029	1509.158	7.649	0.672	-13.954	-5.818	-0.612	8.574
258533.112	NaN	-3.076	1.402	9.511	1506.227	1503.297	1509.158	7.740	0.779	-13.878	-5.665	-0.383	8.421
258534.088	NaN	-3.065	1.413	9.511	1504.762	1505.495	1510.623	7.863	0.870	-13.954	-5.742	-0.383	8.574
258535.065	NaN	-3.076	1.413	9.500	1505.495	1503.297	1510.623	7.878	0.885	-14.107	-5.742	-0.536	8.421
258536.041	NaN	-3.065	1.413	9.511	1504.762	1503.297	1508.425	7.847	0.763	-14.244	-5.742	-0.459	8.421
258537.018	NaN	-3.065	1.402	9.511	1504.762	1503.297	1509.890	7.847	0.626	-14.198	-5.665	-0.459	8.268
258537.994	NaN	-3.065	1.402	9.500	1504.762	1503.297	1509.890	7.664	0.611	-14.046	-5.818	-0.383	8.498
258538.971	NaN	-3.054	1.402	9.511	1506.227	1504.029	1510.623	7.740	0.611	-13.740	-5.665	-0.459	8.421
258539.948	NaN	-3.054	1.413	9.511	1506.227	1504.029	1510.623	7.756	0.473	-13.771	-5.742	-0.459	8.421
258540.924	NaN	-3.065	1.402	9.511	1505.495	1504.029	1510.623	7.908	0.550	-14.046	-5.742	-0.383	8.498
258541.901	NaN	-3.076	1.402	9.500	1505.495	1504.029	1509.890	7.893	0.626	-14.137	-5.742	-0.383	8.421
258542.877	NaN	-3.065	1.413	9.500	1505.495	1504.762	1509.158	7.939	0.718	-14.046	-5.895	-0.383	8.421
258543.854	NaN	-3.054	1.413	9.511	1506.227	1504.029	1509.158	7.695	0.809	-14.092	-5.665	-0.459	8.421
258544.830	NaN	-3.054	1.413	9.522	1506.227	1503.297	1510.623	7.634	0.595	-14.031	-5.742	-0.306	8.498
258545.807	NaN	-3.065	1.413	9.522	1504.029	1504.029	1509.890	7.802	0.458	-13.969	-5.742	-0.612	8.498
258546.783	NaN	-3.076	1.413	9.522	1506.227	1504.029	1509.890	7.786	0.550	-14.015	-5.742	-0.536	8.344
258547.760	NaN	-3.076	1.413	9.543	1506.227	1504.029	1510.623	7.817	0.565	-13.939	-5.742	-0.536	8.421
258548.737	NaN	-3.054	1.402	9.533	1505.495	1504.029	1509.890	7.695	0.748	-14.031	-5.665	-0.459	8.421
258549.713	NaN	-3.054	1.413	9.522	1505.495	1503.297	1509.158	7.863	0.672	-13.939	-5.818	-0.383	8.498
258550.690	NaN	-3.065	1.413	9.511	1506.227	1503.297	1509.890	7.939	0.565	-13.954	-5.665	-0.536	8.498
258551.666	NaN	-3.054	1.424	9.522	1505.495	1504.029	1510.623	7.847	0.580	-14.000	-5.589	-0.459	8.421
258552.643	NaN	-3.065	1.413	9.522	1505.495	1502.564	1509.890	7.817	0.611	-14.015	-5.665	-0.383	8.574
258553.619	NaN	-3.054	1.435	9.522	1504.762	1503.297	1509.890	7.908	0.565	-14.015	-5.742	-0.536	8.421
258554.596	NaN	-3.043	1.424	9.522	1504.762	1503.297	1509.158	7.908	0.489	-13.878	-5.742	-0.459	8.498
258555.573	NaN	-3.065	1.424	9.511	1505.495	1503.297	1509.158	7.618	0.641	-13.847	-5.742	-0.536	8.498
258556.549	NaN	-3.054	1.435	9.533	1504.762	1504.029	1510.623	7.710	0.641	-14.046	-5.742	-0.459	8.421
258557.526	NaN	-3.054	1.424	9.511	1505.495	1504.029	1508.425	8.015	0.611	-13.893	-5.665	-0.383	8.421
258558.502	NaN	-3.054	1.424	9.500	1504.762	1504.029	1509.890	8.000	0.427	-13.924	-5.742	-0.383	8.421
258559.479	NaN	-3.065	1.413	9.500	1505.495	1504.029	1509.158	7.908	0.473	-14.015	-5.742	-0.383	8.191
258560.455	NaN	-3.054	1.413	9.511	1504.029	1504.029	1510.623	7.618	0.702	-14.092	-5.742	-0.459	8.344
258561.432	NaN	-3.054	1.424	9.522	1505.495	1504.029	1509.158	7.557	0.748	-14.046	-5.818	-0.536	8.651
258562.408	NaN	-3.065	1.413	9.522	1505.495	1504.762	1509.890	7.542	0.733	-13.954	-5.818	-0.459	8.421
258563.385	NaN	-3.065	1.413	9.522	1504.762	1503.297	1509.158	7.786	0.763	-13.969	-5.742	-0.383	8.344
258564.362	NaN	-3.065	1.424	9.522	1505.495	1502.564	1510.623	7.832	0.794	-14.046	-5.818	-0.536	8.344
258565.338	NaN	-3.076	1.413	9.511	1504.762	1503.297	1509.158	7.817	0.595	-14.153	-5.665	-0.383	8.421
258566.315	NaN	-3.076	1.413	9.522	1505.495	1503.297	1507.692	7.710	0.580	-13.954	-5.742	-0.459	8.651
258567.291	NaN	-3.065	1.413	9.533	1504.762	1503.297	1510.623	7.786	0.656	-13.710	-5.742	-0.459	8.421
258568.268	NaN	-3.065	1.402	9.522	1504.762	1504.029	1510.623	7.740	0.656	-13.786	-5.742	-0.230	8.421
258569.244	NaN	-3.054	1.413	9.522	1506.227	1504.029	1510.623	7.756	0.626	-13.954	-5.818	-0.459	8.574
258570.221	NaN	-3.054	1.413	9.522	1504.762	1504.762	1510.623	7.710	0.626	-14.198	-5.665	-0.383	8.498
258571.198	NaN	-3.054	1.424	9.511	1504.762	1504.029	1509.890	7.710	0.611	-14.137	-5.742	-0.383	8.498
258572.174	NaN	-3.054	1.424	9.522	1505.495	1503.297	1510.623	7.542	0.687	-13.908	-5.742	-0.459	8.421
258573.151	NaN	-3.065	1.424	9.522	1505.495	1503.297	1509.890	7.557	0.718	-13.756	-5.665	-0.459	8.498
258574.127	NaN	-3.054	1.424	9.522	1505.495	1504.029	1510.623	7.740	0.779	-13.908	-5.665	-0.536	8.498
258575.104	NaN	-3.065	1.424	9.511	1505.495	1503.297	1510.623	7.832	0.763	-14.000	-5.742	-0.383	8.498
258576.080	NaN	-3.065	1.424	9.522	1505.495	1504.762	1509.890	7.542	0.779	-13.954	-5.665	-0.383	8.344
258577.057	NaN	-3.065	1.424	9.522	1505.495	1503.297	1509.158	7.588	0.733	-13.939	-5.589	-0.383	8.421
258578.033	NaN	-3.065	1.424	9.522	1505.495	1504.029	1510.623	7.802	0.595	-13.893	-5.742	-0.306	8.498
258579.010	NaN	-3.054	1.424	9.533	1505.495	1504.762	1512.088	7.817	0.534	-13.985	-5.742	-0.383	8.498
258579.987	NaN	-3.054	1.424	9.533	1505.495	1504.029	1509.890	7.618	0.611	-13.924	-5.895	-0.459	8.344
258580.963	NaN	-3.054	1.413	9.522	1504.762	1503.297	1509.890	7.710	0.733	-13.908	-5.818	-0.383	8.574
258581.940	NaN	-3.076	1.413	9.500	1504.762	1503.297	1509.890	7.802	0.748	-13.878	-5.589	-0.536	8.574
258582.916	NaN	-3.065	1.424	9.511	1506.227	1504.029	1509.890	7.878	0.702	-13.756	-5.742	-0.383	8.574
258583.893	NaN	-3.054	1.413	9.511	1506.227	1504.029	1510.623	7.664	0.672	-13.756	-5.818	-0.306	8.421
258584.869	NaN	-3.065	1.413	9.511	1504.762	1504.029	1510.623	7.725	0.626	-14.015	-5.818	-0.536	8.421
258585.846	NaN	-3.065	1.391	9.511	1504.029	1503.297	1510.623	7.878	0.611	-14.122	-5.895	-0.306	8.421
258586.823	NaN	-3.065	1.391	9.511	1504.762	1503.297	1509.890	7.832	0.794	-14.031	-5.665	-0.459	8.498
258587.799	NaN	-3.076	1.402	9.500	1504.029	1503.297	1509.890	7.740	0.885	-13.924	-5.665	-0.536	8.421
258588.776	NaN	-3.076	1.424	9.511	1504.762	1504.029	1510.623	7.863	0.580	-13.878	-5.589	-0.383	8.421
258589.752	NaN	-3.065	1.424	9.511	1504.029	1504.029	1511.355	7.878	0.366	-13.847	-5.818	-0.383	8.498
258590.729	NaN	-3.065	1.413	9.500	1505.495	1503.297	1509.890	7.710	0.550	-13.802	-5.818	-0.459	8.344
258591.705	NaN	-3.054	1.424	9.511	1505.495	1503.297	1509.158	7.969	0.718	-13.802	-5.742	-0.383	8.574
258592.682	NaN	-3.065	1.413	9.511	1504.762	1503.297	1508.425	7.954	0.718	-13.786	-5.665	-0.383	8.498
258593.658	NaN	-3.065	1.424	9.511	1504.029	1502.564	1509.158	7.817	0.748	-13.756	-5.665	-0.383	8.421
258594.635	NaN	-3.054	1.424	9.500	1504.762	1503.297	1509.890	7.756	0.550	-13.710	-5.665	-0.536	8.498
258595.612	NaN	-3.065	1.413	9.500	1506.960	1503.297	1509.890	7.893	0.534	-13.710	-5.665	-0.383	8.498
258596.588	NaN	-3.054	1.435	9.500	1505.495	1504.762	1511.355	7.710	0.656	-13.756	-5.665	-0.536	8.421
258597.565	NaN	-3.065	1.424	9.500	1504.762	1504.029	1509.890	7.435	0.733	-13.954	-5.589	-0.306	8.421
258598.541	NaN	-3.065	1.413	9.489	1505.495	1504.029	1510.623	7.725	0.687	-14.000	-5.665	-0.612	8.421
258599.518	NaN	-3.076	1.391	9.489	1504.762	1504.029	1509.890	7.786	0.718	-13.771	-5.589	-0.459	8.498
258600.494	NaN	-3.076	1.402	9.500	1504.762	1504.762	1509.890	7.832	0.702	-13.710	-5.742	-0.459	8.498
258601.471	NaN	-3.065	1.402	9.511	1506.227	1504.029	1511.355	7.908	0.672	-13.725	-5.742	-0.536	8.498
258602.448	NaN	-3.076	1.413	9.500	1504.762	1503.297	1510.623	7.878	0.626	-13.725	-5.742	-0.383	8.344
258603.424	NaN	-3.076	1.413	9.511	1505.495	1503.297	1509.158	7.832	0.748	-13.756	-5.589	-0.459	8.421
258604.401	NaN	-3.087	1.402	9.500	1506.227	1503.297	1509.890	7.679	0.748	-13.939	-5.742	-0.459	8.344
258605.377	NaN	-3.076	1.413	9.500	1505.495	1504.029	1511.355	7.863	0.718	-13.985	-5.742	-0.459	8.498
258606.354	NaN	-3.054	1.413	9.511	1504.762	1503.297	1509.890	8.061	0.656	-13.771	-5.665	-0.459	8.344
258607.330	NaN	-3.065	1.402	9.511	1504.762	1504.762	1510.623	7.786	0.611	-13.771	-5.742	-0.459	8.498
258608.307	NaN	-3.065	1.391	9.522	1504.762	1504.762	1509.890	7.710	0.626	-13.939	-5.818	-0.383	8.498
258609.283	NaN	-3.065	1.402	9.500	1505.495	1504.762	1510.623	7.939	0.733	-13.969	-5.665	-0.383	8.421
258610.260	NaN	-3.054	1.413	9.511	1506.227	1504.029	1511.355	7.908	0.672	-13.817	-5.818	-0.459	8.344
258611.237	NaN	-3.065	1.424	9.522	1505.495	1504.762	1511.355	7.725	0.733	-13.740	-5.589	-0.536	8.344
258612.213	NaN	-3.065	1.413	9.522	1504.762	1504.029	1509.158	7.603	0.809	-13.695	-5.589	-0.459	8.498
258613.190	NaN	-3.076	1.413	9.511	1504.762	1503.297	1511.355	7.817	0.748	-13.878	-5.818	-0.306	8.421
258614.166	NaN	-3.065	1.413	9.522	1506.227	1504.029	1509.890	7.832	0.794	-13.985	-5.742	-0.383	8.498
258615.143	NaN	-3.065	1.402	9.522	1505.495	1504.029	1510.623	7.924	0.840	-13.924	-5.742	-0.383	8.421
258616.119	NaN	-3.076	1.402	9.522	1506.227	1503.297	1509.890	7.832	0.718	-13.771	-5.895	-0.383	8.421
258617.096	NaN	-3.065	1.402	9.522	1504.762	1504.029	1510.623	7.664	0.626	-13.679	-5.665	-0.459	8.421
258618.073	NaN	-3.076	1.402	9.511	1503.297	1503.297	1510.623	7.557	0.702	-13.618	-5.818	-0.459	8.421
258619.049	NaN	-3.065	1.424	9.522	1504.762	1504.029	1512.088	7.588	0.870	-13.771	-5.895	-0.306	8.421
258620.026	NaN	-3.065	1.424	9.511	1506.960	1504.029	1509.890	7.588	0.641	-13.893	-5.742	-0.383	8.498
258621.002	NaN	-3.065	1.402	9.511	1504.762	1503.297	1510.623	7.527	0.626	-13.802	-5.742	-0.383	8.651
258621.979	NaN	-3.065	1.402	9.522	1504.762	1503.297	1511.355	7.557	0.641	-13.863	-5.665	-0.383	8.421
258622.955	NaN	-3.054	1.402	9.522	1506.227	1504.762	1509.890	7.725	0.885	-13.634	-5.665	-0.459	8.344
258623.932	NaN	-3.043	1.402	9.511	1505.495	1504.029	1509.890	7.802	0.947	-13.450	-5.742	-0.459	8.498
258624.908	NaN	-3.054	1.402	9.511	1505.495	1504.029	1509.890	7.985	0.840	-13.511	-5.742	-0.383	8.344
258625.885	NaN	-3.065	1.402	9.511	1504.762	1504.762	1510.623	8.107	0.855	-13.740	-5.742	-0.536	8.498
258626.862	NaN	-3.076	1.402	9.511	1505.495	1504.029	1510.623	7.924	0.809	-13.802	-5.818	-0.612	8.421
258627.838	NaN	-3.065	1.402	9.522	1505.495	1504.029	1509.158	7.664	0.672	-13.847	-5.742	-0.383	8.421
258628.815	NaN	-3.054	1.413	9.511	1504.762	1504.029	1510.623	7.740	0.611	-13.695	-5.818	-0.459	8.498
258629.791	NaN	-3.065	1.402	9.522	1505.495	1504.029	1510.623	7.802	0.794	-13.557	-5.742	-0.383	9.646
258630.768	NaN	-3.076	1.402	9.522	1504.762	1503.297	1510.623	7.802	0.855	-13.618	-5.665	-0.459	8.498
258631.744	NaN	-3.054	1.424	9.522	1506.227	1504.029	1510.623	7.710	0.840	-13.756	-5.665	-0.459	8.344
258632.721	NaN	-3.043	1.424	9.522	1504.762	1504.029	1510.623	7.618	0.947	-13.695	-5.742	-0.383	8.421
258633.698	NaN	-3.043	1.424	9.533	1505.495	1503.297	1511.355	7.542	0.885	-13.786	-5.742	-0.459	8.421
258634.674	NaN	-3.054	1.435	9.533	1504.762	1504.029	1510.623	7.740	0.687	-13.588	-5.665	-0.459	8.574
258635.651	NaN	-3.065	1.424	9.533	1506.227	1503.297	1509.890	7.771	0.641	-13.573	-5.742	-0.459	8.421
258636.627	NaN	-3.065	1.413	9.533	1505.495	1504.029	1509.890	7.634	0.718	-13.863	-5.742	-0.383	8.268
258637.604	NaN	-3.065	1.413	9.533	1505.495	1504.029	1509.158	7.924	0.809	-13.725	-5.818	-0.306	8.574
258638.580	NaN	-3.065	1.413	9.522	1504.762	1504.762	1509.890	7.969	0.687	-13.542	-5.665	-0.536	8.498
258639.557	NaN	-3.054	1.413	9.533	1505.495	1503.297	1511.355	7.908	0.626	-13.282	-5.818	-0.306	8.498
258640.533	NaN	-3.065	1.413	9.522	1506.227	1504.029	1510.623	8.000	0.687	-13.282	-5.742	-0.459	8.574
258641.510	NaN	-3.054	1.424	9.533	1504.762	1504.762	1511.355	7.771	0.672	-13.634	-5.742	-0.459	8.421
258642.487	NaN	-3.065	1.424	9.522	1504.029	1504.029	1509.890	7.725	0.550	-13.679	-5.665	-0.383	8.498
258643.463	NaN	-3.065	1.424	9.533	1504.762	1502.564	1509.158	7.771	0.504	-13.817	-5.742	-0.459	8.421
258644.440	NaN	-3.065	1.413	9.533	1505.495	1503.297	1509.158	7.878	0.702	-13.756	-5.665	-0.383	8.421
258645.416	NaN	-3.076	1.402	9.533	1504.762	1502.564	1508.425	7.863	0.779	-13.557	-5.665	-0.459	8.421
258646.393	NaN	-3.065	1.424	9.533	1504.762	1503.297	1509.158	7.786	0.870	-13.542	-5.665	-0.383	8.421
258647.369	NaN	-3.076	1.413	9.522	1506.227	1504.029	1510.623	7.679	0.916	-13.786	-5.742	-0.459	8.421
258648.346	NaN	-3.076	1.413	9.511	1505.495	1502.564	1509.890	7.832	0.779	-13.969	-5.895	-0.536	8.421
258649.323	NaN	-3.065	1.413	9.522	1505.495	1503.297	1510.623	7.954	0.855	-13.939	-5.742	-0.536	8.421
258650.299	NaN	-3.076	1.413	9.522	1505.495	1502.564	1509.890	7.969	0.962	-13.634	-5.742	-0.459	8.574
258651.276	NaN	-3.065	1.424	9.511	1503.297	1503.297	1508.425	7.985	0.992	-13.481	-5.818	-0.536	8.498
258652.252	NaN	-3.054	1.424	9.511	1504.029	1504.762	1509.158	7.740	0.977	-13.359	-5.818	-0.459	8.498
258653.229	NaN	-3.054	1.413	9.511	1506.227	1504.029	1509.890	7.603	0.916	-13.374	-5.742	-0.306	8.498
258654.205	NaN	-3.054	1.413	9.511	1505.495	1503.297	1509.158	7.832	0.763	-13.542	-5.589	-0.459	8.498
258655.182	NaN	-3.043	1.424	9.522	1504.762	1502.564	1508.425	7.908	0.672	-13.786	-5.589	-0.459	8.498
258656.158	NaN	-3.043	1.424	9.511	1504.762	1504.029	1510.623	7.740	0.779	-13.679	-5.818	-0.383	8.498
258657.135	NaN	-3.054	1.413	9.511	1504.762	1503.297	1509.890	7.695	0.962	-13.618	-5.589	-0.459	8.421
258658.112	NaN	-3.054	1.424	9.522	1505.495	1503.297	1509.890	7.679	1.008	-13.695	-5.742	-0.459	8.498
258659.088	NaN	-3.054	1.413	9.533	1504.029	1503.297	1509.158	7.847	0.870	-13.542	-5.742	-0.459	8.498
258660.065	NaN	-3.043	1.413	9.533	1504.029	1503.297	1509.158	7.924	0.794	-13.542	-5.742	-0.459	8.421
258661.041	NaN	-3.054	1.413	9.522	1503.297	1503.297	1510.623	7.817	0.702	-13.557	-5.742	-0.536	8.421
258662.018	NaN	-3.054	1.413	9.522	1505.495	1501.832	1509.890	7.695	0.718	-13.603	-5.665	-0.383	8.421
258662.994	NaN	-3.054	1.424	9.522	1504.029	1503.297	1509.158	7.603	0.733	-13.511	-5.818	-0.459	8.498
258663.971	NaN	-3.065	1.413	9.511	1504.762	1504.029	1509.158	7.496	0.656	-13.496	-5.818	-0.383	8.498
258664.948	3736848704.472	-3.065	1.424	9.511	1505.495	1503.297	1510.623	7.511	0.779	-13.603	-5.742	-0.459	8.498
258665.924	NaN	-3.065	1.413	9.511	1505.495	1503.297	1510.623	7.893	1.008	-13.527	-5.742	-0.383	8.574
258666.901	NaN	-3.076	1.413	9.522	1504.029	1502.564	1509.158	7.954	1.038	-13.466	-5.742	-0.536	8.574
258667.877	NaN	-3.065	1.413	9.522	1504.762	1504.029	1511.355	7.573	0.962	-13.450	-5.742	-0.383	8.421
258668.854	NaN	-3.076	1.402	9.511	1504.762	1503.297	1509.890	7.679	0.855	-13.405	-5.742	-0.383	8.421
258669.830	NaN	-3.054	1.413	9.511	1505.495	1503.297	1509.890	7.847	0.916	-13.496	-5.742	-0.383	8.574
258670.807	NaN	-3.065	1.402	9.500	1504.762	1503.297	1509.890	8.015	0.947	-13.481	-5.818	-0.459	8.421
258671.783	NaN	-3.065	1.413	9.489	1506.227	1504.029	1510.623	7.985	0.916	-13.466	-5.665	-0.536	8.498
258672.760	NaN	-3.065	1.413	9.489	1505.495	1503.297	1509.890	7.756	0.840	-13.420	-5.818	-0.459	8.421
258673.737	NaN	-3.076	1.413	9.500	1504.029	1504.029	1509.890	7.695	0.840	-13.557	-5.742	-0.383	8.421
258674.713	NaN	-3.076	1.402	9.511	1506.227	1503.297	1510.623	7.847	0.779	-13.588	-5.742	-0.536	8.421
258675.690	NaN	-3.087	1.391	9.500	1505.495	1503.297	1509.158	7.786	0.748	-13.588	-5.665	-0.230	8.498
258676.666	NaN	-3.087	1.413	9.500	1506.227	1504.762	1510.623	7.817	0.763	-13.481	-5.742	-0.383	8.344
258677.643	NaN	-3.076	1.402	9.500	1504.762	1504.762	1510.623	7.725	0.901	-13.511	-5.818	-0.459	8.574
258678.619	NaN	-3.076	1.413	9.500	1506.227	1504.029	1508.425	7.710	0.992	-13.527	-5.665	-0.383	8.498
258679.596	NaN	-3.065	1.402	9.500	1504.762	1504.029	1509.158	7.725	1.084	-13.420	-5.742	-0.459	8.498
258680.573	NaN	-3.076	1.413	9.511	1506.227	1504.029	1509.890	7.954	1.084	-13.359	-5.742	-0.459	8.574
258681.549	NaN	-3.065	1.413	9.511	1504.762	1504.762	1511.355	8.015	1.023	-13.359	-5.665	-0.536	8.498
258682.526	NaN	-3.065	1.424	9.511	1505.495	1504.762	1511.355	7.817	0.779	-13.435	-5.742	-0.383	8.344
258683.502	NaN	-3.065	1.413	9.511	1505.495	1503.297	1509.158	7.847	0.534	-13.542	-5.742	-0.459	8.344
258684.479	NaN	-3.065	1.413	9.522	1504.762	1502.564	1509.158	7.985	0.672	-13.420	-5.665	-0.383	8.344
258685.455	NaN	-3.065	1.402	9.533	1507.692	1504.029	1510.623	7.817	1.008	-13.435	-5.742	-0.459	8.421
258686.432	NaN	-3.065	1.413	9.533	1505.495	1504.762	1509.890	7.603	1.023	-13.618	-5.742	-0.383	8.498
258687.408	NaN	-3.065	1.402	9.533	1504.762	1504.029	1509.890	7.496	0.855	-13.618	-5.665	-0.459	8.344
258688.385	NaN	-3.054	1.413	9.522	1505.495	1503.297	1508.425	7.771	0.977	-13.588	-5.742	-0.536	8.421
258689.362	NaN	-3.065	1.402	9.522	1506.960	1504.029	1510.623	7.908	1.053	-13.542	-5.818	-0.459	8.421
258690.338	NaN	-3.054	1.402	9.522	1504.762	1504.762	1509.890	7.847	1.145	-13.695	-5.589	-0.459	8.344
258691.315	NaN	-3.065	1.391	9.511	1505.495	1504.029	1509.158	7.695	1.160	-13.817	-5.742	-0.306	8.344
258692.291	NaN	-3.065	1.402	9.511	1506.227	1504.029	1510.623	7.725	0.947	-13.756	-5.589	-0.459	8.421
258693.268	NaN	-3.065	1.391	9.511	1504.029	1504.029	1509.158	7.496	0.992	-13.359	-5.665	-0.383	8.421
258694.244	NaN	-3.054	1.402	9.511	1506.227	1504.762	1511.355	7.573	0.947	-13.206	-5.589	-0.459	8.574
258695.221	NaN	-3.054	1.402	9.511	1504.762	1504.029	1510.623	7.664	1.023	-13.359	-5.665	-0.536	8.421
258696.198	NaN	-3.065	1.402	9.522	1505.495	1504.029	1510.623	7.802	0.992	-13.573	-5.589	-0.536	8.268
258697.174	NaN	-3.065	1.391	9.522	1505.495	1504.762	1509.158	7.908	0.901	-13.557	-5.818	-0.459	8.421
258698.151	NaN	-3.065	1.391	9.511	1505.495	1503.297	1509.158	7.832	1.053	-13.481	-5.971	-0.383	8.344
258699.127	NaN	-3.065	1.402	9.511	1505.495	1504.029	1511.355	7.725	1.023	-13.450	-5.742	-0.612	8.574
258700.104	NaN	-3.054	1.402	9.533	1506.227	1504.029	1509.890	7.679	0.992	-13.450	-5.742	-0.383	8.421
258701.080	NaN	-3.054	1.402	9.533	1505.495	1502.564	1510.623	7.847	1.038	-13.374	-5.742	-0.459	8.421
258702.057	NaN	-3.054	1.402	9.543	1504.762	1504.029	1510.623	7.771	1.038	-13.542	-5.665	-0.536	8.498
258703.033	NaN	-3.054	1.413	9.533	1505.495	1504.762	1510.623	7.557	0.977	-13.588	-5.665	-0.536	8.498
258704.010	NaN	-3.054	1.413	9.522	1506.227	1504.029	1509.890	7.542	0.962	-13.450	-5.818	-0.383	8.421
258704.987	NaN	-3.054	1.413	9.511	1504.029	1504.762	1509.890	7.802	0.870	-13.466	-5.665	-0.459	8.421
258705.963	NaN	-3.054	1.413	9.511	1506.227	1504.029	1510.623	8.092	1.160	-13.496	-5.742	-0.459	8.344
258706.940	NaN	-3.065	1.413	9.500	1504.029	1503.297	1509.890	8.015	1.145	-13.435	-5.742	-0.536	8.498
258707.916	NaN	-3.054	1.413	9.500	1506.227	1504.762	1510.623	7.893	1.084	-13.710	-5.665	-0.459	8.498
258708.893	NaN	-3.065	1.413	9.500	1505.495	1503.297	1509.890	7.863	1.023	-13.786	-5.665	-0.306	8.498
258709.869	NaN	-3.054	1.424	9.511	1506.227	1502.564	1510.623	7.908	0.962	-13.573	-5.742	-0.612	8.344
258710.846	NaN	-3.065	1.413	9.500	1504.762	1504.029	1509.158	8.076	1.130	-13.481	-5.742	-0.383	8.421
258711.823	NaN	-3.076	1.413	9.511	1504.029	1502.564	1508.425	7.954	1.115	-13.237	-5.742	-0.383	8.498
258712.799	NaN	-3.065	1.424	9.522	1505.495	1504.762	1509.890	7.756	1.053	-13.221	-5.742	-0.383	8.498
258713.776	NaN	-3.076	1.413	9.522	1505.495	1503.297	1509.158	7.542	0.992	-13.298	-5.742	-0.536	8.421
258714.752	NaN	-3.054	1.413	9.522	1505.495	1503.297	1510.623	7.786	0.992	-13.359	-5.895	-0.459	8.421
258715.729	NaN	-3.076	1.413	9.511	1504.762	1504.762	1510.623	7.985	0.870	-13.542	-5.895	-0.383	8.268
258716.705	NaN	-3.065	1.413	9.522	1506.227	1504.029	1509.890	7.817	0.947	-13.389	-5.818	-0.459	8.498
258717.682	NaN	-3.054	1.413	9.522	1504.762	1504.029	1510.623	7.695	0.992	-13.374	-5.665	-0.459	8.498
258718.658	NaN	-3.054	1.413	9.522	1504.762	1503.297	1509.890	7.756	1.130	-13.313	-5.818	-0.459	8.421
258719.635	NaN	-3.054	1.413	9.533	1506.227	1504.029	1510.623	7.893	1.115	-13.252	-5.818	-0.459	8.574
258720.612	NaN	-3.076	1.402	9.511	1505.495	1504.029	1510.623	7.863	1.084	-13.282	-5.742	-0.612	8.344
258721.588	NaN	-3.065	1.402	9.500	1506.227	1504.029	1511.355	7.832	0.962	-13.282	-5.665	-0.383	8.498
258722.565	NaN	-3.065	1.402	9.500	1506.227	1503.297	1511.355	7.832	0.809	-13.313	-5.665	-0.459	8.268
258723.541	NaN	-3.065	1.402	9.511	1504.762	1503.297	1509.158	7.695	0.916	-13.313	-5.742	-0.459	8.421
258724.518	NaN	-3.076	1.402	9.511	1505.495	1504.029	1509.890	7.603	1.099	-13.328	-5.742	-0.459	8.574
258725.494	NaN	-3.054	1.413	9.511	1506.227	1504.029	1511.355	7.725	1.038	-13.267	-5.589	-0.459	8.498
258726.471	NaN	-3.065	1.402	9.511	1504.762	1503.297	1510.623	7.832	0.840	-13.191	-5.665	-0.536	8.421
258727.448	NaN	-3.054	1.413	9.522	1503.297	1503.297	1509.158	7.786	1.023	-13.313	-5.742	-0.536	8.498
258728.424	NaN	-3.065	1.424	9.522	1505.495	1503.297	1509.890	7.832	1.023	-13.450	-5.742	-0.459	8.574
258729.401	NaN	-3.065	1.402	9.522	1506.227	1504.029	1510.623	7.786	0.977	-13.496	-5.818	-0.306	8.268
258730.377	NaN	-3.076	1.402	9.522	1504.762	1502.564	1509.158	7.771	0.962	-13.405	-5.742	-0.459	8.574
258731.354	NaN	-3.065	1.413	9.522	1504.762	1503.297	1509.158	7.771	1.130	-13.420	-5.818	-0.383	8.498
258732.330	NaN	-3.065	1.413	9.522	1505.495	1504.029	1510.623	7.908	1.237	-13.405	-5.665	-0.536	8.574
258733.307	NaN	-3.065	1.413	9.522	1504.762	1504.029	1510.623	8.000	1.038	-13.176	-5.665	-0.306	8.498
258734.283	NaN	-3.054	1.413	9.500	1506.227	1504.762	1509.890	8.031	1.099	-13.084	-5.742	-0.536	8.344
258735.260	NaN	-3.043	1.413	9.511	1505.495	1504.762	1510.623	7.908	1.008	-13.160	-5.818	-0.383	8.498
258736.237	NaN	-3.054	1.413	9.533	1505.495	1504.029	1509.890	7.710	0.962	-13.176	-5.742	-0.383	8.498
258737.213	NaN	-3.065	1.402	9.533	1504.762	1503.297	1511.355	7.802	1.008	-13.267	-5.895	-0.536	8.421
258738.190	NaN	-3.065	1.402	9.522	1505.495	1503.297	1510.623	7.786	0.947	-13.099	-5.742	-0.459	8.574
258739.166	NaN	-3.054	1.413	9.522	1505.495	1504.029	1510.623	7.908	0.947	-13.206	-5.665	-0.459	8.421
258740.143	NaN	-3.054	1.402	9.522	1505.495	1504.029	1509.890	7.969	1.038	-13.191	-5.818	-0.306	8.344
258741.119	NaN	-3.043	1.402	9.533	1504.762	1504.762	1509.890	8.046	1.038	-13.038	-5.742	-0.383	8.574
258742.096	NaN	-3.054	1.402	9.533	1505.495	1504.762	1509.158	8.076	1.069	-13.176	-5.589	-0.536	8.498
258743.073	NaN	-3.065	1.402	9.522	1506.227	1504.029	1509.890	7.908	1.252	-13.282	-5.665	-0.383	8.421
258744.049	NaN	-3.065	1.402	9.522	1505.495	1504.029	1511.355	7.863	1.221	-13.115	-5.665	-0.536	8.344
258745.026	NaN	-3.076	1.413	9.511	1506.227	1503.297	1510.623	7.786	1.084	-12.947	-5.589	-0.536	8.574
258746.002	NaN	-3.076	1.402	9.511	1504.762	1503.297	1509.890	7.924	1.145	-13.206	-5.742	-0.459	8.421
258746.979	NaN	-3.054	1.413	9.522	1504.762	1503.297	1509.890	7.954	1.206	-13.328	-5.742	-0.459	8.498
258747.955	NaN	-3.076	1.413	9.511	1506.227	1504.029	1509.890	7.878	1.099	-13.252	-5.665	-0.459	8.574
258748.932	NaN	-3.076	1.402	9.522	1505.495	1504.029	1511.355	7.847	0.901	-13.252	-5.742	-0.459	8.268
258749.908	NaN	-3.065	1.402	9.522	1505.495	1504.029	1509.890	7.969	1.099	-13.282	-5.742	-0.459	8.421
258750.885	NaN	-3.054	1.402	9.522	1506.227	1504.029	1509.890	7.527	1.176	-13.176	-5.742	-0.536	8.421
258751.862	NaN	-3.054	1.402	9.511	1505.495	1503.297	1509.158	7.328	1.130	-13.023	-5.818	-0.383	8.421
258752.838	NaN	-3.054	1.402	9.522	1505.495	1504.029	1508.425	7.450	0.947	-13.176	-5.742	-0.383	8.498
258753.815	NaN	-3.054	1.413	9.522	1506.227	1504.762	1511.355	7.725	0.840	-13.206	-5.742	-0.536	8.344
258754.791	NaN	-3.065	1.413	9.511	1505.495	1504.029	1510.623	7.756	0.992	-13.176	-5.665	-0.383	8.344
258755.768	NaN	-3.076	1.402	9.522	1504.029	1503.297	1510.623	7.924	1.115	-13.282	-5.665	-0.230	8.421
258756.744	NaN	-3.065	1.424	9.522	1505.495	1504.029	1511.355	7.939	1.191	-13.359	-5.742	-0.536	8.344
258757.721	NaN	-3.065	1.424	9.522	1506.227	1504.029	1510.623	7.695	1.038	-13.282	-5.665	-0.306	8.574
258758.698	NaN	-3.065	1.424	9.511	1505.495	1503.297	1511.355	7.664	0.763	-13.160	-5.589	-0.459	8.421
258759.674	NaN	-3.065	1.413	9.522	1505.495	1504.029	1510.623	7.695	0.947	-13.282	-5.665	-0.459	8.421
258760.651	NaN	-3.076	1.413	9.533	1505.495	1503.297	1509.158	7.557	1.084	-13.344	-5.818	-0.459	8.191
258761.627	NaN	-3.065	1.424	9.533	1504.762	1503.297	1511.355	7.573	1.069	-13.328	-5.742	-0.536	8.421
258762.604	NaN	-3.065	1.413	9.522	1506.227	1504.029	1510.623	7.786	1.069	-13.145	-5.742	-0.383	8.574
258763.580	NaN	-3.054	1.424	9.522	1505.495	1503.297	1509.890	7.878	1.176	-13.038	-5.742	-0.383	8.344
258764.557	NaN	-3.076	1.424	9.511	1505.495	1504.029	1510.623	7.969	1.099	-13.252	-5.818	-0.536	8.344
258765.533	NaN	-3.076	1.435	9.500	1506.227	1504.762	1510.623	7.679	0.916	-13.084	-5.742	-0.536	8.498
258766.510	NaN	-3.087	1.424	9.489	1504.762	1503.297	1509.890	7.634	0.962	-13.069	-5.895	-0.383	8.574
258767.487	NaN	-3.076	1.424	9.500	1505.495	1503.297	1508.425	7.603	0.901	-13.221	-5.895	-0.536	8.421
258768.463	NaN	-3.065	1.435	9.511	1504.762	1503.297	1509.890	7.771	0.992	-13.298	-5.742	-0.459	8.421
258769.440	NaN	-3.054	1.413	9.511	1505.495	1502.564	1510.623	7.878	1.023	-13.221	-5.665	-0.459	8.344
258770.416	NaN	-3.054	1.413	9.511	1504.762	1503.297	1509.158	7.878	0.809	-13.069	-5.665	-0.459	8.574
258771.393	NaN	-3.065	1.413	9.500	1504.029	1503.297	1508.425	7.847	0.840	-13.008	-5.818	-0.459	8.498
258772.369	NaN	-3.054	1.424	9.511	1504.762	1504.029	1509.890	7.740	1.023	-12.947	-5.665	-0.383	8.344
258773.346	NaN	-3.065	1.413	9.511	1504.762	1504.029	1511.355	7.695	1.145	-12.916	-5.818	-0.306	8.498
258774.323	NaN	-3.076	1.413	9.500	1506.227	1504.029	1510.623	7.786	1.359	-12.947	-5.742	-0.383	8.344
258775.299	NaN	-3.065	1.424	9.500	1504.762	1504.029	1510.623	7.802	1.145	-13.023	-5.818	-0.459	8.574
258776.276	NaN	-3.065	1.424	9.500	1506.227	1504.762	1510.623	7.802	0.733	-13.221	-5.818	-0.459	8.498
258777.252	NaN	-3.076	1.424	9.511	1505.495	1503.297	1509.890	7.847	0.885	-13.359	-5.818	-0.306	8.574
258778.229	NaN	-3.076	1.413	9.511	1505.495	1503.297	1509.890	7.725	1.252	-13.252	-5.742	-0.536	8.344
258779.205	NaN	-3.065	1.413	9.511	1504.762	1504.029	1510.623	7.802	1.221	-12.977	-5.665	-0.383	8.421
258780.182	NaN	-3.065	1.413	9.522	1504.762	1504.029	1510.623	7.847	0.977	-12.885	-5.742	-0.459	8.344
258781.158	NaN	-3.065	1.424	9.522	1505.495	1504.762	1510.623	7.771	0.901	-13.084	-5.742	-0.383	8.498
258782.135	NaN	-3.065	1.424	9.522	1505.495	1504.762	1510.623	7.786	1.023	-13.191	-5.742	-0.536	8.344
258783.112	NaN	-3.076	1.413	9.511	1505.495	1504.029	1510.623	7.695	1.160	-13.221	-5.512	-0.306	8.421
258784.088	NaN	-3.065	1.424	9.511	1506.227	1504.762	1511.355	7.710	1.176	-13.298	-5.665	-0.536	8.498
258785.065	NaN	-3.076	1.424	9.522	1505.495	1504.029	1510.623	7.664	1.145	-13.008	-5.742	-0.383	8.421
258786.041	NaN	-3.065	1.413	9.522	1504.762	1503.297	1510.623	7.725	1.206	-12.885	-5.665	-0.459	8.421
258787.018	NaN	-3.076	1.413	9.533	1505.495	1503.297	1510.623	7.740	1.221	-12.870	-5.818	-0.536	8.421
258787.994	NaN	-3.065	1.424	9.522	1505.495	1504.029	1510.623	7.679	1.176	-12.916	-5.665	-0.536	8.268
258788.971	NaN	-3.065	1.424	9.522	1504.762	1504.029	1511.355	7.756	1.130	-13.053	-5.665	-0.459	8.421
258789.948	NaN	-3.065	1.424	9.522	1504.762	1504.029	1509.890	7.725	1.084	-13.053	-5.742	-0.459	8.421
258790.924	NaN	-3.076	1.424	9.511	1504.029	1504.029	1509.890	7.603	0.977	-13.084	-5.665	-0.383	8.421
258791.901	NaN	-3.076	1.424	9.511	1502.564	1503.297	1509.890	7.786	1.008	-13.145	-5.742	-0.383	8.421
258792.877	NaN	-3.076	1.424	9.522	1505.495	1503.297	1511.355	7.756	0.992	-13.282	-5.742	-0.306	8.574
258793.854	NaN	-3.076	1.435	9.533	1505.495	1504.029	1509.890	7.740	1.023	-13.237	-5.742	-0.383	8.421
258794.830	NaN	-3.076	1.424	9.533	1504.762	1504.029	1509.890	7.695	1.084	-13.008	-5.589	-0.459	8.421
258795.807	NaN	-3.065	1.413	9.533	1505.495	1504.029	1509.158	7.588	1.084	-12.992	-5.742	-0.459	8.421
258796.783	NaN	-3.076	1.424	9.522	1505.495	1504.029	1511.355	7.771	1.023	-13.069	-5.895	-0.536	8.421
258797.760	NaN	-3.065	1.424	9.522	1505.495	1504.029	1509.158	7.786	1.023	-12.992	-5.742	-0.306	8.574
258798.737	NaN	-3.065	1.424	9.522	1504.762	1503.297	1509.890	7.756	0.992	-12.931	-5.742	-0.459	8.344
258799.713	NaN	-3.087	1.413	9.500	1504.762	1504.029	1508.425	7.695	0.962	-13.084	-5.665	-0.459	8.498
258800.690	NaN	-3.087	1.402	9.489	1504.762	1504.029	1509.890	7.695	0.947	-13.160	-5.742	-0.459	8.651
258801.666	NaN	-3.076	1.413	9.511	1506.960	1504.762	1511.355	7.573	1.160	-13.115	-5.895	-0.459	8.344
258802.643	NaN	-3.076	1.413	9.500	1504.029	1503.297	1510.623	7.756	1.130	-13.237	-5.665	-0.383	8.421
258803.619	NaN	-3.065	1.413	9.500	1504.762	1503.297	1510.623	8.031	0.901	-13.237	-5.589	-0.536	8.574
258804.596	NaN	-3.054	1.413	9.500	1506.227	1503.297	1509.890	7.908	0.962	-13.221	-5.665	-0.383	8.651
258805.573	NaN	-3.065	1.413	9.500	1506.227	1504.762	1509.158	7.863	1.038	-13.267	-5.742	-0.383	8.574
258806.549	NaN	-3.054	1.424	9.522	1504.762	1504.762	1510.623	7.817	1.008	-13.099	-5.589	-0.459	8.421
258807.526	NaN	-3.043	1.424	9.511	1505.495	1503.297	1509.890	7.969	1.115	-12.977	-5.818	-0.536	8.268
258808.502	NaN	-3.054	1.413	9.511	1504.762	1502.564	1509.890	7.878	1.038	-13.145	-5.665	-0.536	8.344
258809.479	NaN	-3.054	1.413	9.511	1504.029	1503.297	1511.355	7.634	1.008	-13.267	-5.742	-0.459	8.574
258810.455	NaN	-3.043	1.424	9.511	1505.495	1504.029	1511.355	7.634	1.038	-13.160	-5.665	-0.306	8.498
258811.432	NaN	-3.033	1.413	9.511	1505.495	1504.762	1509.158	7.527	1.099	-12.916	-5.742	-0.383	8.421
258812.408	NaN	-3.043	1.413	9.511	1504.029	1504.029	1512.088	7.695	1.038	-12.855	-5.818	-0.459	8.498
258813.385	NaN	-3.054	1.413	9.511	1505.495	1503.297	1511.355	7.679	1.115	-12.916	-5.818	-0.459	8.421
258814.362	NaN	-3.065	1.413	9.500	1505.495	1504.762	1509.890	7.664	1.115	-13.008	-5.589	-0.306	8.498
258815.338	NaN	-3.054	1.424	9.511	1505.495	1505.495	1511.355	7.649	1.053	-13.099	-5.742	-0.612	8.344
258816.315	NaN	-3.065	1.424	9.500	1504.029	1504.029	1509.158	7.588	1.221	-12.947	-5.742	-0.536	8.344
258817.291	NaN	-3.076	1.424	9.500	1504.762	1503.297	1509.158	7.603	1.206	-12.977	-5.818	-0.536	8.498
258818.268	NaN	-3.098	1.413	9.500	1505.495	1504.029	1509.890	7.649	1.038	-13.099	-5.742	-0.459	8.498
258819.244	NaN	-3.076	1.424	9.489	1505.495	1504.029	1507.692	7.603	0.916	-13.130	-5.665	-0.383	8.421
258820.221	NaN	-3.076	1.424	9.489	1505.495	1504.029	1509.890	7.603	0.794	-13.023	-5.742	-0.459	8.191
258821.198	NaN	-3.076	1.424	9.500	1505.495	1504.762	1510.623	7.679	1.038	-12.779	-5.895	-0.459	8.498
258822.174	NaN	-3.065	1.424	9.511	1505.495	1504.029	1509.890	7.832	1.099	-12.901	-5.665	-0.459	8.421
258823.151	NaN	-3.087	1.413	9.500	1506.227	1503.297	1509.890	7.725	1.069	-12.962	-5.818	-0.536	8.421
258824.127	NaN	-3.076	1.435	9.511	1506.227	1504.029	1510.623	7.649	1.115	-13.023	-5.818	-0.383	8.498
258825.104	NaN	-3.076	1.424	9.511	1506.227	1504.029	1510.623	7.863	0.901	-13.069	-5.742	-0.383	8.421
258826.080	NaN	-3.065	1.424	9.511	1506.227	1503.297	1511.355	7.634	0.809	-12.947	-5.512	-0.459	8.498
258827.057	NaN	-3.065	1.413	9.522	1504.762	1503.297	1509.890	7.527	0.824	-12.962	-5.589	-0.383	8.421
258828.033	NaN	-3.065	1.413	9.522	1506.227	1503.297	1510.623	7.603	1.130	-12.855	-5.742	-0.306	8.344
258829.010	NaN	-3.065	1.413	9.522	1506.227	1504.029	1509.890	7.725	1.176	-12.809	-5.818	-0.536	8.498
258829.987	NaN	-3.065	1.424	9.500	1504.029	1504.029	1509.158	7.588	1.008	-12.855	-5.589	-0.459	8.421
258830.963	NaN	-3.065	1.413	9.500	1504.762	1502.564	1509.158	7.771	0.962	-13.023	-5.665	-0.459	8.421
258831.940	NaN	-3.054	1.413	9.500	1505.495	1503.297	1509.890	7.802	0.992	-13.130	-5.818	-0.459	8.574
258832.916	NaN	-3.065	1.413	9.500	1506.227	1502.564	1510.623	7.802	0.977	-13.176	-5.742	-0.383	8.651
258833.893	3736848704.624	-3.065	1.424	9.500	1506.227	1503.297	1509.890	7.924	0.855	-13.206	-5.665	-0.306	8.498
258834.869	NaN	-3.076	1.413	9.500	1506.960	1504.029	1509.158	7.863	0.733	-12.962	-5.665	-0.383	8.344
258835.846	NaN	-3.087	1.413	9.500	1504.762	1504.029	1511.355	7.664	0.947	-12.794	-5.742	-0.383	8.421
258836.823	NaN	-3.087	1.413	9.511	1505.495	1504.029	1509.890	7.450	1.038	-12.718	-5.818	-0.459	8.498
258837.799	NaN	-3.076	1.413	9.511	1506.227	1504.029	1509.158	7.603	0.901	-12.794	-5.742	-0.383	8.268
258838.776	NaN	-3.065	1.413	9.522	1504.762	1503.297	1510.623	7.786	0.947	-12.763	-5.742	-0.306	8.344
258839.752	NaN	-3.076	1.413	9.500	1506.227	1503.297	1509.890	7.878	0.992	-12.931	-5.665	-0.536	8.651
258840.729	NaN	-3.076	1.402	9.489	1504.029	1504.029	1509.890	7.740	0.916	-12.947	-5.665	-0.536	8.421
258841.705	NaN	-3.065	1.402	9.500	1506.227	1504.762	1511.355	7.802	1.023	-12.855	-5.742	-0.383	8.421
258842.682	NaN	-3.076	1.391	9.500	1504.762	1503.297	1509.890	7.878	1.099	-12.718	-5.742	-0.459	8.421
258843.658	NaN	-3.054	1.413	9.500	1504.029	1504.029	1509.158	7.786	1.023	-12.809	-5.818	-0.459	8.421
258844.635	NaN	-3.054	1.402	9.500	1505.495	1503.297	1509.890	7.527	0.809	-12.809	-5.665	-0.383	8.421
258845.612	NaN	-3.065	1.402	9.511	1503.297	1502.564	1509.158	7.298	0.901	-12.870	-5.742	-0.459	8.574
258846.588	NaN	-3.054	1.391	9.511	1504.762	1502.564	1509.158	7.710	1.023	-12.916	-5.742	-0.459	8.344
258847.565	NaN	-3.054	1.402	9.511	1505.495	1504.029	1511.355	7.893	0.977	-12.885	-5.742	-0.459	8.344
258848.541	NaN	-3.054	1.402	9.511	1505.495	1504.029	1510.623	7.832	0.870	-12.855	-5.818	-0.306	8.498
258849.518	NaN	-3.065	1.402	9.511	1503.297	1502.564	1508.425	7.466	0.702	-12.718	-5.665	-0.459	8.498
258850.494	NaN	-3.076	1.413	9.511	1504.029	1502.564	1508.425	7.420	0.748	-12.794	-5.742	-0.383	8.498
258851.471	NaN	-3.054	1.413	9.522	1505.495	1504.762	1510.623	7.679	0.962	-12.824	-5.742	-0.383	8.421
258852.448	NaN	-3.065	1.402	9.522	1505.495	1504.029	1510.623	7.634	0.855	-12.855	-5.818	-0.383	8.574
258853.424	NaN	-3.065	1.413	9.522	1503.297	1502.564	1509.890	7.695	0.809	-12.916	-5.742	-0.383	8.421
258854.401	NaN	-3.054	1.413	9.522	1505.495	1503.297	1509.890	7.603	1.053	-12.870	-5.665	-0.459	8.498
258855.377	NaN	-3.065	1.402	9.522	1504.762	1503.297	1508.425	7.618	1.038	-12.855	-5.742	-0.383	8.574
258856.354	NaN	-3.054	1.402	9.522	1504.762	1502.564	1510.623	7.496	0.840	-12.885	-5.742	-0.383	8.421
258857.330	NaN	-3.054	1.413	9.533	1505.495	1504.029	1510.623	7.420	0.962	-12.763	-5.742	-0.306	8.344
258858.307	NaN	-3.065	1.402	9.522	1505.495	1504.029	1509.890	7.771	1.038	-12.672	-5.742	-0.536	8.421
258859.283	NaN	-3.054	1.413	9.522	1504.762	1503.297	1509.158	7.817	1.084	-12.855	-5.742	-0.536	8.498
258860.260	NaN	-3.054	1.413	9.522	1504.029	1503.297	1509.158	7.389	1.084	-13.069	-5.589	-0.306	8.421
258861.237	NaN	-3.043	1.435	9.522	1506.227	1504.762	1509.890	7.359	1.145	-13.023	-5.665	-0.306	8.498
258862.213	NaN	-3.043	1.424	9.511	1504.762	1503.297	1509.890	7.756	1.145	-13.008	-5.818	-0.459	8.421
258863.190	NaN	-3.043	1.424	9.489	1505.495	1502.564	1508.425	7.847	1.023	-12.870	-5.665	-0.459	8.421
258864.166	NaN	-3.043	1.424	9.478	1504.762	1501.832	1509.890	7.695	0.992	-12.611	-5.818	-0.383	9.722
258865.143	NaN	-3.033	1.424	9.478	1505.495	1503.297	1510.623	7.649	0.931	-12.550	-5.742	-0.459	8.421
258866.119	NaN	-3.054	1.424	9.489	1505.495	1503.297	1509.890	7.450	1.008	-12.626	-5.742	-0.306	8.421
258867.096	NaN	-3.065	1.424	9.489	1504.029	1503.297	1509.158	7.511	1.023	-12.870	-5.742	-0.383	8.344
258868.073	NaN	-3.065	1.424	9.500	1504.762	1503.297	1509.890	7.527	0.947	-12.916	-5.512	-0.459	8.344
258869.049	NaN	-3.065	1.424	9.500	1506.227	1504.029	1510.623	7.664	0.962	-12.656	-5.818	-0.536	8.421
258877.838	NaN	-3.054	1.413	9.500	1504.029	1503.297	1509.158	7.618	0.992	-12.855	-5.818	-0.459	8.421
258878.815	NaN	-3.054	1.424	9.511	1504.029	1503.297	1509.890	7.863	0.931	-12.687	-5.742	-0.383	8.498
258879.791	NaN	-3.065	1.424	9.511	1505.495	1504.029	1510.623	7.664	0.885	-12.702	-5.818	-0.459	8.421
258880.768	NaN	-3.065	1.424	9.522	1504.762	1503.297	1509.890	7.420	0.901	-12.504	-5.742	-0.536	8.421
258881.744	NaN	-3.065	1.413	9.522	1504.762	1504.762	1510.623	7.420	0.885	-12.519	-5.742	-0.536	8.574
258882.721	NaN	-3.065	1.413	9.522	1504.762	1504.029	1509.158	7.649	1.023	-12.763	-5.818	-0.383	8.574
258883.698	NaN	-3.054	1.424	9.522	1505.495	1504.029	1509.158	7.679	1.008	-12.916	-5.818	-0.459	8.421
258884.674	NaN	-3.054	1.424	9.511	1504.762	1504.029	1510.623	7.786	0.962	-12.779	-5.665	-0.459	8.651
258885.651	NaN	-3.065	1.402	9.511	1504.029	1503.297	1509.158	7.786	0.916	-12.779	-5.665	-0.459	8.421
258886.627	NaN	-3.065	1.413	9.522	1506.227	1504.029	1511.355	7.603	0.794	-12.824	-5.742	-0.459	8.421
258887.604	NaN	-3.076	1.402	9.522	1505.495	1503.297	1509.890	7.527	0.733	-12.641	-5.665	-0.459	8.344
258888.580	NaN	-3.076	1.413	9.522	1504.029	1502.564	1509.890	7.557	0.733	-12.580	-5.742	-0.459	8.344
258889.557	NaN	-3.076	1.413	9.511	1505.495	1502.564	1509.890	7.511	0.885	-12.748	-5.742	-0.459	8.498
258890.533	NaN	-3.065	1.424	9.511	1504.762	1503.297	1509.158	7.527	0.947	-12.763	-5.742	-0.383	8.574
258891.510	NaN	-3.076	1.424	9.511	1505.495	1503.297	1509.890	7.710	0.733	-12.458	-5.742	-0.459	8.344
258892.487	NaN	-3.065	1.413	9.511	1504.762	1502.564	1509.158	7.618	0.611	-12.427	-5.742	-0.459	8.574
258893.463	NaN	-3.054	1.402	9.522	1504.029	1502.564	1509.158	7.634	0.779	-12.534	-5.665	-0.459	8.574
258894.440	NaN	-3.054	1.413	9.522	1505.495	1504.029	1509.158	7.664	0.947	-12.763	-5.818	-0.459	8.421
258895.416	NaN	-3.065	1.413	9.522	1504.762	1502.564	1509.890	7.649	1.069	-12.824	-5.665	-0.306	8.498
258896.393	NaN	-3.065	1.424	9.511	1504.029	1502.564	1508.425	7.679	0.840	-12.824	-5.665	-0.459	8.421
258897.369	NaN	-3.054	1.424	9.511	1504.762	1502.564	1509.890	7.557	0.824	-12.672	-5.665	-0.459	8.421
258898.346	NaN	-3.054	1.413	9.522	1505.495	1503.297	1509.890	7.771	0.962	-12.611	-5.589	-0.383	8.498
258899.323	NaN	-3.054	1.402	9.522	1504.029	1503.297	1509.158	7.679	0.977	-12.611	-5.742	-0.459	8.421
258900.299	NaN	-3.054	1.413	9.533	1504.762	1502.564	1508.425	7.542	0.962	-12.611	-5.742	-0.383	8.498
258901.276	NaN	-3.065	1.413	9.533	1505.495	1504.029	1509.890	7.618	1.069	-12.656	-5.742	-0.383	8.344
258902.252	NaN	-3.065	1.413	9.533	1504.029	1504.029	1509.158	7.511	1.130	-12.779	-5.818	-0.383	8.574
258903.229	NaN	-3.054	1.413	9.533	1504.762	1503.297	1511.355	7.374	0.992	-12.901	-5.742	-0.459	8.421
258904.205	NaN	-3.065	1.424	9.533	1505.495	1504.762	1511.355	7.313	0.962	-12.824	-5.665	-0.536	8.498
258905.182	NaN	-3.065	1.424	9.533	1504.762	1504.029	1509.890	7.725	0.901	-12.626	-5.665	-0.536	8.421
258906.158	NaN	-3.065	1.413	9.533	1505.495	1503.297	1509.890	7.725	0.824	-12.305	-5.742	-0.306	8.421
258907.135	NaN	-3.065	1.424	9.543	1505.495	1503.297	1510.623	7.496	1.008	-12.519	-5.742	-0.459	8.421
258908.112	NaN	-3.076	1.413	9.533	1504.762	1504.762	1510.623	7.298	1.038	-12.809	-5.818	-0.459	8.421
258909.088	NaN	-3.076	1.402	9.533	1504.762	1504.029	1509.158	7.298	0.870	-12.855	-5.742	-0.383	8.574
258910.065	NaN	-3.054	1.413	9.533	1506.227	1504.029	1509.890	7.557	0.824	-12.656	-5.665	-0.459	8.651
258911.041	NaN	-3.054	1.402	9.522	1505.495	1503.297	1511.355	7.634	0.962	-12.595	-5.818	-0.383	8.344
258912.018	NaN	-3.065	1.402	9.533	1504.762	1503.297	1510.623	7.756	0.962	-12.687	-5.742	-0.459	8.421
258912.994	NaN	-3.065	1.391	9.533	1503.297	1504.029	1510.623	7.695	0.809	-12.824	-5.665	-0.459	8.498
258913.971	NaN	-3.065	1.391	9.511	1504.762	1504.029	1509.158	7.496	0.718	-12.916	-5.818	-0.459	8.498
258914.948	NaN	-3.065	1.402	9.511	1505.495	1504.029	1511.355	7.496	0.809	-12.824	-5.895	-0.383	8.421
258915.924	NaN	-3.065	1.402	9.500	1504.762	1504.029	1509.890	7.740	0.992	-12.611	-5.665	-0.459	8.421
258916.901	NaN	-3.054	1.402	9.500	1505.495	1501.832	1508.425	7.634	0.718	-12.473	-5.665	-0.383	8.268
258917.877	NaN	-3.043	1.424	9.500	1505.495	1504.029	1510.623	7.481	0.656	-12.473	-5.742	-0.383	8.421
258918.854	NaN	-3.065	1.413	9.489	1505.495	1503.297	1509.158	7.573	0.779	-12.687	-5.742	-0.383	8.421
258919.830	NaN	-3.065	1.413	9.500	1504.029	1503.297	1508.425	7.588	0.718	-12.809	-5.742	-0.306	8.498
258920.807	NaN	-3.087	1.402	9.511	1504.762	1503.297	1511.355	7.664	0.855	-12.641	-5.818	-0.536	8.574
258921.783	NaN	-3.087	1.413	9.511	1504.762	1503.297	1509.158	7.634	1.008	-12.473	-5.589	-0.459	8.574
258922.760	NaN	-3.076	1.424	9.522	1505.495	1502.564	1510.623	7.496	0.885	-12.519	-5.742	-0.383	8.344
258923.737	NaN	-3.076	1.413	9.511	1505.495	1504.029	1509.158	7.420	0.733	-12.702	-5.818	-0.459	8.344
258924.713	NaN	-3.087	1.402	9.511	1504.762	1503.297	1509.890	7.496	0.687	-12.748	-5.665	-0.383	8.421
258925.690	NaN	-3.087	1.413	9.511	1506.227	1503.297	1509.158	7.405	0.763	-12.672	-5.742	-0.459	8.421
258926.666	NaN	-3.076	1.402	9.511	1504.029	1503.297	1509.890	7.527	0.840	-12.748	-5.512	-0.383	8.421
258927.643	NaN	-3.065	1.413	9.511	1504.029	1503.297	1509.890	7.802	0.702	-12.702	-5.895	-0.383	8.421
258928.619	NaN	-3.076	1.402	9.500	1505.495	1503.297	1509.158	7.847	0.885	-12.565	-5.742	-0.536	8.421
258929.596	NaN	-3.065	1.402	9.500	1504.029	1503.297	1509.158	7.817	1.023	-12.534	-5.665	-0.383	8.498
258930.573	NaN	-3.076	1.402	9.489	1506.227	1504.029	1509.158	7.756	0.885	-12.550	-5.818	-0.536	8.498
258931.549	NaN	-3.065	1.402	9.489	1505.495	1504.029	1511.355	7.496	0.779	-12.473	-5.665	-0.536	8.498
258932.526	NaN	-3.054	1.413	9.500	1505.495	1504.029	1509.890	7.588	0.885	-12.565	-5.665	-0.536	8.421
258933.502	NaN	-3.054	1.413	9.511	1505.495	1504.029	1509.158	7.679	0.733	-12.534	-5.665	-0.459	8.421
258934.479	NaN	-3.054	1.413	9.500	1504.762	1504.029	1509.890	7.740	0.641	-12.382	-5.818	-0.383	8.344
258935.455	NaN	-3.054	1.413	9.489	1504.762	1504.029	1509.158	7.756	0.718	-12.580	-5.665	-0.383	8.421
258936.432	NaN	-3.076	1.402	9.489	1505.495	1503.297	1509.158	7.527	0.656	-12.656	-5.818	-0.383	8.498
258937.408	NaN	-3.065	1.413	9.511	1504.762	1503.297	1509.158	7.374	0.809	-12.595	-5.665	-0.383	8.344
258938.385	NaN	-3.054	1.413	9.511	1505.495	1503.297	1509.890	7.511	0.931	-12.534	-5.818	-0.536	8.498
258939.362	NaN	-3.054	1.402	9.511	1504.762	1503.297	1508.425	7.588	0.901	-12.504	-5.742	-0.459	8.574
258940.338	NaN	-3.043	1.413	9.522	1505.495	1504.029	1512.088	7.405	0.931	-12.595	-5.818	-0.459	8.574
258941.315	NaN	-3.054	1.413	9.522	1504.762	1504.762	1509.158	7.374	0.855	-12.733	-5.665	-0.459	8.344
258942.291	NaN	-3.043	1.424	9.522	1505.495	1504.029	1509.158	7.420	0.748	-12.687	-5.818	-0.459	8.498
258943.268	NaN	-3.043	1.402	9.522	1504.762	1504.029	1509.158	7.542	0.718	-12.641	-5.742	-0.459	8.344
258944.244	NaN	-3.033	1.413	9.522	1504.762	1504.029	1509.890	7.542	0.794	-12.794	-5.665	-0.459	8.421
258945.221	NaN	-3.054	1.402	9.511	1504.762	1503.297	1507.692	7.496	0.824	-12.870	-5.742	-0.459	8.421
258946.198	NaN	-3.043	1.413	9.522	1504.762	1502.564	1510.623	7.496	0.779	-12.748	-5.742	-0.383	8.574
258947.174	NaN	-3.054	1.413	9.522	1504.029	1503.297	1511.355	7.511	0.809	-12.534	-5.742	-0.459	8.421
258948.151	NaN	-3.065	1.413	9.511	1506.227	1504.029	1509.158	7.542	0.733	-12.443	-5.742	-0.383	8.574
258949.127	NaN	-3.054	1.402	9.511	1504.762	1504.762	1510.623	7.832	0.931	-12.641	-5.742	-0.459	8.574
258950.104	NaN	-3.054	1.413	9.522	1504.762	1504.762	1509.890	7.695	0.870	-12.840	-5.742	-0.459	8.498
258951.080	NaN	-3.054	1.413	9.522	1505.495	1504.762	1509.890	7.527	0.824	-12.580	-5.665	-0.459	8.344
258952.057	NaN	-3.054	1.402	9.511	1506.227	1502.564	1510.623	7.450	0.611	-12.427	-5.742	-0.459	8.421
258953.033	NaN	-3.054	1.413	9.500	1504.762	1503.297	1509.890	7.389	0.626	-12.473	-5.818	-0.383	8.574
258954.010	NaN	-3.043	1.413	9.500	1505.495	1503.297	1510.623	7.710	0.763	-12.534	-5.665	-0.459	8.498
258954.987	NaN	-3.043	1.413	9.511	1504.762	1503.297	1510.623	7.786	0.885	-12.580	-5.665	-0.383	8.421
258955.963	NaN	-3.054	1.413	9.511	1505.495	1503.297	1509.890	7.710	1.023	-12.504	-5.742	-0.383	8.421
258956.940	NaN	-3.065	1.402	9.511	1504.762	1502.564	1510.623	7.557	1.008	-12.427	-5.818	-0.459	8.498
258957.916	NaN	-3.054	1.413	9.522	1504.762	1504.029	1510.623	7.435	0.809	-12.458	-5.742	-0.536	8.498
258958.893	NaN	-3.065	1.402	9.511	1505.495	1504.029	1509.890	7.420	0.809	-12.580	-5.818	-0.459	8.421
258959.869	NaN	-3.065	1.402	9.511	1506.227	1503.297	1510.623	7.374	0.992	-12.550	-5.742	-0.383	8.421
258960.846	NaN	-3.076	1.402	9.511	1502.564	1502.564	1509.158	7.389	0.885	-12.290	-5.818	-0.459	8.421
258961.823	NaN	-3.065	1.402	9.511	1505.495	1504.762	1509.890	7.466	0.702	-12.244	-5.742	-0.459	8.421
258962.799	NaN	-3.054	1.413	9.511	1505.495	1504.029	1510.623	7.374	0.580	-12.366	-5.665	-0.536	8.344
258963.776	NaN	-3.065	1.413	9.522	1504.762	1503.297	1509.158	7.481	0.748	-12.550	-5.742	-0.383	8.498
258964.752	NaN	-3.043	1.413	9.522	1505.495	1504.029	1510.623	7.527	0.809	-12.458	-5.742	-0.536	8.574
258965.729	NaN	-3.054	1.424	9.511	1503.297	1503.297	1509.158	7.527	0.809	-12.458	-5.742	-0.536	8.498
258966.705	NaN	-3.065	1.424	9.511	1504.029	1502.564	1509.158	7.450	0.672	-12.336	-5.665	-0.383	8.498
258967.682	NaN	-3.065	1.435	9.522	1505.495	1504.029	1510.623	7.481	0.901	-12.412	-5.818	-0.383	8.498
258968.658	NaN	-3.065	1.413	9.522	1505.495	1504.029	1509.890	7.420	0.916	-12.382	-5.665	-0.383	8.498
258969.635	NaN	-3.065	1.413	9.522	1504.029	1502.564	1509.158	7.557	0.779	-12.534	-5.665	-0.459	8.574
258970.612	NaN	-3.076	1.413	9.533	1506.227	1504.762	1509.158	7.359	0.641	-12.519	-5.742	-0.459	8.344
258971.588	NaN	-3.065	1.402	9.522	1505.495	1503.297	1510.623	7.328	0.733	-12.656	-5.742	-0.383	8.498
258972.565	NaN	-3.076	1.413	9.511	1503.297	1504.029	1511.355	7.588	0.855	-12.565	-5.742	-0.383	8.498
258973.541	NaN	-3.076	1.424	9.500	1504.762	1504.029	1510.623	7.542	0.794	-12.397	-5.818	-0.459	8.574
258974.518	NaN	-3.076	1.402	9.500	1504.762	1503.297	1509.890	7.481	0.885	-12.397	-5.665	-0.459	8.421
258975.494	NaN	-3.065	1.424	9.511	1504.762	1504.029	1510.623	7.588	0.947	-12.580	-5.742	-0.383	8.574
258976.471	NaN	-3.076	1.413	9.511	1506.227	1504.029	1510.623	7.634	0.901	-12.580	-5.818	-0.459	8.344
258977.448	NaN	-3.076	1.424	9.511	1504.762	1504.029	1511.355	7.740	0.901	-12.702	-5.742	-0.459	8.421
258978.424	NaN	-3.065	1.424	9.511	1504.762	1503.297	1510.623	7.420	0.855	-12.626	-5.665	-0.383	8.421
258979.401	NaN	-3.076	1.413	9.500	1506.227	1503.297	1510.623	7.359	0.809	-12.290	-5.665	-0.383	8.498
258980.377	NaN	-3.076	1.424	9.511	1504.762	1504.762	1510.623	7.466	0.702	-12.260	-5.665	-0.459	8.421
258981.354	NaN	-3.087	1.424	9.511	1505.495	1503.297	1509.158	7.313	0.702	-12.290	-5.818	-0.383	8.421
258982.330	NaN	-3.065	1.424	9.522	1504.029	1503.297	1508.425	7.191	0.672	-12.427	-5.818	-0.459	8.344
258983.307	NaN	-3.065	1.424	9.522	1505.495	1504.029	1509.890	7.359	0.824	-12.458	-5.665	-0.536	8.421
258984.283	NaN	-3.065	1.424	9.522	1506.960	1504.029	1510.623	7.573	0.901	-12.351	-5.742	-0.459	8.498
258985.260	NaN	-3.054	1.424	9.511	1506.227	1503.297	1509.890	7.802	1.038	-12.458	-5.895	-0.612	8.344
258986.237	NaN	-3.065	1.424	9.500	1504.762	1504.029	1509.158	7.649	0.992	-12.351	-5.665	-0.459	8.344
258987.213	NaN	-3.065	1.424	9.500	1506.227	1503.297	1509.890	7.511	0.870	-12.366	-5.818	-0.383	8.498
258988.190	NaN	-3.065	1.413	9.500	1505.495	1502.564	1510.623	7.740	0.733	-12.458	-5.665	-0.459	8.344
258989.166	NaN	-3.054	1.424	9.500	1506.227	1504.029	1509.158	7.603	0.779	-12.504	-5.665	-0.536	8.498
258990.143	NaN	-3.054	1.424	9.500	1505.495	1504.029	1509.158	7.328	0.855	-12.366	-5.818	-0.383	8.421
258991.119	NaN	-3.065	1.424	9.500	1505.495	1503.297	1509.890	7.328	0.763	-12.473	-5.742	-0.383	8.421
258992.096	NaN	-3.054	1.413	9.511	1503.297	1503.297	1508.425	7.450	0.794	-12.489	-5.665	-0.306	8.344
258993.073	NaN	-3.054	1.413	9.500	1504.762	1504.029	1509.158	7.405	0.809	-12.489	-5.818	-0.459	8.421
258994.049	NaN	-3.065	1.424	9.500	1504.762	1504.029	1510.623	7.344	0.779	-12.336	-5.742	-0.383	8.268
258995.026	3736848704.779	-3.065	1.413	9.511	1504.762	1503.297	1509.890	7.374	0.763	-12.336	-5.742	-0.459	8.498
258996.002	NaN	-3.065	1.413	9.522	1504.762	1503.297	1511.355	7.344	0.733	-12.366	-5.742	-0.459	8.344
258996.979	NaN	-3.076	1.402	9.522	1505.495	1503.297	1509.890	7.313	0.840	-12.336	-5.742	-0.459	8.498
258997.955	NaN	-3.087	1.402	9.511	1504.762	1502.564	1508.425	7.359	0.931	-12.214	-5.818	-0.383	8.421
258998.932	NaN	-3.065	1.413	9.522	1504.762	1504.029	1509.158	7.435	0.855	-12.198	-5.818	-0.383	8.344
258999.908	NaN	-3.065	1.413	9.522	1504.762	1504.029	1509.890	7.618	0.718	-12.198	-5.589	-0.383	8.498
259000.885	NaN	-3.065	1.413	9.522	1504.762	1504.762	1511.355	7.603	0.824	-12.351	-5.818	-0.612	8.421
259001.862	NaN	-3.076	1.413	9.522	1505.495	1502.564	1509.158	7.359	0.809	-12.473	-5.742	-0.459	8.421
259002.838	NaN	-3.054	1.424	9.543	1505.495	1503.297	1511.355	7.313	0.794	-12.244	-5.589	-0.383	8.574
259003.815	NaN	-3.065	1.413	9.533	1504.762	1503.297	1509.158	7.420	0.840	-12.153	-5.665	-0.459	8.344
259004.791	NaN	-3.065	1.413	9.533	1504.762	1502.564	1509.158	7.557	0.733	-12.275	-5.895	-0.536	8.498
259005.768	NaN	-3.065	1.402	9.533	1504.029	1503.297	1509.890	7.389	0.763	-12.305	-5.818	-0.612	8.498
259006.744	NaN	-3.054	1.413	9.533	1504.762	1503.297	1509.890	7.359	0.916	-12.198	-5.589	-0.536	8.574
259007.721	NaN	-3.054	1.413	9.533	1504.029	1503.297	1509.158	7.496	0.901	-12.244	-5.742	-0.612	8.498
259008.698	NaN	-3.054	1.413	9.533	1504.762	1503.297	1509.890	7.466	0.870	-12.290	-5.665	-0.459	8.421
259009.674	NaN	-3.054	1.413	9.522	1504.762	1504.029	1510.623	7.450	0.901	-12.336	-5.742	-0.459	8.421
259010.651	NaN	-3.065	1.413	9.522	1505.495	1504.029	1509.158	7.344	0.779	-12.443	-5.665	-0.459	8.574
259011.627	NaN	-3.054	1.424	9.511	1505.495	1504.029	1511.355	7.313	0.870	-12.458	-5.665	-0.459	8.344
259012.604	NaN	-3.054	1.424	9.511	1505.495	1503.297	1510.623	7.344	0.794	-12.565	-5.818	-0.306	8.421
259013.580	NaN	-3.054	1.413	9.522	1506.227	1504.029	1509.158	7.389	0.763	-12.504	-5.742	-0.459	8.421
259014.557	NaN	-3.065	1.402	9.522	1504.762	1503.297	1509.890	7.527	0.672	-12.489	-5.589	-0.459	8.421
259015.533	NaN	-3.076	1.413	9.533	1506.227	1503.297	1510.623	7.389	0.870	-12.366	-5.665	-0.459	8.498
259016.510	NaN	-3.087	1.413	9.543	1506.227	1504.029	1509.890	7.405	0.931	-12.168	-5.665	-0.459	8.421
259017.487	NaN	-3.098	1.424	9.533	1505.495	1504.029	1510.623	7.359	1.038	-12.046	-5.742	-0.459	8.574
259018.463	NaN	-3.087	1.424	9.511	1504.762	1504.029	1510.623	7.603	0.962	-12.214	-5.742	-0.459	8.498
259019.440	NaN	-3.087	1.413	9.522	1506.227	1502.564	1509.890	7.802	0.901	-12.366	-5.895	-0.536	8.421
259020.416	NaN	-3.076	1.413	9.522	1504.029	1503.297	1509.890	7.664	0.962	-12.351	-5.742	-0.459	8.421
259021.393	NaN	-3.076	1.413	9.522	1504.762	1503.297	1509.890	7.481	0.916	-12.321	-5.589	-0.459	8.498
259022.369	NaN	-3.054	1.424	9.522	1504.762	1504.029	1509.890	7.435	0.931	-12.260	-5.742	-0.459	8.421
259023.346	NaN	-3.065	1.413	9.522	1505.495	1503.297	1509.890	7.344	0.809	-12.244	-5.665	-0.459	8.421
259024.323	NaN	-3.054	1.413	9.511	1506.227	1504.029	1511.355	7.450	0.855	-12.076	-5.665	-0.383	8.421
259025.299	NaN	-3.054	1.424	9.511	1505.495	1503.297	1509.890	7.313	0.947	-12.168	-5.818	-0.383	8.421
259026.276	NaN	-3.043	1.424	9.522	1505.495	1503.297	1509.158	7.282	0.947	-12.137	-5.742	-0.536	8.421
259027.252	NaN	-3.043	1.424	9.522	1505.495	1502.564	1510.623	7.435	0.885	-12.198	-5.742	-0.383	8.498
259028.229	NaN	-3.043	1.424	9.522	1505.495	1503.297	1509.158	7.435	0.885	-12.427	-5.895	-0.536	8.344
259029.205	NaN	-3.033	1.435	9.533	1505.495	1504.029	1510.623	7.328	0.962	-12.473	-5.589	-0.459	8.421
259030.182	NaN	-3.033	1.424	9.533	1506.227	1503.297	1509.158	7.511	1.008	-12.351	-5.665	-0.459	8.574
259031.158	NaN	-3.033	1.413	9.533	1504.762	1504.029	1509.890	7.496	0.885	-12.198	-5.665	-0.459	8.498
259032.135	NaN	-3.043	1.402	9.522	1504.762	1504.029	1509.158	7.450	1.038	-12.092	-5.742	-0.459	8.498
259033.112	NaN	-3.043	1.402	9.511	1505.495	1504.029	1509.158	7.542	0.870	-12.168	-5.742	-0.536	8.498
259034.088	NaN	-3.033	1.413	9.511	1505.495	1504.029	1511.355	7.542	0.718	-12.122	-5.742	-0.536	8.344
259035.065	NaN	-3.033	1.413	9.511	1505.495	1503.297	1509.158	7.359	0.916	-12.031	-5.742	-0.689	8.344
259036.041	NaN	-3.043	1.435	9.511	1505.495	1503.297	1509.890	7.282	0.840	-12.015	-5.818	-0.536	8.574
259037.018	NaN	-3.054	1.424	9.511	1505.495	1504.762	1511.355	7.328	0.748	-12.107	-5.818	-0.383	8.421
259037.994	NaN	-3.065	1.424	9.511	1504.762	1503.297	1509.158	7.252	0.809	-12.198	-5.742	-0.459	8.498
259038.971	NaN	-3.054	1.424	9.511	1504.762	1503.297	1509.890	7.084	0.962	-12.061	-5.742	-0.383	8.344
259039.948	NaN	-3.043	1.424	9.511	1504.762	1504.029	1509.890	7.053	0.962	-11.969	-5.742	-0.306	8.498
259040.924	NaN	-3.043	1.413	9.511	1504.762	1503.297	1509.158	7.145	0.901	-12.183	-5.589	-0.383	8.498
259041.901	NaN	-3.043	1.413	9.522	1505.495	1503.297	1509.890	7.420	1.008	-12.244	-5.742	-0.459	8.421
259042.877	NaN	-3.054	1.402	9.511	1504.762	1503.297	1508.425	7.542	1.145	-12.275	-5.742	-0.383	8.421
259043.854	NaN	-3.054	1.402	9.522	1504.029	1503.297	1508.425	7.603	1.023	-12.198	-5.742	-0.306	8.421
259044.830	NaN	-3.054	1.402	9.522	1505.495	1504.029	1510.623	7.557	0.779	-12.000	-5.742	-0.306	8.421
259045.807	NaN	-3.054	1.391	9.511	1504.762	1502.564	1508.425	7.664	0.718	-11.969	-5.589	-0.383	8.344
259046.783	NaN	-3.054	1.402	9.522	1504.029	1503.297	1508.425	7.863	0.809	-12.137	-5.742	-0.536	8.421
259047.760	NaN	-3.054	1.402	9.511	1504.762	1503.297	1508.425	7.557	0.870	-12.153	-5.742	-0.383	8.421
259048.737	NaN	-3.054	1.402	9.511	1504.029	1503.297	1510.623	7.511	0.824	-12.137	-5.818	-0.459	8.498
259049.713	NaN	-3.054	1.402	9.522	1504.762	1503.297	1509.890	7.542	0.870	-12.305	-5.742	-0.383	8.498
259050.690	NaN	-3.065	1.391	9.522	1505.495	1502.564	1509.158	7.710	0.901	-12.290	-5.589	-0.459	8.498
259051.666	NaN	-3.065	1.413	9.522	1504.762	1504.029	1510.623	7.649	0.718	-12.321	-5.742	-0.459	8.344
259052.643	NaN	-3.076	1.402	9.522	1505.495	1502.564	1508.425	7.466	0.672	-12.137	-5.665	-0.459	8.421
259053.619	NaN	-3.076	1.424	9.522	1503.297	1503.297	1509.890	7.313	0.855	-11.985	-5.589	-0.536	8.421
259054.596	NaN	-3.076	1.413	9.511	1504.762	1503.297	1509.158	7.359	1.038	-12.137	-5.818	-0.383	8.498
259055.573	NaN	-3.076	1.424	9.511	1500.366	1504.029	1509.890	7.267	1.099	-12.092	-5.742	-0.459	8.268
259056.549	NaN	-3.065	1.424	9.511	1505.495	1504.029	1510.623	7.267	1.008	-12.031	-5.742	-0.459	8.421
259057.526	NaN	-3.065	1.424	9.500	1505.495	1503.297	1509.890	7.359	0.962	-12.122	-5.589	-0.383	8.498
259058.502	NaN	-3.054	1.413	9.500	1505.495	1504.029	1509.890	7.496	0.824	-12.244	-5.818	-0.383	8.421
259059.479	NaN	-3.065	1.413	9.500	1505.495	1504.029	1509.158	7.511	0.779	-12.153	-5.665	-0.383	8.421
259060.455	NaN	-3.054	1.424	9.511	1505.495	1504.029	1509.890	7.420	0.870	-12.046	-5.742	-0.306	8.498
259061.432	NaN	-3.054	1.424	9.511	1506.227	1504.029	1509.158	7.252	1.008	-12.107	-5.742	-0.306	8.574
259062.408	NaN	-3.054	1.413	9.511	1506.227	1504.029	1511.355	7.344	0.824	-12.244	-5.665	-0.459	8.421
259063.385	NaN	-3.054	1.413	9.522	1504.762	1503.297	1509.158	7.603	0.809	-12.275	-5.818	-0.459	8.421
259064.362	NaN	-3.054	1.413	9.522	1504.762	1503.297	1509.158	7.695	0.947	-12.382	-5.665	-0.383	8.344
259065.338	NaN	-3.054	1.413	9.533	1505.495	1504.029	1510.623	7.649	0.977	-12.168	-5.742	-0.383	8.344
259066.315	NaN	-3.065	1.413	9.533	1505.495	1504.762	1511.355	7.359	0.962	-12.076	-5.665	-0.383	8.421
259067.291	NaN	-3.065	1.413	9.533	1506.227	1503.297	1510.623	7.252	0.824	-12.092	-5.742	-0.459	8.421
259068.268	NaN	-3.065	1.402	9.522	1503.297	1503.297	1509.890	7.405	0.870	-12.214	-5.742	-0.383	8.344
259069.244	NaN	-3.054	1.413	9.522	1505.495	1504.029	1509.890	7.511	0.885	-12.107	-5.665	-0.536	8.421
259070.221	NaN	-3.054	1.402	9.533	1505.495	1504.762	1510.623	7.145	0.901	-12.046	-5.665	-0.536	8.498
259071.198	NaN	-3.054	1.402	9.522	1506.227	1503.297	1508.425	7.252	0.962	-12.092	-5.818	-0.536	8.344
259072.174	NaN	-3.054	1.402	9.522	1504.029	1504.762	1509.890	7.344	1.084	-11.985	-5.818	-0.459	8.344
259073.151	NaN	-3.065	1.402	9.522	1506.227	1504.029	1510.623	7.481	0.977	-11.954	-5.665	-0.459	8.344
259074.127	NaN	-3.054	1.402	9.522	1505.495	1504.029	1510.623	7.176	0.977	-11.985	-5.665	-0.383	8.498
259075.104	NaN	-3.054	1.413	9.522	1505.495	1503.297	1509.890	7.130	1.069	-12.092	-5.971	-0.536	8.421
259076.080	NaN	-3.054	1.402	9.522	1504.029	1503.297	1511.355	7.053	0.947	-12.031	-5.742	-0.383	8.574
259077.057	NaN	-3.076	1.402	9.522	1505.495	1503.297	1508.425	7.252	0.794	-11.863	-5.742	-0.306	8.421
259078.033	NaN	-3.065	1.402	9.533	1506.227	1503.297	1510.623	7.435	1.053	-11.985	-5.665	-0.383	8.421
259079.010	NaN	-3.054	1.402	9.533	1506.227	1504.029	1510.623	7.374	1.252	-12.046	-5.742	-0.383	8.574
259079.987	NaN	-3.054	1.402	9.522	1506.227	1504.029	1510.623	7.328	0.977	-12.107	-5.665	-0.459	8.498
259080.963	NaN	-3.054	1.413	9.522	1504.762	1504.029	1510.623	7.450	0.824	-11.985	-5.742	-0.383	8.498
259081.940	NaN	-3.065	1.402	9.522	1504.762	1503.297	1509.158	7.466	0.824	-11.908	-5.665	-0.383	8.498
259082.916	NaN	-3.065	1.402	9.533	1505.495	1502.564	1507.692	7.527	0.931	-12.107	-5.742	-0.306	8.421
259083.893	NaN	-3.065	1.402	9.543	1504.029	1502.564	1509.158	7.450	1.038	-11.985	-5.742	-0.459	8.574
259084.869	NaN	-3.065	1.413	9.533	1505.495	1504.762	1511.355	7.298	1.069	-11.939	-5.818	-0.459	8.498
259085.846	NaN	-3.076	1.413	9.533	1505.495	1504.029	1511.355	7.221	0.794	-12.046	-5.665	-0.459	8.498
259086.823	NaN	-3.065	1.424	9.522	1504.762	1502.564	1509.890	7.328	0.885	-11.908	-5.818	-0.536	8.344
259087.799	NaN	-3.065	1.424	9.533	1504.762	1502.564	1509.890	7.420	1.053	-11.939	-5.665	-0.383	8.421
259088.776	NaN	-3.054	1.435	9.533	1506.227	1504.029	1510.623	7.282	1.053	-12.076	-5.665	-0.459	8.498
259089.752	NaN	-3.065	1.413	9.522	1505.495	1503.297	1510.623	7.344	1.038	-12.122	-5.665	-0.383	8.421
259090.729	NaN	-3.076	1.413	9.511	1504.762	1503.297	1508.425	7.466	1.084	-11.924	-5.895	-0.612	8.344
259091.705	NaN	-3.076	1.424	9.522	1505.495	1504.762	1510.623	7.435	1.008	-11.786	-5.895	-0.459	8.498
259092.682	NaN	-3.087	1.413	9.511	1504.762	1503.297	1509.158	7.450	0.916	-11.939	-5.742	-0.383	8.344
259093.658	NaN	-3.065	1.413	9.511	1504.029	1503.297	1508.425	7.359	0.840	-11.939	-5.665	-0.536	8.344
259094.635	NaN	-3.054	1.424	9.522	1504.762	1503.297	1509.890	7.237	0.901	-12.031	-5.589	-0.459	8.498
259095.612	NaN	-3.076	1.424	9.500	1504.029	1502.564	1509.158	7.099	1.130	-12.000	-5.512	-0.230	8.421
259096.588	NaN	-3.054	1.435	9.511	1505.495	1504.029	1510.623	7.237	1.038	-11.969	-5.742	-0.306	8.421
259097.565	NaN	-3.043	1.413	9.511	1504.029	1504.029	1509.890	7.527	0.947	-11.878	-5.742	-0.383	8.421
259098.541	NaN	-3.033	1.413	9.511	1504.762	1504.029	1510.623	7.618	0.794	-11.756	-5.818	-0.459	8.421
259099.518	NaN	-3.043	1.413	9.489	1505.495	1502.564	1509.158	7.511	0.992	-11.756	-5.818	-0.536	8.421
259100.494	NaN	-3.033	1.424	9.511	1506.227	1504.029	1509.158	7.450	1.008	-11.786	-5.742	-0.459	8.421
259101.471	NaN	-3.033	1.424	9.522	1505.495	1504.029	1509.890	7.298	1.053	-11.817	-5.512	-0.536	8.498
259102.448	NaN	-3.043	1.424	9.522	1504.762	1504.029	1509.890	7.328	1.084	-11.649	-5.895	-0.459	8.498
259103.424	NaN	-3.033	1.424	9.522	1505.495	1503.297	1509.890	7.405	1.069	-11.740	-5.665	-0.306	8.498
259104.401	NaN	-3.054	1.424	9.511	1506.227	1504.029	1509.158	7.405	0.977	-12.000	-5.665	-0.459	8.421
259105.377	NaN	-3.054	1.424	9.522	1504.029	1503.297	1509.158	7.359	0.992	-11.908	-5.742	-0.459	8.421
259106.354	NaN	-3.043	1.435	9.522	1505.495	1503.297	1509.890	7.389	0.947	-11.817	-5.742	-0.306	8.651
259107.330	NaN	-3.054	1.435	9.522	1505.495	1504.029	1509.890	7.282	0.931	-11.893	-5.895	-0.383	8.421
259108.307	NaN	-3.065	1.413	9.500	1505.495	1503.297	1508.425	7.115	0.992	-12.031	-5.818	-0.383	8.421
259109.283	NaN	-3.065	1.413	9.489	1506.227	1504.029	1511.355	7.069	1.053	-12.061	-5.742	-0.459	8.498
259110.260	NaN	-3.054	1.413	9.500	1505.495	1503.297	1510.623	7.359	1.237	-12.000	-5.742	-0.383	8.498
259111.237	NaN	-3.065	1.413	9.500	1505.495	1504.029	1509.890	7.618	1.374	-11.985	-5.665	-0.306	8.421
259112.213	NaN	-3.065	1.413	9.500	1505.495	1503.297	1509.890	7.435	1.069	-12.000	-5.742	-0.383	8.344
259113.190	NaN	-3.076	1.413	9.500	1505.495	1503.297	1509.158	7.313	0.855	-11.908	-5.665	-0.536	8.344
259114.166	NaN	-3.065	1.424	9.511	1505.495	1504.029	1510.623	7.115	0.824	-11.725	-5.742	-0.459	8.498
259115.143	NaN	-3.054	1.424	9.511	1505.495	1504.029	1510.623	7.405	1.038	-11.725	-5.589	-0.459	8.421
259116.119	NaN	-3.054	1.413	9.511	1506.227	1504.029	1509.890	7.588	1.237	-11.832	-5.742	-0.459	8.498
259117.096	NaN	-3.054	1.413	9.511	1504.029	1503.297	1508.425	7.450	1.252	-11.908	-5.589	-0.459	8.574
259118.073	NaN	-3.043	1.413	9.522	1505.495	1501.832	1508.425	7.359	1.099	-11.954	-5.665	-0.536	8.421
259119.049	NaN	-3.033	1.424	9.511	1505.495	1504.762	1509.158	7.237	0.870	-11.939	-5.665	-0.459	8.498
259120.026	NaN	-3.043	1.413	9.500	1506.227	1503.297	1509.890	7.328	0.794	-11.939	-5.665	-0.383	8.498
259121.002	NaN	-3.054	1.413	9.500	1504.762	1503.297	1509.158	7.450	1.069	-11.985	-5.742	-0.459	8.498
259121.979	NaN	-3.054	1.413	9.511	1504.029	1501.832	1510.623	7.496	1.267	-12.061	-5.818	-0.459	8.498
259122.955	NaN	-3.054	1.413	9.511	1506.227	1504.029	1509.890	7.359	1.298	-11.954	-5.742	-0.383	8.344
259123.932	NaN	-3.065	1.424	9.522	1506.227	1504.029	1510.623	7.252	1.008	-11.771	-5.589	-0.383	8.498
259124.908	NaN	-3.065	1.424	9.522	1505.495	1504.029	1509.890	7.359	0.809	-11.878	-5.818	-0.459	8.498
259125.885	NaN	-3.054	1.424	9.511	1505.495	1503.297	1509.890	7.450	1.053	-11.893	-5.742	-0.383	8.498
259126.862	NaN	-3.065	1.413	9.511	1505.495	1504.029	1509.890	7.466	1.069	-11.725	-5.665	-0.536	8.421
259127.838	NaN	-3.054	1.424	9.511	1505.495	1503.297	1511.355	7.405	0.992	-11.664	-5.665	-0.383	8.421
259128.815	NaN	-3.043	1.424	9.511	1506.227	1503.297	1512.088	7.298	0.870	-11.756	-5.665	-0.536	8.498
259129.791	NaN	-3.054	1.424	9.511	1505.495	1504.029	1510.623	7.328	0.977	-11.771	-5.665	-0.459	8.344
259130.768	NaN	-3.065	1.413	9.511	1504.762	1504.029	1509.890	7.618	1.023	-11.802	-5.665	-0.383	8.344
259131.744	NaN	-3.043	1.424	9.511	1505.495	1504.762	1511.355	7.573	1.237	-11.786	-5.818	-0.536	8.498
259132.721	NaN	-3.065	1.413	9.522	1505.495	1504.029	1510.623	7.527	1.267	-11.802	-5.665	-0.306	8.498
259133.698	NaN	-3.065	1.413	9.522	1505.495	1504.029	1509.890	7.405	1.145	-11.863	-5.742	-0.383	8.421
259134.674	NaN	-3.054	1.413	9.522	1504.029	1503.297	1509.158	7.374	1.069	-11.863	-5.818	-0.459	8.498
259135.651	NaN	-3.054	1.402	9.511	1504.029	1502.564	1509.158	7.389	1.069	-11.802	-5.589	-0.383	8.421
259136.627	NaN	-3.043	1.413	9.511	1505.495	1504.029	1509.890	7.069	1.053	-11.802	-5.589	-0.459	8.498
259137.604	NaN	-3.054	1.402	9.500	1504.762	1504.029	1509.890	7.191	1.099	-11.725	-5.665	-0.459	8.651
259138.580	NaN	-3.043	1.413	9.511	1504.029	1503.297	1510.623	7.267	1.084	-11.588	-5.818	-0.459	8.421
259139.557	NaN	-3.043	1.402	9.511	1504.762	1503.297	1509.890	7.435	1.115	-11.603	-5.818	-0.459	8.421
259140.533	NaN	-3.054	1.402	9.511	1505.495	1503.297	1510.623	7.466	1.130	-11.771	-5.818	-0.383	8.574
259141.510	NaN	-3.043	1.402	9.511	1505.495	1504.762	1509.890	7.313	1.053	-11.878	-5.665	-0.459	8.344
259142.487	NaN	-3.043	1.402	9.511	1504.762	1503.297	1509.890	7.282	1.008	-11.908	-5.742	-0.383	8.421
259143.463	NaN	-3.043	1.413	9.500	1506.227	1503.297	1509.890	7.313	1.313	-11.740	-5.818	-0.536	8.498
259144.440	NaN	-3.054	1.402	9.500	1504.762	1504.029	1509.890	7.511	1.298	-11.695	-5.742	-0.306	8.498
259145.416	NaN	-3.054	1.413	9.500	1506.227	1504.029	1510.623	7.420	1.099	-11.771	-5.742	-0.230	8.498
259146.393	NaN	-3.043	1.402	9.489	1504.762	1503.297	1509.890	7.328	1.053	-11.634	-5.742	-0.459	8.344
259147.369	NaN	-3.054	1.402	9.500	1506.227	1504.029	1509.890	7.252	1.053	-11.542	-5.742	-0.306	8.421
259148.346	NaN	-3.054	1.391	9.511	1504.762	1504.029	1510.623	7.130	1.130	-11.893	-5.665	-0.612	8.498
259149.323	NaN	-3.065	1.413	9.511	1505.495	1504.029	1509.890	7.176	1.267	-11.893	-5.665	-0.459	8.498
259150.299	NaN	-3.043	1.413	9.522	1505.495	1504.029	1512.821	7.252	1.282	-11.756	-5.742	-0.536	8.421
259151.276	NaN	-3.043	1.424	9.522	1505.495	1504.029	1510.623	7.328	0.992	-11.618	-5.742	-0.459	8.498
259152.252	NaN	-3.054	1.435	9.522	1505.495	1504.762	1509.890	7.160	1.008	-11.542	-5.818	-0.306	8.574
259153.229	NaN	-3.054	1.435	9.511	1504.762	1504.029	1509.890	7.221	1.115	-11.527	-5.742	-0.459	8.421
259154.205	3736848704.950	-3.043	1.435	9.511	1506.227	1504.029	1509.890	7.176	1.176	-11.603	-5.818	-0.536	8.498
259155.182	NaN	-3.054	1.446	9.511	1505.495	1503.297	1511.355	7.298	1.053	-11.695	-5.818	-0.383	8.421
259156.158	NaN	-3.054	1.435	9.533	1505.495	1504.029	1509.890	7.359	0.901	-11.786	-5.818	-0.459	8.421
259157.135	NaN	-3.065	1.424	9.533	1505.495	1504.029	1510.623	7.344	1.069	-11.802	-5.818	-0.459	8.344
259158.112	NaN	-3.076	1.424	9.533	1504.029	1504.029	1509.890	7.313	1.176	-11.603	-5.742	-0.536	7.426
259159.088	NaN	-3.087	1.413	9.533	1505.495	1504.029	1509.890	7.160	1.237	-11.481	-5.742	-0.459	8.574
259160.065	NaN	-3.087	1.413	9.533	1505.495	1503.297	1509.158	7.084	1.130	-11.740	-5.895	-0.383	8.421
259161.041	NaN	-3.087	1.424	9.533	1504.762	1504.029	1509.890	7.267	1.237	-11.878	-5.818	-0.459	8.421
259162.018	NaN	-3.098	1.413	9.522	1504.762	1504.762	1509.890	7.359	1.160	-11.679	-5.665	-0.536	8.421
259162.994	NaN	-3.087	1.413	9.522	1504.029	1503.297	1509.890	7.359	1.038	-11.664	-5.742	-0.383	8.268
259163.971	NaN	-3.076	1.402	9.522	1505.495	1504.029	1510.623	7.298	0.931	-11.573	-5.742	-0.383	8.344
259164.948	NaN	-3.087	1.402	9.522	1505.495	1504.029	1509.158	7.282	1.053	-11.695	-5.742	-0.383	8.421
259165.924	NaN	-3.087	1.402	9.511	1505.495	1504.029	1510.623	7.160	1.282	-11.756	-5.818	-0.459	8.498
259166.901	NaN	-3.087	1.402	9.500	1505.495	1503.297	1509.890	7.115	1.237	-11.756	-5.742	-0.612	8.651
259167.877	NaN	-3.076	1.413	9.511	1505.495	1504.029	1509.890	7.450	1.160	-11.756	-5.665	-0.383	8.344
259168.854	NaN	-3.076	1.424	9.522	1504.762	1503.297	1509.158	7.496	1.130	-11.618	-5.742	-0.536	8.498
259169.830	NaN	-3.076	1.424	9.522	1506.227	1503.297	1509.158	7.344	0.840	-11.557	-5.665	-0.383	8.498
259170.807	NaN	-3.087	1.424	9.533	1504.029	1504.762	1509.890	7.145	0.809	-11.634	-5.818	-0.383	8.268
259171.783	NaN	-3.087	1.424	9.533	1506.227	1504.029	1511.355	7.115	1.145	-11.679	-5.742	-0.459	8.421
259172.760	NaN	-3.065	1.424	9.522	1504.762	1504.029	1510.623	7.481	1.145	-11.573	-5.818	-0.383	8.421
259173.737	NaN	-3.054	1.413	9.533	1504.762	1504.029	1510.623	7.466	1.084	-11.542	-5.665	-0.459	8.498
259174.713	NaN	-3.076	1.402	9.522	1504.762	1504.029	1508.425	7.252	0.992	-11.588	-5.742	-0.459	8.498
259175.690	NaN	-3.065	1.391	9.533	1505.495	1503.297	1509.890	7.023	0.931	-11.740	-5.665	-0.459	8.574
259176.666	NaN	-3.065	1.402	9.522	1506.227	1503.297	1511.355	7.115	1.008	-11.893	-5.742	-0.306	8.421
259177.643	NaN	-3.065	1.402	9.511	1504.762	1504.029	1509.890	7.099	1.206	-11.710	-5.742	-0.459	8.498
259178.619	NaN	-3.076	1.402	9.511	1504.762	1504.029	1509.158	7.099	1.267	-11.557	-5.742	-0.459	8.498
259179.596	NaN	-3.065	1.402	9.511	1505.495	1503.297	1509.890	7.267	1.008	-11.542	-5.742	-0.459	8.574
259180.573	NaN	-3.065	1.413	9.489	1505.495	1503.297	1509.890	7.298	0.977	-11.435	-5.665	-0.383	8.421
259181.549	NaN	-3.054	1.413	9.511	1505.495	1504.029	1509.890	7.206	1.206	-11.466	-5.895	-0.383	8.498
259182.526	NaN	-3.054	1.424	9.511	1505.495	1504.762	1510.623	7.115	1.160	-11.527	-5.665	-0.536	8.498
259183.502	NaN	-3.065	1.424	9.511	1504.762	1504.762	1509.890	7.313	1.176	-11.527	-5.742	-0.536	8.574
259184.479	NaN	-3.076	1.424	9.511	1505.495	1503.297	1510.623	7.435	0.992	-11.649	-5.665	-0.306	8.574
259185.455	NaN	-3.065	1.424	9.522	1505.495	1504.029	1509.890	7.435	1.221	-11.557	-5.665	-0.536	8.651
259186.432	NaN	-3.065	1.424	9.522	1504.762	1504.029	1509.158	7.191	1.115	-11.664	-5.818	-0.459	8.421
259187.408	NaN	-3.065	1.424	9.522	1506.227	1503.297	1509.158	7.145	1.130	-11.802	-5.818	-0.383	8.574
259188.385	NaN	-3.054	1.435	9.543	1504.762	1503.297	1509.158	7.176	1.191	-11.740	-5.742	-0.459	8.421
259189.362	NaN	-3.076	1.424	9.533	1505.495	1504.762	1509.890	7.053	1.115	-11.542	-5.665	-0.459	8.498
259190.338	NaN	-3.076	1.424	9.543	1505.495	1504.762	1510.623	7.221	1.053	-11.557	-5.818	-0.383	8.498
259191.315	NaN	-3.076	1.424	9.533	1504.029	1504.029	1509.890	7.420	0.931	-11.573	-5.742	-0.383	8.498
259192.291	NaN	-3.076	1.424	9.522	1506.227	1502.564	1509.890	7.420	1.282	-11.496	-5.665	-0.536	8.421
259193.268	NaN	-3.076	1.424	9.533	1505.495	1503.297	1511.355	7.328	1.282	-11.557	-5.665	-0.383	8.574
259194.244	NaN	-3.065	1.435	9.533	1506.227	1504.029	1509.890	7.374	1.084	-11.664	-5.742	-0.383	8.421
259195.221	NaN	-3.065	1.435	9.533	1504.762	1504.029	1510.623	7.237	0.992	-11.588	-5.818	-0.383	8.421
259196.198	NaN	-3.054	1.424	9.533	1504.762	1503.297	1508.425	7.160	1.084	-11.588	-5.665	-0.459	8.421
259197.174	NaN	-3.065	1.424	9.522	1505.495	1504.029	1509.158	7.282	1.176	-11.695	-5.665	-0.383	8.421
259198.151	NaN	-3.054	1.424	9.522	1506.227	1503.297	1510.623	7.267	1.160	-11.725	-5.665	-0.306	8.498
259199.127	NaN	-3.054	1.424	9.522	1505.495	1504.762	1510.623	7.267	1.008	-11.649	-5.665	-0.306	8.574
259200.104	NaN	-3.065	1.424	9.511	1504.762	1503.297	1509.890	7.313	0.947	-11.649	-5.742	-0.383	8.421
259201.080	NaN	-3.043	1.424	9.533	1505.495	1503.297	1511.355	7.389	0.977	-11.542	-5.818	-0.459	8.421
259202.057	NaN	-3.065	1.424	9.522	1505.495	1504.029	1509.890	7.328	1.252	-11.435	-5.665	-0.459	8.344
259203.033	NaN	-3.065	1.413	9.522	1503.297	1504.029	1509.158	7.313	1.176	-11.435	-5.665	-0.383	8.498
259204.010	NaN	-3.054	1.435	9.522	1505.495	1504.762	1509.890	7.282	0.916	-11.389	-5.742	-0.536	8.498
259204.987	NaN	-3.054	1.402	9.522	1504.029	1504.029	1509.158	7.267	0.947	-11.496	-5.665	-0.459	8.421
259205.963	NaN	-3.054	1.413	9.533	1505.495	1503.297	1509.890	7.206	1.115	-11.786	-5.742	-0.383	8.498
259206.940	NaN	-3.076	1.402	9.522	1506.227	1503.297	1508.425	7.053	1.359	-11.664	-5.665	-0.383	8.421
259207.916	NaN	-3.065	1.413	9.522	1504.762	1503.297	1508.425	7.191	1.267	-11.496	-5.665	-0.383	8.498
259208.893	NaN	-3.054	1.402	9.511	1504.762	1503.297	1509.158	7.359	1.115	-11.481	-5.742	-0.383	8.421
259209.869	NaN	-3.054	1.424	9.511	1505.495	1504.029	1510.623	7.298	0.901	-11.405	-5.665	-0.383	8.421
259210.846	NaN	-3.065	1.413	9.522	1505.495	1504.029	1510.623	7.099	0.977	-11.267	-5.665	-0.536	8.574
259211.823	NaN	-3.076	1.413	9.533	1504.762	1503.297	1509.158	7.237	1.115	-11.588	-5.665	-0.383	8.498
259212.799	NaN	-3.065	1.424	9.543	1505.495	1503.297	1509.890	7.344	0.992	-11.695	-5.818	-0.306	8.421
259213.776	NaN	-3.065	1.424	9.533	1504.762	1503.297	1509.890	7.099	0.992	-11.771	-5.742	-0.459	8.498
259214.752	NaN	-3.054	1.424	9.533	1504.762	1503.297	1511.355	7.038	0.962	-11.664	-5.742	-0.383	8.498
259215.729	NaN	-3.054	1.413	9.522	1504.762	1504.029	1508.425	7.099	0.947	-11.649	-5.665	-0.536	8.574
259216.705	NaN	-3.065	1.402	9.522	1504.029	1503.297	1508.425	7.221	1.206	-11.527	-5.818	-0.459	8.421
259217.682	NaN	-3.065	1.413	9.511	1505.495	1503.297	1509.890	7.160	1.344	-11.450	-5.742	-0.383	8.498
259218.658	NaN	-3.065	1.391	9.511	1505.495	1503.297	1509.890	7.282	1.221	-11.298	-5.818	-0.459	8.421
259219.635	NaN	-3.054	1.402	9.511	1504.762	1503.297	1509.158	7.267	1.023	-11.435	-5.665	-0.306	8.498
259220.612	NaN	-3.065	1.402	9.500	1505.495	1504.029	1509.890	7.206	0.947	-11.542	-5.665	-0.383	8.344
259221.588	NaN	-3.065	1.391	9.500	1504.762	1503.297	1509.158	7.176	1.053	-11.603	-5.818	-0.383	8.498
259222.565	NaN	-3.054	1.391	9.522	1502.564	1503.297	1509.890	7.145	1.206	-11.481	-5.665	-0.383	8.574
259223.541	NaN	-3.054	1.402	9.533	1504.029	1504.029	1508.425	6.977	1.038	-11.435	-5.742	-0.383	8.421
259224.518	NaN	-3.065	1.402	9.522	1504.029	1504.762	1511.355	6.931	0.977	-11.389	-5.742	-0.459	8.574
259225.494	NaN	-3.065	1.424	9.522	1504.762	1502.564	1510.623	7.221	0.977	-11.374	-5.742	-0.459	8.651
259226.471	NaN	-3.054	1.424	9.511	1506.227	1503.297	1510.623	7.176	1.099	-11.389	-5.818	-0.459	8.421
259227.448	NaN	-3.065	1.424	9.511	1505.495	1504.762	1509.158	7.130	1.282	-11.496	-5.665	-0.383	8.498
259228.424	NaN	-3.054	1.413	9.511	1504.762	1503.297	1509.158	7.176	1.176	-11.511	-5.665	-0.383	8.421
259229.401	NaN	-3.054	1.424	9.511	1504.762	1504.029	1508.425	7.130	1.176	-11.588	-5.742	-0.536	8.574
259230.377	NaN	-3.065	1.413	9.511	1504.029	1503.297	1509.158	7.145	1.191	-11.466	-5.665	-0.459	8.421
259231.354	NaN	-3.054	1.424	9.511	1504.762	1504.029	1509.890	7.115	1.084	-11.359	-5.665	-0.383	8.498
259232.330	NaN	-3.076	1.413	9.500	1504.762	1503.297	1509.158	7.145	1.038	-11.557	-5.665	-0.383	8.498
259233.307	NaN	-3.076	1.424	9.500	1504.029	1502.564	1507.692	7.206	1.237	-11.740	-5.665	-0.383	8.498
259234.283	NaN	-3.076	1.413	9.500	1506.227	1503.297	1510.623	7.206	1.160	-11.588	-5.818	-0.383	8.421
259235.260	NaN	-3.076	1.402	9.500	1506.227	1503.297	1509.158	7.313	1.069	-11.466	-5.742	-0.383	8.498
259236.237	NaN	-3.065	1.413	9.511	1504.762	1503.297	1509.158	7.359	0.977	-11.588	-5.589	-0.383	8.421
259237.213	NaN	-3.065	1.402	9.489	1504.762	1503.297	1509.158	7.221	0.977	-11.405	-5.818	-0.383	8.574
259238.190	NaN	-3.065	1.402	9.489	1503.297	1503.297	1509.158	7.099	0.855	-11.405	-5.742	-0.383	8.421
259239.166	NaN	-3.065	1.413	9.500	1506.227	1504.029	1511.355	7.221	0.855	-11.420	-5.665	-0.536	8.498
259240.143	NaN	-3.076	1.402	9.511	1506.227	1502.564	1509.158	7.221	0.947	-11.557	-5.742	-0.383	8.574
259241.119	NaN	-3.065	1.402	9.511	1503.297	1503.297	1509.890	7.099	1.023	-11.496	-5.665	-0.459	8.421
259242.096	NaN	-3.054	1.402	9.522	1505.495	1503.297	1509.158	7.221	1.130	-11.573	-5.665	-0.383	8.421
259243.073	NaN	-3.065	1.391	9.511	1504.762	1503.297	1509.158	7.191	1.099	-11.374	-5.742	-0.306	8.574
259244.049	NaN	-3.054	1.402	9.522	1505.495	1504.029	1510.623	6.931	1.206	-11.298	-5.818	-0.383	8.574
259245.026	NaN	-3.054	1.413	9.511	1505.495	1504.029	1510.623	6.931	1.237	-11.420	-5.895	-0.459	8.344
259246.002	NaN	-3.054	1.402	9.522	1504.029	1504.029	1510.623	7.206	1.221	-11.359	-5.742	-0.459	8.344
259246.979	NaN	-3.054	1.413	9.511	1504.762	1503.297	1508.425	7.374	1.160	-11.267	-5.742	-0.459	8.421
259247.955	NaN	-3.054	1.424	9.511	1506.227	1504.029	1511.355	7.282	1.084	-11.099	-5.971	-0.383	8.268
259248.932	NaN	-3.065	1.413	9.500	1506.227	1503.297	1509.890	7.267	0.977	-11.405	-5.589	-0.536	8.421
259249.908	NaN	-3.065	1.402	9.511	1505.495	1503.297	1509.158	7.084	0.962	-11.496	-5.742	-0.383	8.498
259250.885	NaN	-3.065	1.424	9.500	1505.495	1503.297	1509.158	6.962	0.977	-11.466	-5.665	-0.459	8.498
259251.862	NaN	-3.065	1.424	9.511	1506.227	1503.297	1509.158	6.779	0.947	-11.389	-5.742	-0.459	8.421
259252.838	NaN	-3.054	1.424	9.533	1504.762	1504.029	1509.890	7.130	0.809	-11.221	-5.742	-0.383	8.344
259253.815	NaN	-3.054	1.424	9.522	1505.495	1504.029	1509.890	7.374	0.809	-11.282	-5.665	-0.459	8.421
259254.791	NaN	-3.065	1.413	9.511	1505.495	1503.297	1509.158	7.282	0.947	-11.435	-5.818	-0.383	8.344
259255.768	NaN	-3.076	1.413	9.500	1505.495	1504.029	1510.623	7.176	0.992	-11.359	-5.665	-0.459	8.498
259256.744	NaN	-3.065	1.424	9.500	1506.227	1504.029	1509.890	7.053	1.145	-11.130	-5.742	-0.306	8.498
259257.721	NaN	-3.065	1.413	9.500	1506.227	1503.297	1509.890	7.160	1.069	-11.282	-5.895	-0.459	8.421
259258.698	NaN	-3.054	1.424	9.511	1504.762	1504.029	1510.623	7.298	0.962	-11.450	-5.818	-0.536	8.498
259259.674	NaN	-3.054	1.413	9.522	1505.495	1504.029	1509.158	7.115	0.855	-11.405	-5.895	-0.459	8.421
259260.651	NaN	-3.054	1.402	9.522	1505.495	1503.297	1509.158	6.916	0.763	-11.466	-5.742	-0.459	8.498
259261.627	NaN	-3.054	1.413	9.533	1505.495	1504.762	1509.890	7.069	0.931	-11.496	-5.665	-0.459	8.574
259262.604	NaN	-3.054	1.424	9.543	1506.227	1504.029	1509.890	7.298	0.977	-11.405	-5.665	-0.536	8.344
259263.580	NaN	-3.054	1.413	9.543	1505.495	1504.029	1509.890	7.237	0.992	-11.206	-5.742	-0.383	8.498
259264.557	NaN	-3.054	1.402	9.543	1505.495	1504.029	1510.623	7.191	1.038	-11.053	-5.818	-0.459	8.498
259265.533	NaN	-3.054	1.402	9.533	1505.495	1504.029	1511.355	6.992	1.115	-10.992	-5.818	-0.536	8.421
259266.510	NaN	-3.065	1.413	9.533	1504.762	1504.029	1509.890	7.084	0.977	-11.160	-5.742	-0.383	8.498
259267.487	NaN	-3.065	1.402	9.533	1505.495	1504.762	1509.158	7.328	1.008	-11.435	-5.742	-0.536	8.498
259268.463	NaN	-3.065	1.402	9.533	1505.495	1504.029	1509.890	7.420	1.038	-11.389	-5.665	-0.383	8.421
259269.440	NaN	-3.065	1.402	9.522	1504.762	1504.029	1510.623	7.099	0.885	-11.450	-5.742	-0.383	8.421
259270.416	NaN	-3.054	1.391	9.533	1504.762	1504.762	1510.623	6.824	0.840	-11.344	-5.665	-0.459	8.421
259271.393	NaN	-3.076	1.380	9.522	1505.495	1503.297	1508.425	7.008	0.855	-11.237	-5.742	-0.383	8.344
259272.369	NaN	-3.043	1.402	9.543	1504.762	1503.297	1509.158	7.206	0.962	-11.359	-5.665	-0.459	8.498
259273.346	NaN	-3.054	1.402	9.533	1504.762	1504.029	1510.623	7.069	0.916	-11.481	-5.589	-0.459	8.421
259274.323	NaN	-3.065	1.413	9.533	1505.495	1504.762	1509.890	6.855	0.870	-11.130	-5.665	-0.459	8.344
259275.299	NaN	-3.065	1.402	9.533	1506.227	1503.297	1511.355	6.947	0.840	-11.069	-5.742	-0.383	8.421
259276.276	NaN	-3.065	1.413	9.511	1504.762	1504.762	1509.890	7.115	0.962	-11.145	-5.665	-0.383	8.421
259277.252	NaN	-3.065	1.413	9.500	1505.495	1503.297	1510.623	7.053	1.099	-11.435	-5.818	-0.383	8.421
259278.229	NaN	-3.065	1.413	9.489	1504.029	1503.297	1509.890	7.435	1.160	-11.389	-5.665	-0.459	8.421
259279.205	NaN	-3.065	1.424	9.500	1505.495	1503.297	1510.623	7.176	0.962	-11.160	-5.742	-0.536	8.574
259280.182	NaN	-3.076	1.424	9.500	1504.762	1504.029	1508.425	6.855	0.901	-11.145	-5.742	-0.536	8.651
259281.158	NaN	-3.076	1.424	9.500	1505.495	1503.297	1509.890	6.718	1.084	-11.145	-5.742	-0.536	8.574
259282.135	NaN	-3.065	1.424	9.511	1505.495	1504.029	1509.158	6.855	0.794	-11.160	-5.742	-0.459	8.268
259283.112	NaN	-3.076	1.413	9.511	1506.227	1504.029	1509.890	6.947	0.779	-11.267	-5.818	-0.459	8.421
259284.088	NaN	-3.076	1.413	9.511	1505.495	1504.029	1510.623	6.916	0.962	-11.298	-5.818	-0.536	8.344
259285.065	NaN	-3.065	1.402	9.511	1504.029	1503.297	1509.890	6.962	0.901	-11.344	-5.895	-0.306	8.498
259286.041	NaN	-3.065	1.413	9.522	1504.029	1503.297	1509.158	7.008	0.855	-11.267	-5.742	-0.459	8.498
259287.018	NaN	-3.065	1.413	9.522	1504.762	1504.029	1509.890	6.992	0.794	-11.176	-5.742	-0.536	8.574
259287.994	NaN	-3.076	1.424	9.522	1504.762	1503.297	1509.158	6.763	0.824	-11.252	-5.742	-0.459	8.498
259288.971	NaN	-3.065	1.424	9.511	1504.762	1502.564	1508.425	6.916	0.947	-11.328	-5.818	-0.459	8.498
259289.948	NaN	-3.065	1.424	9.511	1505.495	1503.297	1509.890	7.115	1.053	-11.374	-5.818	-0.230	8.498
259290.924	NaN	-3.065	1.435	9.500	1505.495	1504.029	1509.890	7.069	0.992	-11.481	-5.665	-0.459	8.421
259291.901	NaN	-3.065	1.424	9.500	1505.495	1504.029	1508.425	6.962	0.916	-11.389	-5.589	-0.459	8.421
259292.877	NaN	-3.065	1.424	9.511	1504.029	1503.297	1509.890	6.870	0.855	-11.160	-5.665	-0.536	8.498
259293.854	NaN	-3.054	1.446	9.511	1504.762	1504.029	1509.890	7.008	0.870	-11.053	-5.742	-0.459	8.421
259294.830	NaN	-3.054	1.424	9.511	1505.495	1503.297	1510.623	7.130	0.794	-11.115	-5.818	-0.383	8.498
259295.807	NaN	-3.065	1.413	9.522	1504.029	1503.297	1509.890	6.916	0.840	-11.298	-5.742	-0.459	8.574
259296.783	NaN	-3.065	1.413	9.511	1505.495	1504.029	1510.623	6.947	0.931	-11.328	-5.665	-0.459	8.421
259297.760	NaN	-3.054	1.413	9.500	1505.495	1503.297	1509.158	6.977	0.916	-11.344	-5.665	-0.383	8.421
259298.737	NaN	-3.065	1.424	9.500	1503.297	1502.564	1508.425	7.008	0.809	-11.206	-5.665	-0.459	8.651
259299.713	NaN	-3.054	1.435	9.489	1504.762	1504.029	1509.890	6.916	0.733	-11.282	-5.742	-0.612	8.498
259300.690	NaN	-3.054	1.446	9.500	1504.029	1503.297	1509.158	6.901	0.718	-11.359	-5.818	-0.383	8.421
259301.666	NaN	-3.065	1.435	9.500	1506.227	1504.029	1512.088	6.977	0.809	-11.405	-5.742	-0.383	8.421
259302.643	NaN	-3.065	1.424	9.489	1504.762	1503.297	1509.158	7.191	0.870	-11.282	-5.742	-0.536	8.498
259303.619	NaN	-3.054	1.424	9.500	1504.762	1504.029	1511.355	7.191	0.809	-11.221	-5.742	-0.536	8.574
259304.596	NaN	-3.076	1.413	9.511	1504.029	1503.297	1508.425	7.099	0.931	-11.267	-5.818	-0.459	8.421
259305.573	NaN	-3.065	1.402	9.511	1504.762	1503.297	1509.158	7.038	0.962	-11.145	-5.742	-0.383	8.421
259306.549	NaN	-3.054	1.413	9.522	1505.495	1504.029	1509.890	7.023	1.038	-11.099	-5.742	-0.383	8.421
259307.526	NaN	-3.054	1.413	9.500	1505.495	1504.029	1508.425	6.840	0.870	-11.115	-5.895	-0.459	8.498
259308.502	NaN	-3.054	1.402	9.511	1504.029	1502.564	1509.158	6.626	0.702	-11.221	-5.589	-0.459	8.421
259309.479	NaN	-3.054	1.413	9.522	1504.762	1503.297	1509.890	7.053	0.534	-11.191	-5.742	-0.383	8.498
259310.455	NaN	-3.043	1.413	9.522	1504.029	1502.564	1509.890	7.252	0.427	-11.221	-5.665	-0.383	8.498
259311.432	NaN	-3.054	1.413	9.533	1504.762	1502.564	1509.158	7.466	0.611	-11.328	-5.665	-0.306	8.421
259312.408	NaN	-3.054	1.413	9.533	1505.495	1502.564	1509.890	7.252	0.870	-11.389	-5.665	-0.383	8.344
259313.385	NaN	-3.054	1.413	9.533	1505.495	1504.762	1509.890	7.023	1.069	-11.405	-5.742	-0.459	8.344
259314.362	NaN	-3.076	1.402	9.533	1504.762	1504.029	1510.623	6.947	1.115	-11.267	-5.818	-0.383	8.421
259315.338	NaN	-3.065	1.424	9.533	1506.227	1504.029	1509.158	6.916	1.008	-11.267	-5.665	-0.536	8.344
259316.315	NaN	-3.065	1.424	9.522	1504.029	1504.029	1509.890	6.962	1.008	-11.282	-5.589	-0.536	8.498
259317.291	NaN	-3.065	1.424	9.522	1505.495	1504.029	1509.890	7.038	0.947	-11.115	-5.742	-0.383	8.421
259318.268	NaN	-3.076	1.424	9.511	1504.762	1503.297	1507.692	7.023	0.702	-11.160	-5.742	-0.536	8.421
259319.244	NaN	-3.054	1.435	9.500	1506.960	1503.297	1509.890	6.870	0.687	-11.145	-5.742	-0.689	8.421
259320.221	NaN	-3.065	1.413	9.489	1504.762	1503.297	1509.890	6.947	0.885	-11.115	-5.665	-0.536	8.344
259321.198	NaN	-3.054	1.424	9.489	1504.762	1501.832	1509.158	7.084	0.824	-11.053	-5.742	-0.306	8.344
259322.174	NaN	-3.054	1.424	9.500	1504.029	1503.297	1510.623	7.145	0.763	-11.389	-5.818	-0.459	8.574
259323.151	NaN	-3.065	1.413	9.489	1506.227	1503.297	1509.158	6.947	0.901	-11.466	-5.742	-0.459	8.498
259324.127	NaN	-3.065	1.413	9.489	1505.495	1504.029	1509.890	6.901	1.053	-11.221	-5.665	-0.459	8.344
259325.104	NaN	-3.065	1.413	9.500	1505.495	1503.297	1509.890	6.947	0.962	-10.992	-5.435	-0.536	8.498
259326.080	3736848705.120	-3.054	1.424	9.511	1505.495	1503.297	1509.158	6.885	0.855	-11.053	-5.742	-0.306	8.344
259327.057	NaN	-3.054	1.424	9.511	1504.029	1504.029	1508.425	6.687	1.008	-11.130	-5.742	-0.306	8.421
259328.033	NaN	-3.065	1.424	9.511	1504.762	1503.297	1511.355	6.611	1.038	-11.206	-5.818	-0.459	8.498
259329.010	NaN	-3.065	1.424	9.500	1504.762	1504.029	1509.158	6.733	0.870	-11.053	-5.665	-0.383	8.344
259329.987	NaN	-3.065	1.413	9.511	1504.762	1504.029	1509.890	7.160	0.641	-10.962	-5.742	-0.383	8.498
259330.963	NaN	-3.076	1.413	9.511	1504.762	1503.297	1509.890	7.282	0.626	-11.160	-5.742	-0.459	8.498
259331.940	NaN	-3.087	1.402	9.500	1504.029	1503.297	1509.890	7.176	0.687	-11.282	-5.742	-0.383	8.574
259332.916	NaN	-3.054	1.424	9.511	1505.495	1504.029	1509.158	7.145	0.885	-11.191	-5.742	-0.459	8.498
259333.893	NaN	-3.065	1.424	9.511	1504.762	1503.297	1509.158	6.824	0.840	-11.084	-5.742	-0.459	8.498
259334.869	NaN	-3.065	1.424	9.522	1504.762	1504.029	1509.158	6.824	0.702	-11.176	-5.895	-0.536	8.574
259335.846	NaN	-3.065	1.402	9.511	1505.495	1504.029	1509.158	6.870	0.763	-11.145	-5.665	-0.383	8.268
259336.823	NaN	-3.054	1.413	9.511	1504.762	1503.297	1509.158	6.870	0.718	-10.992	-5.742	-0.306	8.421
259337.799	NaN	-3.054	1.413	9.511	1505.495	1504.029	1511.355	6.840	0.672	-10.962	-5.742	-0.459	8.421
259338.776	NaN	-3.065	1.424	9.500	1506.227	1503.297	1510.623	6.748	0.870	-11.221	-5.589	-0.306	8.498
259339.752	NaN	-3.065	1.424	9.500	1505.495	1503.297	1510.623	6.840	0.885	-11.282	-5.742	-0.459	8.421
259340.729	NaN	-3.076	1.424	9.500	1504.029	1503.297	1509.158	6.947	0.687	-11.221	-5.742	-0.383	8.498
259341.705	NaN	-3.065	1.424	9.500	1505.495	1504.762	1509.158	6.824	0.626	-11.069	-5.742	-0.306	8.498
259342.682	NaN	-3.065	1.424	9.489	1504.762	1504.029	1509.158	6.885	0.718	-11.221	-5.665	-0.383	8.344
259343.658	NaN	-3.065	1.413	9.500	1505.495	1503.297	1509.158	6.962	0.748	-11.344	-5.818	-0.383	8.344
259344.635	NaN	-3.065	1.413	9.500	1504.762	1504.029	1510.623	7.115	0.824	-11.221	-5.818	-0.459	8.421
259345.612	NaN	-3.076	1.413	9.500	1505.495	1504.029	1509.890	7.038	0.763	-11.084	-5.742	-0.383	8.344
259346.588	NaN	-3.054	1.435	9.500	1506.960	1503.297	1512.088	6.824	0.779	-11.023	-5.742	-0.536	8.498
259347.565	NaN	-3.065	1.424	9.500	1504.762	1504.029	1509.890	7.069	0.687	-11.145	-5.818	-0.459	8.421
259348.541	NaN	-3.076	1.424	9.500	1505.495	1503.297	1510.623	7.328	0.672	-11.069	-5.742	-0.536	9.799
259349.518	NaN	-3.087	1.413	9.511	1504.762	1502.564	1509.890	7.145	0.641	-10.947	-5.818	-0.459	8.498
259350.494	NaN	-3.065	1.424	9.511	1505.495	1504.029	1510.623	6.931	0.702	-10.992	-5.665	-0.383	8.498
259351.471	NaN	-3.054	1.424	9.522	1505.495	1504.029	1510.623	6.718	0.748	-10.901	-5.665	-0.383	8.421
259352.448	NaN	-3.054	1.424	9.522	1503.297	1504.029	1509.890	6.718	0.656	-10.855	-5.742	-0.459	8.574
259353.424	NaN	-3.065	1.413	9.533	1506.227	1503.297	1509.158	6.840	0.641	-11.038	-5.665	-0.612	8.421
259354.401	NaN	-3.076	1.413	9.522	1506.227	1503.297	1509.890	7.008	0.733	-11.237	-5.818	-0.383	8.344
259355.377	NaN	-3.076	1.413	9.522	1506.227	1504.762	1510.623	7.038	0.794	-11.191	-5.665	-0.459	8.344
259356.354	NaN	-3.065	1.413	9.533	1505.495	1504.029	1511.355	6.977	0.840	-11.282	-5.665	-0.459	8.421
259357.330	NaN	-3.065	1.413	9.533	1505.495	1503.297	1510.623	6.855	0.672	-11.099	-5.818	-0.536	8.498
259358.307	NaN	-3.076	1.413	9.533	1503.297	1503.297	1508.425	7.069	0.565	-10.901	-5.589	-0.383	8.498
259359.283	NaN	-3.076	1.424	9.543	1505.495	1503.297	1508.425	6.992	0.748	-11.053	-5.818	-0.536	8.421
259360.260	NaN	-3.065	1.413	9.533	1505.495	1503.297	1510.623	6.977	0.687	-11.099	-5.742	-0.459	8.498
259361.237	NaN	-3.076	1.413	9.533	1504.029	1503.297	1509.890	6.885	0.687	-11.053	-5.818	-0.306	8.498
259362.213	NaN	-3.087	1.413	9.511	1504.762	1503.297	1509.158	6.779	0.794	-10.977	-5.665	-0.383	8.651
259363.190	NaN	-3.076	1.413	9.500	1505.495	1503.297	1509.890	7.008	0.763	-11.023	-5.742	-0.459	8.498
259364.166	NaN	-3.076	1.413	9.511	1505.495	1504.029	1511.355	6.901	0.763	-11.069	-5.665	-0.383	8.421
259365.143	NaN	-3.076	1.413	9.511	1505.495	1504.762	1511.355	6.809	0.718	-11.267	-5.665	-0.536	8.498
259366.119	NaN	-3.076	1.413	9.500	1505.495	1504.762	1509.890	6.885	0.962	-11.252	-5.742	-0.383	8.268
259367.096	NaN	-3.065	1.413	9.500	1503.297	1503.297	1511.355	6.947	0.885	-10.992	-5.818	-0.383	8.498
259368.073	NaN	-3.065	1.413	9.511	1506.227	1504.029	1510.623	6.992	0.763	-10.794	-5.665	-0.536	8.421
259369.049	NaN	-3.065	1.413	9.522	1504.762	1503.297	1512.088	6.992	0.641	-10.931	-5.589	-0.459	8.421
259370.026	NaN	-3.054	1.424	9.522	1504.762	1504.762	1511.355	7.008	0.687	-11.130	-5.742	-0.383	8.498
259371.002	NaN	-3.054	1.424	9.522	1504.029	1504.029	1509.158	7.038	0.794	-11.206	-5.818	-0.306	8.421
259371.979	NaN	-3.065	1.424	9.500	1505.495	1503.297	1509.890	7.023	0.748	-11.115	-5.742	-0.459	8.421
259372.955	NaN	-3.054	1.424	9.511	1505.495	1504.029	1511.355	6.870	0.626	-10.962	-5.665	-0.383	8.421
259373.932	NaN	-3.065	1.424	9.500	1506.227	1504.029	1510.623	6.809	0.733	-10.962	-5.742	-0.306	8.574
259374.908	NaN	-3.065	1.413	9.500	1504.762	1503.297	1509.890	6.947	0.626	-11.099	-5.818	-0.459	8.498
259375.885	NaN	-3.076	1.424	9.489	1505.495	1503.297	1509.158	7.053	0.550	-11.084	-5.742	-0.306	8.498
259376.862	NaN	-3.076	1.424	9.489	1505.495	1502.564	1508.425	6.885	0.595	-11.130	-5.665	-0.459	8.498
259377.838	NaN	-3.065	1.435	9.500	1505.495	1503.297	1509.890	6.733	0.870	-11.038	-5.742	-0.383	8.344
259378.815	NaN	-3.065	1.435	9.511	1504.762	1504.029	1510.623	6.824	0.885	-11.023	-5.742	-0.536	8.421
259379.791	NaN	-3.076	1.435	9.522	1505.495	1504.762	1510.623	6.992	0.870	-10.870	-5.742	-0.459	8.344
259380.768	NaN	-3.076	1.424	9.522	1505.495	1504.029	1509.890	6.855	0.763	-10.763	-5.742	-0.459	8.344
259381.744	NaN	-3.065	1.424	9.522	1506.960	1504.029	1509.158	6.611	0.611	-11.008	-5.818	-0.383	8.421
259382.721	NaN	-3.065	1.424	9.533	1506.227	1504.029	1510.623	6.641	0.656	-11.267	-5.818	-0.459	8.421
259383.698	NaN	-3.076	1.424	9.522	1506.227	1504.029	1509.890	6.733	0.672	-11.145	-5.665	-0.536	8.421
259384.674	NaN	-3.065	1.413	9.522	1505.495	1503.297	1510.623	6.733	0.855	-10.809	-5.742	-0.383	8.498
259385.651	NaN	-3.065	1.413	9.511	1506.227	1503.297	1509.890	6.794	0.748	-10.656	-5.742	-0.536	8.498
259386.627	NaN	-3.065	1.413	9.511	1506.227	1503.297	1510.623	6.947	0.702	-10.885	-5.742	-0.306	8.421
259387.604	NaN	-3.076	1.424	9.511	1506.227	1503.297	1511.355	6.962	0.779	-11.145	-5.818	-0.383	8.498
259388.580	NaN	-3.076	1.424	9.511	1505.495	1503.297	1510.623	6.901	0.931	-11.115	-5.665	-0.459	8.344
259389.557	NaN	-3.076	1.413	9.511	1505.495	1504.029	1511.355	6.840	0.763	-10.901	-5.818	-0.306	8.344
259390.533	NaN	-3.076	1.424	9.511	1505.495	1504.029	1509.890	6.809	0.763	-10.885	-5.818	-0.459	8.344
259391.510	NaN	-3.065	1.424	9.511	1505.495	1504.762	1509.890	6.824	0.901	-11.069	-5.742	-0.306	8.498
259392.487	NaN	-3.065	1.424	9.511	1506.227	1503.297	1511.355	6.992	0.733	-11.191	-5.742	-0.459	8.498
259393.463	NaN	-3.054	1.424	9.522	1505.495	1504.029	1509.158	7.038	0.595	-11.160	-5.818	-0.459	8.344
259394.440	NaN	-3.065	1.402	9.522	1504.762	1503.297	1509.890	6.885	0.672	-11.084	-5.665	-0.536	8.498
259395.416	NaN	-3.054	1.402	9.533	1506.227	1502.564	1509.890	6.855	0.840	-11.008	-5.818	-0.536	8.498
259396.393	NaN	-3.065	1.391	9.511	1505.495	1502.564	1513.553	6.840	0.779	-10.916	-5.665	-0.536	8.344
259397.369	NaN	-3.065	1.402	9.511	1504.029	1503.297	1508.425	6.916	0.779	-10.870	-5.742	-0.459	8.651
259398.346	NaN	-3.065	1.391	9.511	1504.762	1504.029	1509.158	6.901	0.809	-10.794	-5.742	-0.459	8.268
259399.323	NaN	-3.065	1.391	9.511	1504.762	1504.029	1509.890	6.931	0.733	-11.038	-5.742	-0.459	8.421
259400.299	NaN	-3.054	1.402	9.511	1505.495	1504.029	1509.890	6.809	0.840	-11.069	-5.742	-0.536	8.498
259401.276	NaN	-3.065	1.413	9.511	1506.227	1504.029	1510.623	6.763	1.023	-10.824	-5.665	-0.536	8.344
259402.252	NaN	-3.065	1.424	9.511	1504.762	1503.297	1510.623	6.870	0.916	-10.763	-5.818	-0.383	8.727
259403.229	NaN	-3.076	1.413	9.511	1504.762	1503.297	1509.158	7.008	0.763	-10.840	-5.818	-0.536	8.574
259404.205	NaN	-3.065	1.424	9.522	1504.762	1504.029	1511.355	6.901	0.702	-11.069	-5.742	-0.536	8.421
259405.182	NaN	-3.065	1.424	9.522	1505.495	1503.297	1509.158	6.901	0.748	-10.840	-5.818	-0.383	8.421
259406.158	NaN	-3.054	1.446	9.543	1504.762	1503.297	1509.158	6.748	0.672	-10.672	-5.665	-0.459	8.574
259407.135	NaN	-3.054	1.435	9.533	1504.762	1504.029	1510.623	6.702	0.779	-10.748	-5.742	-0.459	8.421
259408.112	NaN	-3.065	1.424	9.522	1504.762	1503.297	1508.425	6.901	0.687	-11.023	-5.742	-0.459	8.574
259409.088	NaN	-3.054	1.424	9.522	1504.762	1504.029	1510.623	6.855	0.763	-11.084	-5.742	-0.306	8.344
259410.065	NaN	-3.065	1.424	9.511	1504.762	1504.029	1509.158	6.702	0.733	-10.916	-5.742	-0.383	8.421
259411.041	NaN	-3.054	1.413	9.500	1505.495	1503.297	1509.890	6.748	0.855	-10.794	-5.818	-0.383	8.344
259412.018	NaN	-3.054	1.424	9.500	1505.495	1504.029	1509.158	6.779	0.870	-10.809	-5.742	-0.306	8.421
259412.994	NaN	-3.054	1.424	9.500	1502.564	1503.297	1509.158	6.656	0.718	-10.962	-5.818	-0.383	8.574
259413.971	NaN	-3.043	1.435	9.511	1504.029	1502.564	1510.623	6.947	0.763	-10.977	-5.665	-0.536	8.268
259414.948	NaN	-3.054	1.424	9.511	1506.227	1503.297	1511.355	7.008	0.733	-10.962	-5.665	-0.459	8.421
259415.924	NaN	-3.054	1.413	9.511	1504.029	1504.029	1509.158	6.977	0.824	-10.962	-5.818	-0.459	8.421
259416.901	NaN	-3.065	1.413	9.511	1505.495	1503.297	1509.890	6.733	0.702	-11.084	-5.895	-0.459	8.498
259417.877	NaN	-3.065	1.402	9.511	1505.495	1502.564	1509.158	6.580	0.687	-11.084	-5.665	-0.383	8.498
259418.854	NaN	-3.065	1.413	9.522	1504.029	1502.564	1509.158	6.855	0.626	-10.840	-5.818	-0.383	8.574
259419.830	NaN	-3.054	1.424	9.533	1504.762	1503.297	1510.623	6.794	0.656	-10.580	-5.665	-0.230	8.344
259420.807	NaN	-3.076	1.424	9.522	1506.227	1502.564	1509.890	6.611	0.718	-10.626	-5.665	-0.383	8.421
259421.783	NaN	-3.065	1.424	9.522	1504.762	1503.297	1509.158	6.748	0.855	-10.840	-5.742	-0.459	8.344
259422.760	NaN	-3.054	1.435	9.522	1504.762	1504.029	1509.158	6.809	0.901	-11.023	-5.895	-0.459	8.421
259423.737	NaN	-3.043	1.424	9.543	1506.227	1503.297	1509.890	6.733	0.840	-10.962	-5.589	-0.306	8.498
259424.713	NaN	-3.065	1.424	9.533	1505.495	1504.029	1510.623	6.565	0.748	-10.809	-5.742	-0.459	8.498
259425.690	NaN	-3.076	1.402	9.533	1504.762	1503.297	1509.890	6.641	0.779	-10.748	-5.895	-0.383	8.421
259426.666	NaN	-3.054	1.424	9.543	1504.762	1504.029	1510.623	6.794	0.809	-10.855	-5.742	-0.612	8.421
259427.643	NaN	-3.065	1.402	9.522	1504.762	1503.297	1509.890	6.931	0.916	-10.916	-5.895	-0.383	8.421
259428.619	NaN	-3.076	1.391	9.522	1504.762	1503.297	1509.890	6.687	0.931	-10.855	-5.742	-0.459	8.498
259429.596	NaN	-3.076	1.402	9.522	1504.762	1504.029	1509.158	6.458	0.672	-10.733	-5.589	-0.459	8.498
259430.573	NaN	-3.076	1.402	9.522	1504.029	1503.297	1508.425	6.473	0.580	-10.641	-5.742	-0.459	8.498
259431.549	NaN	-3.065	1.402	9.522	1504.762	1504.029	1509.158	6.473	0.687	-10.611	-5.665	-0.306	8.421
259432.526	NaN	-3.076	1.413	9.522	1504.029	1503.297	1509.158	6.550	0.626	-10.870	-5.742	-0.383	8.574
259433.502	NaN	-3.076	1.413	9.522	1504.029	1502.564	1508.425	6.794	0.748	-10.947	-5.818	-0.459	8.421
259434.479	NaN	-3.076	1.424	9.511	1506.227	1502.564	1509.890	6.870	1.053	-10.931	-5.742	-0.459	8.498
259435.455	NaN	-3.087	1.424	9.500	1505.495	1503.297	1509.158	6.901	1.008	-10.916	-5.818	-0.306	8.498
259436.432	NaN	-3.065	1.424	9.511	1504.029	1504.029	1510.623	6.809	0.870	-10.916	-5.742	-0.459	8.421
259437.408	NaN	-3.054	1.424	9.511	1504.029	1504.762	1511.355	6.962	0.809	-10.809	-5.742	-0.612	8.344
259438.385	NaN	-3.065	1.413	9.511	1505.495	1504.029	1509.158	6.885	0.901	-10.824	-5.665	-0.459	8.574
259439.362	NaN	-3.065	1.413	9.511	1504.762	1502.564	1510.623	6.519	0.931	-10.931	-5.818	-0.383	8.344
259440.338	NaN	-3.043	1.424	9.511	1506.227	1504.762	1509.158	6.580	0.931	-11.008	-5.742	-0.383	8.498
259441.315	NaN	-3.043	1.413	9.522	1505.495	1503.297	1508.425	6.580	0.901	-10.779	-5.742	-0.383	8.421
259442.291	NaN	-3.043	1.424	9.522	1504.029	1501.832	1509.158	6.702	0.763	-10.534	-5.742	-0.383	8.498
259443.268	NaN	-3.054	1.424	9.511	1505.495	1503.297	1510.623	6.611	0.702	-10.672	-5.665	-0.459	8.421
259444.244	NaN	-3.043	1.413	9.511	1507.692	1504.762	1510.623	6.733	0.824	-10.733	-5.665	-0.459	8.421
259445.221	NaN	-3.054	1.424	9.522	1505.495	1503.297	1510.623	6.779	0.794	-10.885	-5.742	-0.459	8.574
259446.198	NaN	-3.054	1.424	9.511	1504.029	1504.029	1510.623	6.504	0.656	-10.901	-5.665	-0.459	8.344
259447.174	NaN	-3.065	1.413	9.511	1504.762	1503.297	1510.623	6.626	0.718	-10.855	-5.818	-0.459	8.498
259448.151	NaN	-3.065	1.413	9.511	1505.495	1503.297	1509.890	6.534	0.962	-10.718	-5.742	-0.459	8.421
259449.127	NaN	-3.054	1.413	9.522	1505.495	1504.029	1509.890	6.427	0.916	-10.580	-5.895	-0.459	8.421
259450.104	3736848705.277	-3.065	1.413	9.533	1505.495	1504.029	1509.158	6.672	0.947	-10.611	-5.742	-0.306	8.498
259451.080	NaN	-3.065	1.413	9.533	1505.495	1503.297	1509.890	6.763	0.962	-10.794	-5.665	-0.536	8.344
259452.057	NaN	-3.065	1.413	9.533	1504.762	1503.297	1511.355	6.550	0.779	-10.885	-5.742	-0.536	8.344
259453.033	NaN	-3.076	1.413	9.522	1506.227	1504.029	1511.355	6.519	0.656	-10.840	-5.742	-0.536	8.498
259454.010	NaN	-3.065	1.424	9.522	1505.495	1504.762	1509.890	6.580	0.626	-10.855	-5.818	-0.383	8.498
259454.987	NaN	-3.065	1.402	9.522	1504.762	1504.029	1509.890	6.733	0.809	-10.763	-5.742	-0.536	8.498
259455.963	NaN	-3.065	1.402	9.533	1504.762	1503.297	1509.158	6.656	0.992	-10.718	-5.742	-0.459	8.574
259456.940	NaN	-3.054	1.402	9.533	1505.495	1503.297	1509.890	6.382	1.008	-10.656	-5.742	-0.612	8.498
259457.916	NaN	-3.065	1.402	9.533	1506.227	1504.029	1510.623	6.412	0.855	-10.870	-5.895	-0.459	8.344
259458.893	NaN	-3.065	1.413	9.522	1504.762	1504.762	1509.890	6.336	0.718	-10.870	-5.742	-0.383	8.421
259459.869	NaN	-3.065	1.413	9.522	1504.762	1504.029	1509.158	6.519	0.718	-10.916	-5.818	-0.459	8.498
259460.846	NaN	-3.076	1.402	9.522	1505.495	1503.297	1509.158	6.687	0.687	-10.885	-5.818	-0.383	8.498
259461.823	NaN	-3.065	1.413	9.511	1505.495	1504.029	1510.623	6.489	0.687	-10.718	-5.665	-0.536	8.421
259462.799	NaN	-3.054	1.424	9.511	1505.495	1504.029	1510.623	6.382	0.931	-10.519	-5.665	-0.536	8.421
259463.776	NaN	-3.065	1.424	9.511	1505.495	1504.029	1509.158	6.443	0.901	-10.412	-5.665	-0.536	8.498
259464.752	NaN	-3.065	1.413	9.511	1505.495	1503.297	1509.158	6.534	0.855	-10.519	-5.742	-0.459	8.498
259465.729	NaN	-3.076	1.413	9.511	1504.762	1503.297	1509.158	6.748	0.748	-10.656	-5.589	-0.459	8.421
259466.705	NaN	-3.065	1.413	9.511	1505.495	1504.029	1509.158	6.779	0.794	-10.794	-5.665	-0.383	8.421
259467.682	NaN	-3.054	1.424	9.511	1505.495	1504.029	1509.158	6.733	0.779	-10.763	-5.742	-0.383	8.344
259468.658	NaN	-3.065	1.413	9.522	1504.762	1503.297	1509.890	6.718	0.779	-10.641	-5.742	-0.536	8.498
259469.635	NaN	-3.065	1.424	9.511	1505.495	1503.297	1509.158	6.733	0.687	-10.611	-5.818	-0.306	8.498
259470.612	NaN	-3.087	1.424	9.511	1504.762	1502.564	1508.425	6.794	0.672	-10.656	-5.742	-0.383	8.498
259471.588	NaN	-3.076	1.424	9.522	1506.227	1503.297	1509.890	6.809	1.023	-10.687	-5.818	-0.459	8.498
259472.565	NaN	-3.087	1.424	9.522	1504.762	1504.029	1512.088	6.580	0.977	-10.473	-5.665	-0.459	8.421
259473.541	NaN	-3.065	1.413	9.533	1504.762	1504.029	1510.623	6.336	0.840	-10.397	-5.589	-0.306	8.344
259474.518	NaN	-3.076	1.413	9.543	1505.495	1503.297	1509.158	6.519	0.733	-10.565	-5.665	-0.383	8.421
259475.494	NaN	-3.065	1.424	9.543	1506.227	1503.297	1509.890	6.427	0.870	-10.809	-5.742	-0.459	8.421
259476.471	NaN	-3.065	1.424	9.543	1505.495	1503.297	1510.623	6.443	0.870	-10.763	-5.818	-0.306	8.498
259477.448	NaN	-3.065	1.424	9.533	1505.495	1504.029	1510.623	6.153	0.779	-10.794	-5.818	-0.383	8.498
259478.424	NaN	-3.076	1.424	9.522	1504.762	1503.297	1508.425	6.275	0.779	-10.748	-5.818	-0.383	8.498
259479.401	NaN	-3.076	1.424	9.511	1506.227	1503.297	1509.158	6.397	0.947	-10.626	-5.665	-0.383	8.421
259480.377	NaN	-3.054	1.424	9.522	1506.227	1503.297	1511.355	6.565	0.962	-10.489	-5.742	-0.383	8.498
259481.354	NaN	-3.054	1.435	9.522	1504.762	1504.029	1510.623	6.702	0.916	-10.504	-5.665	-0.383	8.421
259482.330	NaN	-3.054	1.435	9.511	1504.762	1503.297	1509.890	6.595	0.840	-10.458	-5.665	-0.306	8.574
259483.307	NaN	-3.043	1.424	9.543	1505.495	1504.029	1509.890	6.412	0.809	-10.443	-5.665	-0.383	8.344
259484.283	NaN	-3.054	1.424	9.554	1506.227	1504.029	1509.158	6.351	0.763	-10.733	-5.818	-0.459	8.421
259485.260	NaN	-3.043	1.424	9.543	1505.495	1503.297	1509.158	6.473	0.748	-10.916	-5.589	-0.383	8.498
259486.237	NaN	-3.054	1.424	9.533	1505.495	1503.297	1509.158	6.473	0.779	-10.672	-5.665	-0.383	8.498
259487.213	NaN	-3.054	1.435	9.533	1504.762	1503.297	1507.692	6.855	0.687	-10.443	-5.742	-0.383	8.498
259488.190	NaN	-3.065	1.424	9.522	1506.227	1503.297	1507.692	6.931	0.672	-10.580	-5.742	-0.536	8.421
259489.166	NaN	-3.054	1.435	9.522	1505.495	1504.762	1510.623	6.656	0.809	-10.519	-5.742	-0.383	8.344
259490.143	NaN	-3.054	1.424	9.522	1505.495	1503.297	1509.158	6.550	0.809	-10.504	-5.742	-0.536	8.498
259491.119	NaN	-3.054	1.413	9.511	1506.960	1504.029	1509.158	6.321	0.809	-10.534	-5.742	-0.383	8.421
259492.096	NaN	-3.065	1.402	9.511	1505.495	1503.297	1509.158	6.290	0.885	-10.672	-5.742	-0.459	8.498
259493.073	NaN	-3.065	1.413	9.500	1504.762	1504.762	1510.623	6.489	0.794	-10.763	-5.742	-0.459	8.498
259494.049	NaN	-3.054	1.413	9.511	1505.495	1504.762	1510.623	6.580	0.763	-10.718	-5.818	-0.383	8.421
259495.026	NaN	-3.054	1.413	9.511	1506.227	1503.297	1510.623	6.504	0.992	-10.641	-5.665	-0.383	8.498
259496.002	NaN	-3.065	1.424	9.522	1505.495	1504.029	1509.890	6.290	1.008	-10.641	-5.665	-0.383	8.574
259496.979	NaN	-3.065	1.413	9.500	1505.495	1504.029	1509.890	6.473	0.794	-10.672	-5.742	-0.536	8.498
259497.955	NaN	-3.065	1.424	9.500	1506.227	1504.029	1510.623	6.626	0.733	-10.595	-5.665	-0.459	8.268
259498.932	NaN	-3.054	1.424	9.511	1505.495	1504.029	1509.890	6.672	0.901	-10.626	-5.665	-0.536	8.344
259499.908	NaN	-3.076	1.424	9.511	1505.495	1503.297	1510.623	6.672	0.947	-10.626	-5.742	-0.459	8.498
259500.885	NaN	-3.076	1.424	9.511	1504.762	1503.297	1510.623	6.656	0.931	-10.702	-5.589	-0.536	8.498
259501.862	NaN	-3.076	1.424	9.511	1504.029	1502.564	1509.158	6.504	0.947	-10.779	-5.742	-0.383	8.498
259502.838	NaN	-3.065	1.424	9.522	1506.227	1504.029	1509.890	6.351	0.870	-10.672	-5.742	-0.536	8.421
259503.815	NaN	-3.065	1.424	9.522	1504.029	1504.029	1510.623	6.229	0.901	-10.702	-5.818	-0.459	8.344
259504.791	NaN	-3.054	1.413	9.522	1505.495	1504.029	1509.890	6.305	0.870	-10.702	-5.665	-0.383	8.498
259505.768	NaN	-3.065	1.424	9.511	1504.762	1504.029	1509.158	6.366	0.763	-10.763	-5.818	-0.306	8.498
259506.744	NaN	-3.065	1.424	9.522	1504.029	1504.029	1510.623	6.412	0.977	-10.580	-5.742	-0.459	8.498
259507.721	NaN	-3.076	1.413	9.533	1504.762	1503.297	1509.158	6.473	1.084	-10.336	-5.742	-0.383	8.574
259508.698	NaN	-3.076	1.424	9.543	1505.495	1503.297	1509.890	6.504	1.130	-10.336	-5.818	-0.383	8.574
259509.674	NaN	-3.076	1.413	9.543	1505.495	1504.029	1510.623	6.489	0.947	-10.534	-5.589	-0.536	8.421
259510.651	NaN	-3.076	1.413	9.554	1505.495	1504.762	1509.890	6.443	0.870	-10.534	-5.742	-0.383	8.268
259511.627	NaN	-3.065	1.413	9.543	1504.762	1503.297	1511.355	6.382	0.885	-10.504	-5.895	-0.459	8.421
259512.604	NaN	-3.065	1.413	9.533	1505.495	1502.564	1509.890	6.473	1.099	-10.565	-5.742	-0.383	8.344
259513.580	NaN	-3.065	1.402	9.533	1504.029	1503.297	1509.158	6.504	1.130	-10.534	-5.742	-0.306	8.421
259514.557	NaN	-3.065	1.413	9.533	1506.960	1504.029	1509.890	6.534	1.160	-10.519	-5.895	-0.459	8.498
259515.533	NaN	-3.076	1.413	9.522	1506.960	1504.029	1509.890	6.412	1.023	-10.702	-5.742	-0.459	8.498
259537.018	NaN	-3.054	1.402	9.533	1504.762	1503.297	1509.890	6.183	0.779	-10.519	-5.742	-0.383	8.498
259537.994	NaN	-3.054	1.402	9.533	1505.495	1504.029	1510.623	6.412	0.931	-10.656	-5.665	-0.536	8.421
259538.971	NaN	-3.065	1.402	9.543	1505.495	1504.029	1511.355	6.626	1.084	-10.580	-5.742	-0.383	8.574
259539.948	NaN	-3.054	1.402	9.533	1506.227	1503.297	1509.890	6.412	1.130	-10.565	-5.742	-0.459	8.421
259540.924	NaN	-3.054	1.402	9.543	1505.495	1503.297	1509.890	6.458	0.840	-10.275	-5.742	-0.383	8.421
259541.901	NaN	-3.065	1.402	9.522	1506.227	1503.297	1510.623	6.565	0.611	-10.214	-5.742	-0.459	8.498
259542.877	NaN	-3.054	1.402	9.511	1505.495	1504.762	1509.890	6.626	0.794	-10.443	-5.665	-0.383	8.421
259543.854	NaN	-3.043	1.402	9.511	1505.495	1503.297	1510.623	6.763	0.809	-10.458	-5.742	-0.536	8.421
259544.830	NaN	-3.043	1.402	9.511	1504.029	1503.297	1509.890	6.794	0.931	-10.611	-5.742	-0.459	8.344
259545.807	NaN	-3.043	1.402	9.500	1504.762	1504.029	1509.890	6.763	0.992	-10.489	-5.895	-0.230	8.498
259546.783	NaN	-3.043	1.402	9.500	1506.227	1503.297	1509.890	6.504	1.008	-10.336	-5.818	-0.383	8.344
259547.760	NaN	-3.054	1.402	9.500	1506.227	1504.029	1509.890	6.351	1.023	-10.351	-5.742	-0.459	8.574
259548.737	NaN	-3.054	1.402	9.500	1506.227	1504.029	1509.158	6.565	0.992	-10.473	-5.818	-0.459	8.421
259549.713	NaN	-3.043	1.402	9.500	1505.495	1503.297	1509.158	6.672	0.947	-10.580	-5.742	-0.383	8.421
259550.690	NaN	-3.054	1.391	9.511	1505.495	1503.297	1509.890	6.504	0.748	-10.550	-5.818	-0.459	8.421
259551.666	NaN	-3.043	1.413	9.522	1505.495	1504.029	1510.623	6.550	0.687	-10.748	-5.742	-0.459	8.574
259552.643	NaN	-3.054	1.413	9.533	1506.227	1504.029	1509.890	6.641	0.702	-10.519	-5.665	-0.459	8.421
259553.619	NaN	-3.043	1.413	9.543	1504.762	1504.762	1509.890	6.565	0.794	-10.183	-5.665	-0.459	8.344
259554.596	NaN	-3.054	1.413	9.533	1504.762	1504.029	1509.890	6.336	0.779	-10.244	-5.589	-0.459	8.344
259555.573	NaN	-3.065	1.413	9.522	1505.495	1504.029	1509.890	6.214	0.870	-10.260	-5.665	-0.536	8.344
259556.549	NaN	-3.065	1.413	9.522	1504.762	1504.762	1509.158	6.107	0.870	-10.198	-5.665	-0.383	8.344
259557.526	NaN	-3.076	1.413	9.511	1504.762	1503.297	1510.623	6.366	1.008	-10.412	-5.742	-0.536	8.498
259558.502	NaN	-3.065	1.413	9.511	1503.297	1502.564	1509.158	6.656	1.069	-10.611	-5.665	-0.306	8.498
259559.479	NaN	-3.054	1.435	9.511	1504.762	1502.564	1510.623	6.611	0.992	-10.550	-5.818	-0.306	8.498
259560.455	NaN	-3.054	1.435	9.511	1506.227	1503.297	1511.355	6.244	0.977	-10.397	-5.818	-0.459	8.421
259561.432	NaN	-3.065	1.435	9.511	1506.960	1503.297	1509.890	6.229	0.947	-10.290	-5.665	-0.459	8.498
259562.408	NaN	-3.065	1.435	9.522	1506.227	1503.297	1510.623	6.412	0.916	-10.382	-5.742	-0.383	8.421
259563.385	NaN	-3.076	1.424	9.522	1505.495	1503.297	1509.158	6.458	0.779	-10.519	-5.818	-0.459	8.421
259564.362	NaN	-3.076	1.424	9.533	1505.495	1504.029	1509.890	6.458	0.824	-10.275	-5.665	-0.459	8.344
259565.338	NaN	-3.076	1.424	9.533	1505.495	1504.762	1510.623	6.504	1.099	-10.168	-5.818	-0.383	8.344
259566.315	NaN	-3.065	1.413	9.522	1504.762	1504.762	1509.890	6.336	1.084	-10.321	-5.742	-0.536	8.421
259567.291	NaN	-3.065	1.413	9.522	1505.495	1503.297	1510.623	6.336	0.916	-10.626	-5.742	-0.459	8.498
259568.268	NaN	-3.065	1.413	9.533	1505.495	1502.564	1509.890	6.260	0.885	-10.458	-5.665	-0.459	8.421
259569.244	NaN	-3.065	1.413	9.522	1506.227	1504.029	1509.890	6.382	0.779	-10.305	-5.665	-0.459	8.421
259570.221	NaN	-3.065	1.424	9.522	1504.029	1504.762	1509.158	6.351	0.672	-10.366	-5.589	-0.459	8.498
259571.198	NaN	-3.065	1.413	9.522	1506.227	1504.029	1509.890	6.382	0.824	-10.458	-5.742	-0.459	8.574
259572.174	NaN	-3.065	1.402	9.533	1504.029	1503.297	1508.425	6.427	1.099	-10.550	-5.742	-0.459	8.421
259573.151	NaN	-3.065	1.413	9.533	1504.762	1502.564	1509.158	6.290	1.008	-10.427	-5.742	-0.536	8.421
259574.127	NaN	-3.065	1.424	9.554	1504.762	1504.762	1510.623	6.351	0.718	-10.351	-5.665	-0.383	8.574
259575.104	NaN	-3.087	1.413	9.565	1505.495	1503.297	1510.623	6.382	0.702	-10.305	-5.742	-0.383	8.498
259576.080	NaN	-3.087	1.413	9.554	1504.762	1503.297	1508.425	6.519	0.809	-10.351	-5.818	-0.536	8.421
