Timestamp	PC Timestamp	Low Noise Accelerometer X	Low Noise Accelerometer Y	Low Noise Accelerometer Z	Int A12	Int A13	Int A14	Gyroscope X	Gyroscope Y	Gyroscope Z	Wide Range Accelerometer X	Wide Range Accelerometer Y	Wide Range Accelerometer Z
303975.494	NaN	2.228	7.326	-4.946	1510.623	1499.634	1500.366	-2.183	4.229	-2.550	0.153	5.971	-7.349
303976.471	NaN	2.228	7.348	-4.946	1511.355	1500.366	1500.366	-2.321	4.153	-2.519	0.077	5.895	-7.196
303977.448	NaN	2.239	7.337	-4.935	1511.355	1499.634	1501.832	-2.260	4.000	-2.901	0.153	5.818	-7.426
303978.424	NaN	2.239	7.337	-4.935	1510.623	1499.634	1501.099	-2.046	4.031	-3.130	0.153	5.895	-7.120
303979.401	NaN	2.239	7.326	-4.946	1511.355	1499.634	1500.366	-2.031	4.076	-2.992	0.077	5.971	-7.273
303980.377	NaN	2.239	7.326	-4.946	1508.425	1499.634	1501.099	-2.198	3.954	-2.763	0.077	5.895	-7.273
303981.354	NaN	2.250	7.326	-4.935	1511.355	1501.099	1500.366	-2.229	3.817	-2.779	0.153	5.971	-7.502
303982.330	NaN	2.261	7.337	-4.946	1509.890	1499.634	1500.366	-2.107	4.107	-2.977	0.153	6.124	-7.349
303983.307	NaN	2.261	7.337	-4.935	1511.355	1500.366	1498.901	-2.046	4.198	-2.947	0.077	5.971	-7.196
303984.283	NaN	2.261	7.326	-4.946	1510.623	1500.366	1499.634	-2.244	4.092	-2.687	0.000	6.124	-7.502
303985.260	NaN	2.250	7.326	-4.946	1510.623	1500.366	1500.366	-2.321	4.015	-2.550	0.230	5.895	-7.349
303986.237	NaN	2.250	7.326	-4.946	1510.623	1500.366	1499.634	-2.290	4.122	-2.427	0.077	6.048	-7.273
303987.213	NaN	2.250	7.337	-4.946	1511.355	1499.634	1501.099	-2.244	4.122	-2.611	0.230	5.971	-7.502
303988.190	NaN	2.250	7.326	-4.957	1509.158	1501.099	1500.366	-2.000	4.229	-2.931	0.153	5.895	-7.120
303989.166	NaN	2.250	7.315	-4.957	1509.890	1499.634	1501.832	-1.969	4.214	-3.008	0.077	6.048	-7.273
303990.143	NaN	2.250	7.326	-4.957	1510.623	1501.099	1499.634	-2.031	4.183	-3.053	0.077	6.048	-7.349
303991.119	NaN	2.250	7.326	-4.946	1506.227	1501.099	1501.832	-2.061	4.137	-2.885	0.153	5.971	-7.349
303992.096	NaN	2.250	7.337	-4.967	1510.623	1499.634	1500.366	-2.015	4.153	-2.840	0.000	5.971	-7.349
303993.073	NaN	2.250	7.337	-4.967	1510.623	1499.634	1501.832	-1.710	4.031	-2.626	0.153	5.971	-7.349
303994.049	NaN	2.239	7.326	-4.978	1512.088	1500.366	1498.901	-1.863	4.031	-2.687	0.077	5.971	-7.273
303995.026	NaN	2.239	7.326	-4.978	1510.623	1500.366	1500.366	-1.893	4.031	-2.779	0.000	5.895	-7.349
303996.002	NaN	2.228	7.337	-4.967	1512.821	1499.634	1500.366	-1.924	4.031	-2.809	0.230	6.048	-7.196
303996.979	NaN	2.228	7.337	-4.967	1509.158	1499.634	1501.099	-2.046	4.015	-2.763	0.000	5.971	-7.196
303997.955	NaN	2.239	7.337	-4.957	1509.158	1499.634	1501.099	-2.076	4.000	-2.962	0.000	6.048	-7.273
303998.932	NaN	2.250	7.348	-4.967	1510.623	1500.366	1501.099	-2.122	3.863	-2.962	0.077	5.895	-7.349
303999.908	NaN	2.250	7.337	-4.967	1510.623	1501.099	1500.366	-2.092	3.878	-2.931	0.077	6.048	-7.349
304000.885	NaN	2.250	7.348	-4.957	1509.890	1500.366	1500.366	-1.924	4.076	-2.870	0.077	5.971	-7.273
304001.862	NaN	2.250	7.337	-4.967	1510.623	1499.634	1501.099	-1.878	4.153	-2.794	-0.077	6.048	-7.273
304002.838	NaN	2.239	7.326	-4.967	1510.623	1498.901	1500.366	-2.137	4.000	-2.809	0.077	5.971	-7.349
304003.815	NaN	2.250	7.337	-4.967	1511.355	1500.366	1501.099	-2.092	3.985	-2.580	0.000	5.818	-7.502
304004.791	NaN	2.239	7.337	-4.967	1511.355	1499.634	1500.366	-2.061	3.954	-2.763	0.000	5.971	-7.349
304005.768	NaN	2.250	7.348	-4.967	1510.623	1499.634	1501.832	-1.954	3.924	-2.733	0.077	5.971	-7.196
304006.744	NaN	2.250	7.337	-4.978	1509.890	1500.366	1498.901	-1.893	3.771	-2.672	0.000	5.971	-7.426
304007.721	NaN	2.239	7.348	-4.989	1509.158	1500.366	1501.832	-2.046	3.847	-2.672	0.153	5.895	-7.196
304008.698	NaN	2.250	7.337	-4.967	1510.623	1499.634	1501.099	-2.107	4.137	-2.718	0.077	5.895	-7.196
304009.674	NaN	2.250	7.348	-4.967	1509.890	1500.366	1499.634	-2.137	4.092	-2.779	0.077	5.971	-7.120
304010.651	NaN	2.250	7.326	-4.967	1509.890	1500.366	1499.634	-1.954	3.756	-2.687	0.153	5.971	-7.273
304011.627	NaN	2.250	7.337	-4.967	1510.623	1499.634	1501.099	-2.092	3.771	-2.595	0.077	6.048	-7.349
304012.604	NaN	2.261	7.348	-4.946	1510.623	1499.634	1501.099	-2.275	3.710	-2.763	0.153	6.124	-7.579
304013.580	NaN	2.250	7.337	-4.967	1510.623	1499.634	1501.099	-2.290	3.649	-2.824	0.077	5.895	-7.426
304014.557	NaN	2.250	7.337	-4.957	1509.890	1500.366	1500.366	-2.122	3.817	-2.809	0.230	5.971	-7.349
304015.533	NaN	2.250	7.337	-4.957	1510.623	1499.634	1501.099	-1.924	4.061	-2.702	0.077	5.971	-7.349
304016.510	NaN	2.239	7.326	-4.967	1509.890	1498.901	1500.366	-1.893	4.031	-2.763	0.000	5.895	-7.120
304017.487	NaN	2.250	7.326	-4.946	1512.088	1500.366	1499.634	-2.015	3.908	-2.763	0.153	5.971	-7.349
304018.463	NaN	2.250	7.326	-4.957	1510.623	1500.366	1500.366	-2.046	3.985	-2.870	0.077	6.048	-8.421
304019.440	NaN	2.239	7.326	-4.967	1511.355	1498.901	1499.634	-1.893	3.786	-2.840	0.153	6.048	-7.273
304020.416	NaN	2.239	7.315	-4.967	1511.355	1499.634	1501.099	-1.969	3.924	-2.718	0.153	6.048	-7.349
304021.393	NaN	2.250	7.326	-4.967	1510.623	1500.366	1499.634	-1.969	4.122	-2.748	0.077	5.971	-7.273
304022.369	NaN	2.261	7.326	-4.957	1510.623	1500.366	1500.366	-2.336	4.000	-2.748	0.230	5.971	-7.349
304023.346	NaN	2.250	7.326	-4.946	1510.623	1499.634	1500.366	-2.489	3.969	-2.840	0.153	6.048	-7.426
304024.323	NaN	2.250	7.326	-4.957	1510.623	1500.366	1501.099	-2.214	3.939	-2.733	0.077	6.124	-7.273
304025.299	NaN	2.250	7.337	-4.946	1511.355	1500.366	1501.832	-2.015	3.878	-2.794	0.230	6.048	-7.426
304026.276	NaN	2.250	7.326	-4.935	1508.425	1500.366	1500.366	-1.924	3.893	-2.840	0.153	6.048	-7.273
304027.252	NaN	2.261	7.337	-4.946	1510.623	1501.099	1499.634	-1.847	3.908	-2.916	0.153	5.895	-7.349
304028.229	NaN	2.250	7.337	-4.935	1509.890	1500.366	1501.099	-2.076	3.954	-2.763	0.077	5.971	-7.273
304029.205	NaN	2.250	7.359	-4.935	1509.890	1500.366	1501.832	-2.168	3.939	-2.779	0.153	6.048	-7.273
304030.182	NaN	2.239	7.348	-4.957	1510.623	1500.366	1501.099	-2.122	4.000	-2.824	0.077	5.895	-7.196
304031.158	NaN	2.228	7.337	-4.957	1509.890	1500.366	1499.634	-2.183	4.092	-2.870	0.077	6.048	-7.273
304032.135	NaN	2.250	7.348	-4.946	1510.623	1500.366	1500.366	-1.939	4.107	-2.962	-1.148	6.124	-7.349
304033.112	NaN	2.250	7.348	-4.967	1509.890	1500.366	1500.366	-1.847	3.771	-2.916	0.077	6.048	-7.426
304034.088	NaN	2.250	7.337	-4.967	1510.623	1499.634	1498.168	-1.725	3.664	-2.794	0.153	5.895	-7.426
304035.065	NaN	2.261	7.337	-4.957	1510.623	1500.366	1499.634	-1.817	4.031	-2.794	0.153	5.818	-7.196
304036.041	NaN	2.250	7.326	-4.967	1509.890	1499.634	1500.366	-2.015	4.122	-2.885	0.077	5.895	-7.196
304037.018	NaN	2.261	7.348	-4.946	1509.890	1500.366	1498.901	-2.168	4.015	-2.931	0.077	5.971	-7.273
304037.994	NaN	2.239	7.326	-4.946	1510.623	1499.634	1498.901	-2.061	4.046	-2.779	0.153	5.818	-7.120
304038.971	NaN	2.239	7.337	-4.957	1510.623	1498.901	1500.366	-1.924	3.908	-2.733	0.153	5.971	-7.349
304039.948	NaN	2.250	7.348	-4.935	1510.623	1499.634	1501.832	-2.031	3.878	-2.763	0.000	5.971	-7.349
304040.924	NaN	2.250	7.348	-4.957	1509.890	1500.366	1499.634	-2.183	3.908	-2.611	0.077	5.818	-7.502
304041.901	NaN	2.250	7.337	-4.946	1509.158	1498.901	1500.366	-2.061	3.969	-2.611	0.077	5.971	-7.349
304042.877	NaN	2.239	7.337	-4.946	1509.890	1500.366	1500.366	-2.168	3.969	-2.748	0.077	6.048	-7.349
304043.854	NaN	2.239	7.348	-4.957	1510.623	1498.901	1500.366	-2.275	3.969	-2.840	0.000	5.971	-7.273
304044.830	NaN	2.239	7.348	-4.946	1510.623	1499.634	1500.366	-2.122	4.046	-2.809	0.153	5.971	-7.426
304045.807	NaN	2.250	7.348	-4.946	1508.425	1499.634	1501.832	-1.863	3.985	-2.824	0.000	6.048	-7.196
304046.783	NaN	2.250	7.348	-4.967	1511.355	1499.634	1501.832	-1.939	3.817	-3.023	0.077	5.971	-7.426
304047.760	NaN	2.250	7.337	-4.967	1509.890	1499.634	1501.099	-2.061	3.786	-2.840	0.000	5.971	-7.273
304048.737	NaN	2.250	7.348	-4.967	1510.623	1500.366	1501.099	-2.122	3.786	-2.656	0.153	5.971	-7.349
304049.713	NaN	2.250	7.348	-4.978	1510.623	1499.634	1501.099	-1.893	3.908	-2.656	0.153	5.971	-7.196
304050.690	NaN	2.239	7.348	-4.989	1509.158	1498.901	1500.366	-1.756	4.015	-2.733	0.077	5.971	-7.273
304051.666	NaN	2.239	7.337	-4.978	1510.623	1499.634	1500.366	-1.725	3.924	-2.779	0.077	5.895	-7.349
304052.643	NaN	2.239	7.337	-4.967	1511.355	1500.366	1499.634	-1.832	3.756	-2.870	0.077	6.048	-7.502
304053.619	NaN	2.239	7.315	-4.978	1510.623	1498.901	1501.099	-2.000	3.771	-2.977	0.000	5.971	-7.426
304054.596	NaN	2.239	7.326	-4.967	1509.890	1498.901	1500.366	-2.153	4.046	-2.840	0.000	6.048	-7.349
304055.573	NaN	2.250	7.326	-4.978	1509.890	1499.634	1500.366	-2.015	4.046	-2.870	0.077	5.971	-7.349
304056.549	NaN	2.239	7.326	-4.978	1509.158	1500.366	1499.634	-2.000	3.878	-2.931	0.230	6.048	-7.196
304057.526	NaN	2.250	7.337	-4.957	1509.890	1501.099	1499.634	-1.969	3.771	-2.763	0.230	6.048	-7.273
304058.502	NaN	2.239	7.326	-4.978	1509.890	1500.366	1499.634	-1.802	3.847	-2.702	0.153	5.971	-7.426
304059.479	NaN	2.250	7.337	-4.967	1509.890	1499.634	1501.099	-1.756	3.924	-2.641	0.000	5.971	-7.349
304060.455	NaN	2.250	7.348	-4.989	1510.623	1499.634	1500.366	-2.046	3.893	-2.779	0.077	5.895	-7.349
304061.432	NaN	2.250	7.348	-5.000	1509.890	1499.634	1501.099	-2.092	3.832	-2.870	0.000	5.971	-7.273
304062.408	NaN	2.250	7.348	-4.978	1511.355	1500.366	1500.366	-2.183	3.847	-2.840	0.077	6.048	-7.273
304063.385	NaN	2.239	7.348	-4.989	1509.890	1500.366	1500.366	-1.908	3.725	-2.672	0.077	5.971	-7.273
304064.362	NaN	2.239	7.337	-4.989	1509.890	1498.901	1498.901	-2.015	3.786	-2.748	0.153	6.048	-7.349
304065.338	NaN	2.239	7.337	-4.989	1511.355	1499.634	1501.099	-2.015	4.076	-2.824	0.153	5.971	-7.349
304066.315	NaN	2.239	7.337	-4.989	1510.623	1500.366	1501.099	-2.076	4.168	-2.901	0.230	5.971	-7.273
304067.291	NaN	2.239	7.326	-4.989	1511.355	1499.634	1501.099	-2.000	4.046	-2.901	0.077	6.048	-7.349
304068.268	NaN	2.250	7.337	-4.967	1509.890	1498.901	1500.366	-1.893	3.939	-2.916	0.077	6.048	-7.273
304069.244	NaN	2.261	7.337	-4.967	1510.623	1499.634	1501.832	-1.939	3.847	-2.916	0.306	5.895	-7.196
304070.221	NaN	2.261	7.348	-4.967	1510.623	1500.366	1498.168	-2.046	3.725	-2.931	0.077	5.971	-7.273
304071.198	NaN	2.261	7.348	-4.946	1509.890	1499.634	1501.832	-2.107	3.603	-2.840	0.000	5.971	-7.196
304072.174	NaN	2.261	7.359	-4.946	1509.890	1499.634	1500.366	-2.015	3.847	-2.840	0.000	5.971	-7.426
304073.151	NaN	2.250	7.359	-4.957	1510.623	1498.901	1500.366	-1.939	3.863	-2.763	0.000	5.971	-7.196
304074.127	NaN	2.250	7.370	-4.957	1510.623	1500.366	1499.634	-2.137	3.771	-2.580	0.077	6.048	-7.196
304075.104	NaN	2.261	7.359	-4.946	1511.355	1499.634	1501.099	-2.122	3.802	-2.519	-0.077	5.971	-7.273
304076.080	NaN	2.261	7.348	-4.957	1510.623	1499.634	1500.366	-2.061	3.878	-2.611	0.077	5.971	-7.349
304077.057	NaN	2.261	7.348	-4.946	1509.158	1498.901	1501.099	-2.290	3.832	-2.794	0.153	5.971	-7.273
304078.033	NaN	2.261	7.337	-4.946	1510.623	1499.634	1500.366	-2.137	3.893	-2.855	0.153	5.895	-7.196
304079.010	NaN	2.250	7.337	-4.946	1509.890	1500.366	1500.366	-1.863	3.847	-2.870	0.153	5.895	-7.349
304079.987	NaN	2.239	7.337	-4.967	1510.623	1498.901	1498.901	-1.786	3.847	-2.794	0.153	5.971	-7.273
304080.963	NaN	2.250	7.326	-4.967	1509.158	1499.634	1501.099	-1.878	3.924	-2.824	0.077	5.971	-7.502
304081.940	NaN	2.261	7.337	-4.967	1510.623	1499.634	1501.832	-1.908	3.908	-2.687	0.000	6.124	-7.273
304082.916	NaN	2.261	7.326	-4.967	1509.158	1499.634	1500.366	-1.985	3.786	-2.580	0.153	5.971	-7.426
304083.893	NaN	2.261	7.348	-4.957	1510.623	1500.366	1500.366	-2.061	3.634	-2.580	0.077	5.818	-7.349
304084.869	NaN	2.239	7.337	-4.967	1510.623	1499.634	1500.366	-1.939	3.847	-2.687	0.077	5.895	-7.273
304085.846	NaN	2.250	7.359	-4.946	1509.158	1498.901	1501.099	-1.863	3.924	-2.672	0.153	6.048	-7.196
304086.823	NaN	2.250	7.348	-4.967	1511.355	1500.366	1500.366	-1.817	3.786	-2.702	0.000	5.895	-7.349
304087.799	NaN	2.250	7.337	-4.967	1509.890	1498.901	1498.901	-1.893	3.756	-2.702	0.230	5.971	-7.273
304088.776	NaN	2.250	7.337	-4.957	1510.623	1500.366	1500.366	-1.954	3.802	-2.763	0.153	5.818	-7.120
304089.752	NaN	2.239	7.337	-4.978	1510.623	1499.634	1500.366	-2.061	3.924	-2.901	0.000	6.124	-7.273
304090.729	NaN	2.239	7.337	-4.989	1509.890	1499.634	1500.366	-2.015	4.046	-2.733	0.077	5.971	-7.273
304091.705	NaN	2.239	7.326	-4.978	1509.890	1500.366	1500.366	-1.893	4.015	-2.840	0.077	6.124	-7.273
304092.682	NaN	2.239	7.348	-4.978	1510.623	1500.366	1499.634	-2.107	3.832	-2.824	0.077	5.971	-7.273
304093.658	NaN	2.239	7.348	-4.967	1509.158	1500.366	1500.366	-2.153	3.679	-2.672	0.230	5.895	-7.349
304094.635	NaN	2.239	7.337	-4.978	1509.890	1501.099	1500.366	-2.031	3.756	-2.534	0.153	6.048	-7.426
304095.612	NaN	2.228	7.348	-4.978	1509.890	1500.366	1500.366	-1.954	3.863	-2.748	0.153	6.048	-7.196
304096.588	NaN	2.239	7.348	-4.978	1510.623	1500.366	1501.099	-1.786	3.832	-2.931	0.000	5.971	-6.124
304097.565	NaN	2.250	7.348	-4.967	1509.890	1501.099	1501.832	-1.695	3.878	-2.702	0.230	6.201	-7.273
304098.541	NaN	2.239	7.348	-4.957	1504.762	1500.366	1500.366	-1.679	3.954	-2.733	0.230	5.971	-7.273
304099.518	NaN	2.228	7.337	-4.957	1509.890	1499.634	1501.099	-1.893	3.924	-2.885	0.153	6.048	-7.349
304100.494	NaN	2.239	7.337	-4.967	1511.355	1499.634	1501.099	-1.954	3.786	-2.779	0.077	5.895	-7.120
304101.471	NaN	2.228	7.337	-4.957	1511.355	1500.366	1501.099	-1.817	3.847	-2.611	0.077	6.124	-7.273
304102.448	NaN	2.228	7.326	-4.946	1509.890	1499.634	1501.099	-1.939	3.725	-2.443	0.230	5.895	-7.502
304103.424	NaN	2.239	7.326	-4.946	1509.890	1499.634	1501.832	-1.893	3.740	-2.534	0.077	5.971	-7.273
304104.401	NaN	2.239	7.326	-4.967	1509.890	1500.366	1499.634	-1.771	3.756	-2.702	0.077	6.048	-7.426
304105.377	NaN	2.228	7.315	-4.978	1510.623	1499.634	1500.366	-1.771	3.847	-2.840	0.077	5.971	-7.349
304106.354	NaN	2.228	7.326	-4.967	1510.623	1501.832	1501.099	-1.786	3.863	-2.687	0.000	5.895	-7.273
304107.330	NaN	2.239	7.326	-4.978	1510.623	1500.366	1499.634	-2.000	3.679	-2.763	0.077	6.124	-7.349
304108.307	NaN	2.239	7.337	-4.978	1510.623	1500.366	1500.366	-2.137	3.573	-2.931	0.153	5.971	-7.273
304109.283	NaN	2.250	7.326	-4.967	1511.355	1500.366	1500.366	-2.092	3.557	-2.870	0.000	6.048	-7.349
304110.260	NaN	2.239	7.326	-4.978	1510.623	1501.099	1501.832	-1.969	3.634	-2.565	0.077	5.895	-7.120
304111.237	NaN	2.239	7.326	-4.957	1510.623	1500.366	1501.099	-1.954	3.695	-2.580	0.230	5.971	-7.349
304112.213	NaN	2.239	7.348	-4.957	1510.623	1501.099	1500.366	-1.939	3.664	-2.641	0.077	5.971	-7.196
304113.190	NaN	2.228	7.348	-4.957	1509.890	1500.366	1501.099	-1.985	3.588	-2.580	0.153	5.895	-7.196
304114.166	NaN	2.228	7.326	-4.967	1510.623	1500.366	1498.901	-2.031	3.649	-2.779	0.153	5.971	-7.273
304115.143	NaN	2.228	7.337	-4.967	1510.623	1500.366	1501.099	-2.000	3.664	-2.855	0.153	5.971	-7.273
304116.119	NaN	2.228	7.337	-4.957	1510.623	1499.634	1501.099	-1.878	3.573	-2.809	0.153	5.971	-7.349
304117.096	NaN	2.239	7.348	-4.957	1509.890	1499.634	1500.366	-1.802	3.740	-2.824	0.077	5.971	-7.273
304118.073	NaN	2.239	7.348	-4.957	1511.355	1500.366	1500.366	-1.786	3.908	-2.794	0.077	5.818	-7.349
304119.049	NaN	2.250	7.337	-4.957	1511.355	1500.366	1498.168	-1.847	3.786	-2.931	0.230	5.971	-7.196
304120.026	NaN	2.250	7.348	-4.957	1512.088	1500.366	1499.634	-1.878	3.649	-2.824	0.077	5.971	-7.349
304121.002	NaN	2.250	7.348	-4.978	1511.355	1500.366	1500.366	-1.817	3.573	-2.733	0.077	5.971	-7.273
304121.979	NaN	2.250	7.348	-4.967	1510.623	1499.634	1500.366	-1.939	3.496	-2.885	0.153	6.048	-7.273
304122.955	NaN	2.239	7.337	-4.957	1509.890	1499.634	1500.366	-2.046	3.725	-2.626	0.153	5.971	-7.273
304123.932	NaN	2.250	7.348	-4.957	1510.623	1501.099	1499.634	-1.939	3.740	-2.550	0.153	5.971	-7.349
304124.908	NaN	2.261	7.348	-4.957	1511.355	1500.366	1500.366	-1.832	3.557	-2.702	0.153	5.895	-7.426
304125.885	NaN	2.261	7.348	-4.957	1510.623	1501.099	1500.366	-1.710	3.725	-2.733	0.077	6.048	-7.349
304126.862	NaN	2.261	7.348	-4.967	1511.355	1499.634	1500.366	-2.000	3.802	-2.687	0.077	6.048	-7.120
304127.838	NaN	2.250	7.348	-4.989	1511.355	1499.634	1500.366	-2.153	3.847	-2.595	0.000	5.971	-7.196
304128.815	NaN	2.250	7.337	-4.989	1510.623	1501.099	1501.832	-2.000	3.802	-2.748	0.000	5.971	-8.498
304129.791	NaN	2.250	7.337	-4.989	1509.890	1501.099	1499.634	-1.771	3.603	-2.794	0.153	6.048	-7.502
304130.768	NaN	2.250	7.326	-4.978	1510.623	1499.634	1500.366	-1.802	3.511	-2.565	-0.153	5.971	-7.502
304131.744	NaN	2.250	7.326	-4.989	1509.890	1499.634	1500.366	-1.893	3.740	-2.763	0.230	6.048	-7.273
304132.721	NaN	2.239	7.326	-4.978	1511.355	1500.366	1500.366	-1.924	3.878	-2.763	0.077	5.971	-7.426
304133.698	NaN	2.250	7.337	-4.957	1510.623	1500.366	1499.634	-1.954	3.802	-2.656	0.077	5.895	-7.426
304134.674	NaN	2.250	7.326	-4.967	1508.425	1501.099	1500.366	-2.000	3.679	-2.672	0.153	5.971	-7.349
304135.651	NaN	2.261	7.326	-4.967	1512.088	1500.366	1498.901	-1.893	3.618	-2.718	0.077	5.971	-7.196
304136.627	NaN	2.250	7.326	-4.957	1511.355	1499.634	1500.366	-1.725	3.557	-2.641	0.153	5.895	-7.426
304137.604	NaN	2.261	7.337	-4.946	1511.355	1500.366	1501.832	-1.924	3.756	-2.687	0.153	5.971	-7.426
304138.580	NaN	2.261	7.337	-4.946	1510.623	1500.366	1500.366	-2.092	3.634	-2.687	0.077	5.818	-7.196
304139.557	NaN	2.261	7.337	-4.946	1512.088	1499.634	1501.099	-2.015	3.542	-2.672	0.077	5.971	-7.273
304140.533	NaN	2.261	7.326	-4.946	1512.088	1500.366	1499.634	-1.786	3.771	-2.885	0.153	6.048	-7.273
304141.510	NaN	2.250	7.326	-4.946	1510.623	1498.901	1500.366	-1.847	3.847	-2.916	0.153	5.971	-7.426
304142.487	NaN	2.239	7.326	-4.946	1509.890	1498.901	1500.366	-1.725	3.771	-2.794	0.230	5.818	-7.273
304143.463	NaN	2.250	7.337	-4.935	1510.623	1500.366	1500.366	-1.802	3.725	-2.672	0.000	5.971	-7.426
304144.440	NaN	2.239	7.337	-4.957	1511.355	1499.634	1501.832	-1.969	3.725	-2.534	0.153	5.971	-7.349
304145.416	NaN	2.239	7.326	-4.957	1509.890	1500.366	1500.366	-1.863	3.634	-2.748	0.153	6.048	-7.426
304146.393	NaN	2.250	7.337	-4.946	1511.355	1500.366	1501.099	-1.832	3.481	-2.763	0.077	5.895	-7.273
304147.369	NaN	2.250	7.348	-4.946	1510.623	1499.634	1501.099	-1.725	3.450	-2.702	0.230	6.048	-7.349
304148.346	NaN	2.239	7.348	-4.946	1510.623	1500.366	1501.099	-1.863	3.588	-2.794	0.077	5.971	-7.349
304149.323	NaN	2.239	7.337	-4.946	1509.890	1500.366	1499.634	-1.939	3.634	-2.733	0.077	5.971	-7.502
304150.299	NaN	2.239	7.326	-4.957	1509.890	1500.366	1500.366	-2.031	3.588	-2.595	0.077	5.971	-7.273
304151.276	NaN	2.239	7.337	-4.946	1510.623	1500.366	1500.366	-1.878	3.435	-2.687	0.000	5.971	-7.349
304152.252	NaN	2.239	7.337	-4.946	1510.623	1500.366	1500.366	-1.817	3.420	-2.809	0.077	5.971	-7.120
304153.229	NaN	2.228	7.337	-4.935	1511.355	1499.634	1500.366	-1.802	3.511	-2.687	0.000	6.124	-7.273
304154.205	NaN	2.228	7.337	-4.946	1509.890	1500.366	1500.366	-1.740	3.740	-2.824	0.077	6.048	-7.273
304155.182	NaN	2.239	7.337	-4.967	1510.623	1500.366	1501.099	-1.649	3.695	-2.962	0.000	5.971	-7.349
304156.158	NaN	2.239	7.337	-4.978	1511.355	1500.366	1500.366	-1.924	3.634	-2.901	0.153	5.971	-7.426
304157.135	NaN	2.239	7.348	-4.967	1510.623	1501.099	1500.366	-2.153	3.618	-2.840	0.077	5.971	-7.273
304158.112	NaN	2.239	7.348	-4.957	1509.890	1500.366	1500.366	-2.046	3.664	-2.779	0.077	5.971	-7.273
304159.088	NaN	2.228	7.348	-4.957	1510.623	1500.366	1499.634	-1.817	3.588	-2.748	0.077	5.971	-7.273
304160.065	NaN	2.239	7.348	-4.946	1510.623	1500.366	1501.099	-1.985	3.634	-2.885	0.077	5.971	-7.196
304161.041	NaN	2.250	7.348	-4.946	1509.890	1500.366	1500.366	-1.924	3.679	-2.763	0.153	6.048	-7.349
304162.018	NaN	2.250	7.348	-4.946	1510.623	1499.634	1501.832	-1.664	3.771	-2.718	0.153	5.971	-7.349
304162.994	NaN	2.239	7.348	-4.957	1509.890	1500.366	1500.366	-1.908	3.695	-2.519	0.077	5.895	-7.273
304163.971	NaN	2.239	7.348	-4.978	1509.158	1499.634	1500.366	-2.000	3.695	-2.641	0.153	5.971	-7.273
304164.948	NaN	2.261	7.359	-4.967	1510.623	1500.366	1500.366	-1.603	3.679	-2.885	0.077	6.124	-7.426
304165.924	NaN	2.250	7.337	-4.978	1510.623	1499.634	1500.366	-1.466	3.771	-2.870	0.153	6.048	-7.273
304166.901	NaN	2.261	7.337	-4.946	1509.158	1498.168	1498.168	-1.603	3.893	-2.779	0.077	5.971	-7.349
304167.877	NaN	2.261	7.337	-4.978	1509.890	1498.901	1501.099	-1.924	3.679	-2.748	0.077	5.971	-7.196
304168.854	NaN	2.261	7.326	-4.957	1509.890	1500.366	1499.634	-1.939	3.817	-2.565	0.153	6.048	-7.502
304169.830	NaN	2.261	7.326	-4.957	1510.623	1500.366	1500.366	-1.893	3.969	-2.489	0.077	6.048	-7.349
304170.807	3736843118.215	2.261	7.326	-4.967	1511.355	1500.366	1500.366	-1.863	3.756	-2.550	0.077	5.895	-7.426
304171.783	NaN	2.250	7.337	-4.957	1509.890	1498.901	1499.634	-2.046	3.527	-2.580	0.000	5.971	-7.426
304172.760	NaN	2.250	7.337	-4.957	1510.623	1499.634	1499.634	-2.031	3.496	-2.611	0.077	5.971	-7.426
304173.737	NaN	2.250	7.326	-4.957	1511.355	1501.099	1499.634	-1.863	3.649	-2.656	0.153	6.048	-7.349
304174.713	NaN	2.239	7.315	-4.957	1510.623	1500.366	1499.634	-1.939	3.710	-2.595	0.000	5.971	-7.426
304175.690	NaN	2.239	7.315	-4.946	1510.623	1499.634	1501.832	-1.969	3.634	-2.534	0.077	6.124	-7.349
304176.666	NaN	2.239	7.315	-4.946	1510.623	1499.634	1500.366	-1.969	3.557	-2.733	0.077	5.971	-7.426
304177.643	NaN	2.239	7.315	-4.967	1511.355	1501.099	1500.366	-1.954	3.328	-2.748	0.153	5.895	-7.196
304178.619	NaN	2.239	7.326	-4.978	1510.623	1500.366	1499.634	-1.985	3.496	-2.901	0.153	5.895	-7.349
304179.596	NaN	2.228	7.315	-4.978	1509.890	1500.366	1500.366	-1.863	3.496	-2.916	0.153	5.971	-7.349
304180.573	NaN	2.228	7.315	-4.967	1510.623	1500.366	1498.901	-1.802	3.542	-2.656	0.230	5.971	-7.273
304181.549	NaN	2.228	7.315	-4.978	1509.890	1499.634	1501.099	-1.847	3.649	-2.641	0.153	6.124	-7.196
304182.526	NaN	2.239	7.326	-4.978	1509.158	1500.366	1500.366	-1.847	3.664	-2.687	0.153	6.048	-7.426
304183.502	NaN	2.239	7.326	-4.978	1509.890	1499.634	1501.099	-1.786	3.511	-2.687	0.077	5.971	-7.120
304184.479	NaN	2.239	7.326	-4.978	1509.890	1500.366	1501.099	-2.015	3.542	-2.763	0.153	5.895	-7.349
304185.455	NaN	2.239	7.326	-4.978	1509.890	1499.634	1500.366	-2.061	3.496	-2.779	0.077	6.124	-7.273
304186.432	NaN	2.239	7.326	-4.989	1510.623	1500.366	1500.366	-2.015	3.435	-2.733	0.077	5.971	-7.273
304187.408	NaN	2.239	7.337	-4.978	1511.355	1501.099	1499.634	-1.939	3.649	-2.779	0.077	5.971	-7.349
304188.385	NaN	2.239	7.326	-4.978	1509.890	1501.099	1498.901	-1.802	3.603	-2.779	0.000	5.971	-7.502
304189.362	NaN	2.250	7.337	-4.978	1511.355	1499.634	1500.366	-1.725	3.511	-2.702	0.153	5.895	-7.349
304190.338	NaN	2.250	7.337	-4.978	1511.355	1499.634	1501.099	-1.679	3.481	-2.824	0.077	5.971	-7.349
304191.315	NaN	2.261	7.348	-4.957	1511.355	1500.366	1500.366	-1.664	3.466	-2.824	0.153	6.048	-7.426
304192.291	NaN	2.261	7.348	-4.957	1510.623	1500.366	1499.634	-1.863	3.542	-2.901	0.077	5.818	-7.273
304193.268	NaN	2.250	7.348	-4.957	1509.158	1499.634	1501.099	-1.878	3.710	-2.840	0.153	5.971	-7.196
304194.244	NaN	2.250	7.348	-4.957	1509.890	1499.634	1500.366	-1.908	3.725	-2.763	0.000	6.048	-7.349
304195.221	NaN	2.250	7.337	-4.967	1510.623	1501.099	1499.634	-1.939	3.649	-2.809	0.153	6.048	-7.426
304196.198	NaN	2.250	7.326	-4.957	1510.623	1500.366	1501.099	-1.939	3.450	-2.779	0.077	5.971	-7.349
304197.174	NaN	2.250	7.326	-4.957	1510.623	1500.366	1500.366	-1.832	3.374	-2.824	0.153	6.048	-7.349
304198.151	NaN	2.250	7.326	-4.967	1511.355	1499.634	1500.366	-1.756	3.496	-2.733	-0.077	6.048	-7.273
304199.127	NaN	2.239	7.326	-4.978	1510.623	1499.634	1499.634	-1.939	3.634	-2.656	0.077	5.971	-7.273
304200.104	NaN	2.239	7.326	-4.967	1511.355	1500.366	1500.366	-1.954	3.557	-2.656	0.077	5.971	-7.273
304201.080	NaN	2.239	7.337	-4.989	1509.890	1499.634	1500.366	-1.969	3.527	-2.473	0.153	6.124	-7.349
304202.057	NaN	2.250	7.337	-4.967	1508.425	1499.634	1500.366	-1.954	3.481	-2.458	0.153	5.895	-7.196
304203.033	NaN	2.250	7.348	-4.967	1509.890	1500.366	1500.366	-1.939	3.420	-2.504	0.077	6.048	-7.349
304204.010	NaN	2.239	7.348	-4.967	1511.355	1500.366	1500.366	-1.847	3.573	-2.611	0.077	6.048	-7.426
304204.987	NaN	2.250	7.337	-4.957	1510.623	1500.366	1498.901	-1.832	3.649	-2.687	0.153	6.048	-7.349
304205.963	NaN	2.250	7.337	-4.967	1510.623	1499.634	1500.366	-1.863	3.679	-2.748	0.077	6.048	-7.273
304206.940	NaN	2.261	7.337	-4.967	1510.623	1499.634	1500.366	-1.939	3.557	-2.718	0.153	5.971	-6.124
304207.916	NaN	2.250	7.337	-4.967	1509.890	1499.634	1502.564	-1.939	3.450	-2.855	0.077	6.048	-7.349
304208.893	NaN	2.272	7.348	-4.967	1510.623	1501.099	1500.366	-1.695	3.405	-2.656	0.077	6.048	-7.120
304209.869	NaN	2.272	7.348	-4.967	1509.890	1500.366	1500.366	-1.802	3.542	-2.473	0.077	6.048	-7.196
304210.846	NaN	2.261	7.348	-4.957	1510.623	1499.634	1501.099	-1.847	3.557	-2.611	0.153	5.895	-7.196
304211.823	NaN	2.261	7.348	-4.957	1509.890	1500.366	1499.634	-1.924	3.374	-2.718	0.153	6.048	-7.273
304212.799	NaN	2.261	7.337	-4.957	1511.355	1499.634	1500.366	-2.076	3.282	-2.733	0.000	6.124	-7.349
304213.776	NaN	2.272	7.337	-4.957	1509.158	1499.634	1501.099	-2.000	3.313	-2.824	0.077	5.971	-7.349
304214.752	NaN	2.261	7.337	-4.946	1512.088	1499.634	1501.099	-1.786	3.588	-2.718	0.230	5.895	-7.349
304215.729	NaN	2.250	7.337	-4.946	1510.623	1500.366	1500.366	-1.634	3.573	-2.733	0.000	5.971	-7.273
304216.705	NaN	2.250	7.337	-4.946	1509.158	1500.366	1501.099	-1.756	3.511	-2.748	0.077	5.971	-7.273
304217.682	NaN	2.250	7.337	-4.946	1511.355	1499.634	1500.366	-1.863	3.389	-2.779	0.077	5.895	-7.196
304218.658	NaN	2.250	7.337	-4.946	1510.623	1500.366	1499.634	-1.817	3.389	-2.763	0.153	5.971	-7.273
304219.635	NaN	2.250	7.337	-4.957	1510.623	1500.366	1501.099	-1.786	3.405	-2.702	0.000	5.971	-7.273
304220.612	NaN	2.250	7.348	-4.946	1510.623	1499.634	1500.366	-1.954	3.573	-2.565	0.077	6.048	-7.273
304221.588	NaN	2.239	7.337	-4.957	1510.623	1499.634	1499.634	-1.924	3.817	-2.702	0.077	5.971	-7.273
304222.565	NaN	2.239	7.348	-4.957	1510.623	1501.099	1501.099	-1.618	3.695	-2.824	0.000	6.124	-7.349
304287.994	NaN	2.250	7.337	-4.967	1509.158	1498.168	1501.099	-1.603	3.588	-2.580	-0.077	5.971	-7.196
304288.971	NaN	2.261	7.337	-4.978	1511.355	1501.099	1500.366	-1.649	3.496	-2.595	0.077	5.971	-7.273
304289.948	NaN	2.261	7.326	-4.989	1508.425	1500.366	1500.366	-1.588	3.221	-2.626	0.077	5.971	-7.426
304290.924	NaN	2.272	7.337	-4.967	1509.158	1500.366	1499.634	-1.603	3.099	-2.611	0.000	5.971	-7.196
304291.901	NaN	2.261	7.326	-4.957	1510.623	1501.099	1500.366	-1.664	3.252	-2.702	0.153	6.048	-6.201
304292.877	NaN	2.261	7.326	-4.967	1509.890	1498.168	1500.366	-1.740	3.405	-2.763	0.077	5.895	-7.120
304293.854	NaN	2.261	7.337	-4.946	1509.890	1501.099	1501.832	-1.786	3.511	-2.702	0.077	5.971	-7.120
304294.830	NaN	2.239	7.326	-4.957	1510.623	1499.634	1499.634	-1.496	3.405	-2.748	0.153	5.971	-7.196
304295.807	NaN	2.250	7.337	-4.935	1509.890	1500.366	1500.366	-1.374	3.206	-2.595	0.230	5.895	-7.349
304296.783	NaN	2.261	7.348	-4.946	1510.623	1499.634	1500.366	-1.695	3.389	-2.458	0.077	6.048	-7.349
304297.760	NaN	2.250	7.348	-4.957	1509.890	1500.366	1498.901	-1.786	3.405	-2.672	0.077	5.971	-7.502
304298.737	NaN	2.261	7.348	-4.935	1509.890	1499.634	1500.366	-1.756	3.374	-2.809	0.153	5.895	-7.273
304299.713	NaN	2.261	7.337	-4.946	1510.623	1499.634	1501.099	-1.756	3.420	-2.885	0.000	5.895	-7.349
304300.690	NaN	2.250	7.348	-4.957	1510.623	1498.901	1500.366	-1.740	3.359	-2.855	0.153	5.895	-7.273
304301.666	NaN	2.239	7.337	-4.946	1509.890	1499.634	1501.832	-1.679	3.267	-2.687	0.230	5.971	-7.273
304302.643	NaN	2.239	7.348	-4.946	1512.088	1500.366	1500.366	-1.679	3.328	-2.427	0.077	6.124	-7.349
304303.619	NaN	2.239	7.337	-4.957	1509.890	1499.634	1501.832	-1.649	3.420	-2.397	0.000	5.818	-7.349
304304.596	NaN	2.250	7.348	-4.935	1510.623	1500.366	1500.366	-1.695	3.481	-2.885	0.000	5.971	-7.273
304305.573	NaN	2.250	7.337	-4.946	1509.890	1500.366	1499.634	-1.725	3.405	-2.794	0.153	5.971	-7.273
304306.549	NaN	2.239	7.326	-4.946	1508.425	1500.366	1499.634	-1.985	3.374	-2.626	0.153	5.818	-7.196
304307.526	NaN	2.250	7.337	-4.924	1509.890	1499.634	1499.634	-1.939	3.282	-2.550	0.077	5.971	-7.273
304308.502	NaN	2.239	7.326	-4.946	1509.890	1499.634	1499.634	-1.710	3.313	-2.519	0.153	5.971	-7.349
304309.479	NaN	2.261	7.337	-4.957	1511.355	1500.366	1499.634	-1.725	3.466	-2.687	0.077	5.971	-7.349
304310.455	NaN	2.250	7.337	-4.967	1511.355	1499.634	1499.634	-1.634	3.450	-2.641	0.077	6.124	-7.273
304311.432	NaN	2.272	7.348	-4.978	1511.355	1500.366	1501.099	-1.588	3.420	-2.870	0.077	5.895	-7.273
304312.408	NaN	2.261	7.348	-4.967	1510.623	1498.901	1500.366	-1.740	3.267	-2.809	0.153	5.971	-7.273
304313.385	NaN	2.261	7.337	-4.967	1510.623	1499.634	1500.366	-1.924	3.069	-2.595	0.306	5.971	-7.349
304314.362	NaN	2.250	7.337	-4.967	1510.623	1500.366	1500.366	-1.908	3.145	-2.611	0.077	5.895	-7.120
304315.338	NaN	2.250	7.337	-4.967	1510.623	1499.634	1500.366	-1.740	3.359	-2.565	0.077	6.048	-7.502
304316.315	NaN	2.239	7.326	-4.946	1510.623	1500.366	1499.634	-1.847	3.481	-2.672	0.153	6.124	-7.196
304317.291	NaN	2.239	7.326	-4.935	1511.355	1499.634	1501.832	-1.878	3.405	-2.718	0.230	5.971	-7.273
304318.268	NaN	2.239	7.326	-4.946	1510.623	1500.366	1500.366	-1.710	3.099	-2.641	0.000	6.124	-7.349
304319.244	NaN	2.250	7.326	-4.946	1510.623	1499.634	1501.099	-1.466	3.069	-2.534	0.077	5.971	-7.273
304320.221	NaN	2.250	7.337	-4.957	1511.355	1501.099	1501.099	-1.542	3.374	-2.550	0.077	5.971	-7.273
304321.198	NaN	2.250	7.326	-4.957	1511.355	1498.901	1501.099	-1.618	3.389	-2.626	0.077	5.895	-7.196
304322.174	NaN	2.261	7.337	-4.946	1511.355	1501.099	1499.634	-1.634	3.374	-2.534	0.077	6.048	-7.349
304323.151	NaN	2.261	7.326	-4.957	1510.623	1500.366	1499.634	-1.435	3.237	-2.595	0.153	5.895	-7.273
304324.127	NaN	2.261	7.326	-4.957	1510.623	1499.634	1499.634	-1.618	3.435	-2.565	0.077	6.048	-7.273
304325.104	NaN	2.261	7.315	-4.957	1510.623	1501.099	1499.634	-1.893	3.359	-2.611	0.077	6.048	-7.349
304326.080	NaN	2.250	7.304	-4.957	1509.890	1499.634	1500.366	-1.893	3.374	-2.763	0.000	5.971	-7.273
304327.057	NaN	2.250	7.315	-4.957	1509.158	1500.366	1499.634	-2.000	3.466	-2.687	0.077	5.895	-7.273
304328.033	NaN	2.228	7.315	-4.957	1510.623	1499.634	1500.366	-1.832	3.420	-2.565	0.153	5.895	-7.273
304329.010	NaN	2.228	7.315	-4.967	1509.890	1499.634	1498.901	-1.649	3.359	-2.779	0.000	5.971	-7.196
304329.987	NaN	2.228	7.315	-4.967	1509.890	1498.901	1499.634	-1.649	3.099	-2.901	0.153	5.971	-7.120
304330.963	NaN	2.239	7.326	-4.967	1510.623	1500.366	1499.634	-1.603	3.221	-2.840	0.077	5.895	-6.124
304331.940	NaN	2.228	7.315	-4.978	1510.623	1499.634	1501.832	-1.634	3.374	-2.687	0.153	5.971	-7.273
304332.916	NaN	2.228	7.315	-4.957	1510.623	1499.634	1500.366	-1.496	3.466	-2.718	0.077	5.895	-7.273
304333.893	NaN	2.239	7.326	-4.967	1510.623	1500.366	1499.634	-1.389	3.435	-2.763	0.077	6.048	-7.273
304334.869	NaN	2.239	7.315	-4.946	1510.623	1499.634	1501.832	-1.466	3.374	-2.687	0.077	5.971	-7.273
304335.846	NaN	2.250	7.326	-4.957	1510.623	1499.634	1499.634	-1.527	3.466	-2.702	0.000	5.971	-7.273
304336.823	NaN	2.250	7.315	-4.957	1509.890	1499.634	1500.366	-1.618	3.313	-2.641	0.230	5.895	-7.196
304337.799	NaN	2.250	7.326	-4.946	1509.890	1500.366	1499.634	-1.679	3.160	-2.519	0.153	5.971	-7.426
304338.776	NaN	2.261	7.337	-4.924	1509.890	1500.366	1501.099	-1.664	3.237	-2.351	0.000	5.895	-7.273
304339.752	NaN	2.239	7.326	-4.946	1510.623	1499.634	1501.099	-1.756	3.252	-2.504	0.000	5.895	-7.349
304340.729	NaN	2.250	7.337	-4.924	1509.890	1499.634	1500.366	-1.771	3.359	-2.718	0.077	5.895	-7.273
304341.705	NaN	2.250	7.337	-4.946	1510.623	1500.366	1499.634	-1.786	3.344	-2.611	0.000	5.971	-7.273
304342.682	NaN	2.250	7.337	-4.946	1509.890	1498.901	1498.901	-1.740	3.435	-2.519	0.077	5.971	-7.349
304343.658	NaN	2.239	7.337	-4.957	1510.623	1499.634	1499.634	-1.588	3.374	-2.534	0.153	5.971	-7.426
304344.635	NaN	2.250	7.326	-4.957	1509.890	1498.901	1499.634	-1.481	3.313	-2.595	0.000	5.971	-7.349
304345.612	NaN	2.261	7.337	-4.946	1509.890	1500.366	1499.634	-1.435	3.267	-2.519	0.153	6.048	-7.273
304346.588	NaN	2.239	7.326	-4.946	1507.692	1499.634	1499.634	-1.527	3.313	-2.565	0.153	5.971	-7.196
304347.565	NaN	2.239	7.326	-4.935	1509.158	1499.634	1499.634	-1.527	3.221	-2.672	0.077	5.971	-7.349
304348.541	NaN	2.250	7.326	-4.935	1509.158	1499.634	1498.901	-1.786	3.252	-2.580	0.153	5.895	-7.273
304349.518	NaN	2.239	7.326	-4.935	1510.623	1500.366	1500.366	-1.802	3.359	-2.595	-0.077	5.895	-7.196
304350.494	NaN	2.239	7.337	-4.935	1509.890	1499.634	1501.832	-1.511	3.405	-2.641	0.153	5.895	-7.349
304351.471	NaN	2.228	7.348	-4.946	1512.088	1500.366	1499.634	-1.450	3.466	-2.794	0.077	5.895	-7.120
304352.448	NaN	2.239	7.326	-4.957	1509.890	1499.634	1501.099	-1.511	3.221	-2.687	0.077	5.895	-7.273
304353.424	NaN	2.239	7.337	-4.957	1510.623	1500.366	1500.366	-1.588	3.038	-2.519	0.000	5.895	-7.120
304354.401	NaN	2.239	7.337	-4.946	1510.623	1498.901	1500.366	-1.405	3.176	-2.534	0.153	5.895	-7.426
304355.377	NaN	2.250	7.348	-4.935	1508.425	1500.366	1500.366	-1.557	3.282	-2.565	0.077	6.124	-7.349
304356.354	NaN	2.239	7.337	-4.946	1510.623	1501.099	1501.099	-1.756	3.298	-2.641	0.077	6.048	-7.273
304357.330	NaN	2.239	7.337	-4.946	1511.355	1499.634	1499.634	-1.649	3.374	-2.595	0.153	6.048	-7.426
304358.307	NaN	2.239	7.337	-4.946	1510.623	1500.366	1500.366	-1.695	3.405	-2.382	0.077	5.971	-7.349
304359.283	NaN	2.239	7.337	-4.967	1511.355	1499.634	1501.099	-1.542	3.466	-2.458	0.153	5.895	-7.349
304360.260	NaN	2.239	7.326	-4.967	1510.623	1499.634	1500.366	-1.328	3.450	-2.489	0.077	5.895	-7.273
304361.237	NaN	2.239	7.337	-4.957	1510.623	1499.634	1499.634	-1.466	3.237	-2.504	0.077	6.048	-7.273
304362.213	NaN	2.239	7.337	-4.957	1509.890	1500.366	1498.901	-1.664	2.992	-2.641	0.077	5.895	-7.349
304363.190	NaN	2.239	7.337	-4.957	1510.623	1499.634	1499.634	-1.924	3.130	-2.565	0.153	5.818	-7.196
304364.166	NaN	2.228	7.326	-4.957	1509.890	1499.634	1500.366	-1.649	3.206	-2.489	0.153	6.048	-7.426
304368.073	NaN	2.239	7.326	-4.989	1509.158	1499.634	1499.634	-1.679	3.191	-2.687	0.153	5.971	-7.273
304369.049	NaN	2.239	7.326	-4.989	1510.623	1499.634	1500.366	-1.389	3.176	-2.565	0.077	5.971	-7.196
304370.026	NaN	2.239	7.326	-4.989	1509.890	1500.366	1498.901	-1.282	3.313	-2.672	0.153	5.971	-7.120
304371.002	NaN	2.250	7.326	-4.978	1509.158	1499.634	1501.832	-1.298	3.481	-2.824	0.000	5.895	-7.426
304371.979	NaN	2.250	7.337	-4.957	1510.623	1499.634	1500.366	-1.466	3.542	-2.748	0.077	5.895	-7.196
304372.955	NaN	2.239	7.337	-4.978	1509.890	1499.634	1500.366	-1.450	3.298	-2.504	0.000	5.818	-7.426
304373.932	NaN	2.239	7.337	-4.978	1509.890	1499.634	1500.366	-1.573	3.145	-2.702	-0.153	5.895	-7.196
304374.908	NaN	2.239	7.348	-4.957	1509.158	1499.634	1501.832	-1.756	3.313	-2.824	0.153	6.124	-7.196
304375.885	NaN	2.239	7.348	-4.957	1510.623	1499.634	1500.366	-1.542	3.511	-2.824	0.153	6.048	-7.273
304376.862	NaN	2.250	7.337	-4.946	1509.890	1499.634	1501.099	-1.527	3.389	-2.733	0.153	5.971	-7.273
304377.838	NaN	2.239	7.337	-4.957	1509.890	1500.366	1498.901	-1.557	3.206	-2.550	0.077	5.971	-7.349
304378.815	NaN	2.250	7.337	-4.957	1511.355	1500.366	1498.901	-1.603	3.099	-2.656	0.077	5.971	-7.349
304379.791	NaN	2.239	7.326	-4.967	1509.890	1500.366	1500.366	-1.481	3.282	-2.641	0.230	5.971	-7.120
304380.768	NaN	2.239	7.326	-4.978	1509.158	1499.634	1500.366	-1.511	3.176	-2.626	0.077	5.818	-7.426
304381.744	NaN	2.239	7.337	-4.967	1510.623	1500.366	1499.634	-1.695	3.252	-2.687	0.077	5.971	-7.426
304382.721	NaN	2.239	7.326	-4.978	1510.623	1500.366	1498.901	-1.695	3.206	-2.809	0.077	6.048	-7.273
304383.698	NaN	2.239	7.326	-4.978	1510.623	1500.366	1499.634	-1.618	3.130	-2.733	0.153	5.895	-7.273
304384.674	NaN	2.250	7.326	-4.978	1509.890	1500.366	1500.366	-1.710	3.206	-2.519	0.153	5.971	-7.426
304385.651	NaN	2.239	7.326	-4.978	1510.623	1500.366	1500.366	-1.786	3.099	-2.565	0.153	5.895	-7.196
304386.627	NaN	2.250	7.326	-4.978	1510.623	1500.366	1501.099	-1.511	3.038	-2.763	0.077	6.048	-7.273
304387.604	NaN	2.261	7.326	-4.967	1511.355	1500.366	1499.634	-1.374	3.130	-2.779	0.077	5.971	-7.349
304388.580	NaN	2.250	7.337	-4.978	1510.623	1499.634	1500.366	-1.527	3.237	-2.595	0.077	6.048	-7.349
304389.557	NaN	2.261	7.337	-4.978	1509.890	1499.634	1501.099	-1.313	3.176	-2.489	0.077	5.971	-7.349
304390.533	NaN	2.261	7.337	-4.978	1509.890	1500.366	1500.366	-1.282	3.191	-2.611	0.000	5.971	-7.273
304391.510	NaN	2.250	7.337	-4.989	1511.355	1499.634	1500.366	-1.420	3.206	-2.504	0.153	5.971	-7.273
304392.487	NaN	2.261	7.348	-4.978	1510.623	1500.366	1500.366	-1.603	3.359	-2.305	0.077	5.971	-7.426
304393.463	NaN	2.250	7.359	-4.978	1510.623	1500.366	1500.366	-1.420	3.450	-2.534	0.077	6.048	-7.502
304394.440	NaN	2.239	7.348	-4.978	1510.623	1499.634	1501.099	-1.603	3.374	-2.794	0.077	5.895	-7.426
304395.416	NaN	2.239	7.348	-4.978	1510.623	1499.634	1500.366	-1.588	3.145	-2.824	0.077	5.971	-7.349
304396.393	NaN	2.239	7.348	-4.957	1511.355	1500.366	1500.366	-1.573	3.069	-2.580	0.230	6.048	-7.349
304397.369	NaN	2.250	7.348	-4.957	1511.355	1499.634	1500.366	-1.374	3.267	-2.641	-0.077	5.971	-7.349
304398.346	NaN	2.250	7.337	-4.946	1510.623	1499.634	1500.366	-1.481	3.267	-2.794	0.077	5.895	-7.273
304399.323	NaN	2.250	7.348	-4.935	1510.623	1500.366	1500.366	-1.695	3.176	-2.718	0.153	5.971	-7.196
304400.299	NaN	2.250	7.337	-4.935	1510.623	1500.366	1500.366	-1.756	3.145	-2.580	0.077	5.895	-7.273
304401.276	NaN	2.261	7.348	-4.924	1511.355	1500.366	1500.366	-1.466	3.145	-2.244	0.230	5.895	-7.426
304402.252	NaN	2.272	7.337	-4.935	1510.623	1501.099	1499.634	-1.435	3.176	-2.229	0.077	6.048	-7.349
304403.229	NaN	2.261	7.326	-4.935	1508.425	1501.099	1499.634	-1.435	3.206	-2.458	0.077	6.048	-7.273
304404.205	NaN	2.261	7.326	-4.946	1509.158	1499.634	1499.634	-1.450	3.267	-2.595	0.000	5.818	-7.349
304405.182	NaN	2.261	7.337	-4.924	1509.890	1500.366	1501.099	-1.435	3.435	-2.550	0.077	6.048	-7.196
304406.158	NaN	2.261	7.337	-4.935	1511.355	1500.366	1498.901	-1.405	3.328	-2.519	0.230	5.971	-7.273
304407.135	NaN	2.250	7.348	-4.946	1511.355	1500.366	1498.901	-1.725	3.191	-2.550	0.077	5.971	-7.349
304408.112	NaN	2.250	7.337	-4.957	1511.355	1499.634	1501.099	-1.832	3.130	-2.656	0.000	5.971	-7.349
304409.088	NaN	2.239	7.337	-4.967	1510.623	1500.366	1498.901	-1.588	3.160	-2.702	0.077	5.895	-7.196
304410.065	NaN	2.250	7.337	-4.978	1510.623	1500.366	1501.099	-1.511	3.115	-2.702	0.153	5.971	-7.349
304411.041	NaN	2.250	7.337	-4.967	1509.890	1499.634	1499.634	-1.344	3.252	-2.733	0.230	5.971	-7.426
304412.018	NaN	2.239	7.326	-4.967	1510.623	1499.634	1501.099	-1.389	3.267	-2.641	0.153	6.048	-7.426
304412.994	NaN	2.239	7.348	-4.967	1510.623	1498.168	1500.366	-1.450	3.160	-2.718	0.077	5.971	-7.273
304413.971	NaN	2.239	7.359	-4.957	1511.355	1499.634	1501.099	-1.557	3.115	-2.687	0.230	5.895	-7.426
304414.948	NaN	2.228	7.348	-4.946	1509.158	1498.901	1499.634	-1.511	3.176	-2.534	0.077	5.895	-7.349
304415.924	NaN	2.239	7.348	-4.946	1509.890	1499.634	1501.832	-1.496	3.160	-2.565	0.153	5.895	-8.498
304416.901	NaN	2.239	7.337	-4.957	1512.088	1499.634	1500.366	-1.466	3.008	-2.595	0.077	6.048	-7.349
304417.877	NaN	2.250	7.326	-4.967	1509.890	1498.901	1501.099	-1.435	3.069	-2.580	0.077	6.048	-7.349
304418.854	NaN	2.261	7.326	-4.967	1511.355	1500.366	1500.366	-1.450	3.267	-2.397	0.077	6.048	-7.349
304419.830	NaN	2.250	7.315	-4.967	1509.890	1499.634	1501.832	-1.405	3.374	-2.305	0.153	5.895	-7.196
304420.807	NaN	2.250	7.348	-4.946	1510.623	1499.634	1500.366	-1.695	3.267	-2.351	0.077	5.895	-7.196
304421.783	NaN	2.261	7.348	-4.946	1509.158	1501.099	1500.366	-1.618	3.053	-2.519	0.153	5.895	-7.349
304422.760	NaN	2.250	7.326	-4.946	1511.355	1500.366	1498.901	-1.542	3.008	-2.534	0.077	5.971	-7.196
304423.737	NaN	2.250	7.326	-4.946	1509.890	1501.099	1500.366	-1.374	3.069	-2.672	0.153	5.895	-7.426
304424.713	NaN	2.250	7.337	-4.957	1509.890	1501.099	1500.366	-1.511	3.038	-2.809	0.230	5.971	-7.426
304425.690	NaN	2.239	7.337	-4.946	1509.890	1500.366	1500.366	-1.557	3.038	-2.534	0.153	5.895	-7.349
304426.666	NaN	2.239	7.337	-4.946	1509.890	1499.634	1501.099	-1.389	3.130	-2.427	0.153	5.895	-7.349
304427.643	NaN	2.250	7.326	-4.957	1511.355	1500.366	1501.832	-1.206	3.145	-2.412	0.000	5.742	-7.196
304428.619	NaN	2.250	7.337	-4.967	1510.623	1501.099	1500.366	-1.176	3.069	-2.458	0.153	6.048	-7.349
304429.596	NaN	2.250	7.337	-4.967	1510.623	1499.634	1501.832	-1.511	3.099	-2.458	0.230	6.048	-7.426
304430.573	NaN	2.239	7.337	-4.957	1511.355	1500.366	1500.366	-1.649	2.992	-2.687	0.153	5.895	-7.196
304431.549	NaN	2.228	7.326	-4.957	1511.355	1500.366	1499.634	-1.542	3.023	-2.718	0.077	5.895	-7.349
304432.526	NaN	2.217	7.326	-4.957	1509.890	1499.634	1499.634	-1.511	2.962	-2.672	0.077	5.971	-7.426
304433.502	NaN	2.217	7.326	-4.957	1510.623	1499.634	1498.901	-1.344	3.053	-2.687	0.153	5.971	-7.349
304434.479	3736843118.369	2.228	7.326	-4.946	1509.890	1498.901	1499.634	-1.511	3.023	-2.641	-0.077	5.971	-7.426
304435.455	NaN	2.228	7.326	-4.946	1509.890	1499.634	1501.099	-1.344	3.145	-2.458	0.000	5.971	-7.426
304436.432	NaN	2.228	7.326	-4.946	1509.890	1499.634	1500.366	-1.389	3.115	-2.382	0.077	5.895	-7.273
304437.408	NaN	2.239	7.337	-4.946	1509.890	1499.634	1501.099	-1.359	3.038	-2.779	0.230	5.895	-7.196
304438.385	NaN	2.239	7.348	-4.957	1510.623	1499.634	1500.366	-1.313	3.115	-2.916	0.077	6.048	-7.196
304439.362	NaN	2.239	7.348	-4.946	1510.623	1500.366	1500.366	-1.176	3.115	-2.855	0.077	5.971	-7.120
304440.338	NaN	2.228	7.337	-4.946	1509.890	1500.366	1499.634	-1.206	3.176	-2.656	0.077	5.971	-7.349
304441.315	NaN	2.228	7.326	-4.957	1509.890	1499.634	1500.366	-1.282	3.282	-2.611	0.153	6.124	-7.349
304442.291	NaN	2.228	7.348	-4.946	1509.890	1499.634	1498.901	-1.450	3.221	-2.550	0.153	6.201	-7.349
304443.268	NaN	2.250	7.359	-4.935	1510.623	1499.634	1500.366	-1.511	3.115	-2.504	0.230	6.048	-7.349
304444.244	NaN	2.250	7.348	-4.935	1509.890	1500.366	1500.366	-1.405	3.008	-2.534	0.077	5.971	-7.349
304445.221	NaN	2.261	7.348	-4.935	1511.355	1499.634	1500.366	-1.511	2.931	-2.504	0.000	5.895	-7.273
304446.198	NaN	2.272	7.359	-4.924	1509.890	1501.099	1501.099	-1.542	2.962	-2.641	0.077	5.895	-7.502
304447.174	NaN	2.272	7.348	-4.935	1510.623	1499.634	1502.564	-1.542	2.992	-2.733	0.153	5.971	-7.273
304448.151	NaN	2.272	7.348	-4.935	1510.623	1500.366	1500.366	-1.588	3.023	-2.687	0.153	5.971	-7.273
304449.127	NaN	2.250	7.337	-4.957	1510.623	1499.634	1501.099	-1.420	2.992	-2.672	0.153	5.895	-7.273
304450.104	NaN	2.250	7.348	-4.957	1509.890	1500.366	1499.634	-1.511	2.870	-2.809	0.230	5.971	-7.273
304451.080	NaN	2.239	7.348	-4.957	1510.623	1500.366	1500.366	-1.450	2.885	-2.748	0.230	5.971	-7.196
304452.057	NaN	2.239	7.348	-4.957	1510.623	1500.366	1500.366	-1.344	2.962	-2.519	0.153	6.124	-7.273
304453.033	NaN	2.239	7.337	-4.967	1509.158	1499.634	1499.634	-1.313	2.947	-2.534	0.153	5.971	-7.426
304454.010	NaN	2.239	7.337	-4.957	1509.890	1498.901	1498.901	-1.191	2.977	-2.702	0.153	5.971	-7.349
304454.987	NaN	2.239	7.348	-4.946	1510.623	1501.099	1501.099	-1.313	2.855	-2.763	0.000	6.048	-7.502
304455.963	NaN	2.239	7.337	-4.967	1510.623	1499.634	1500.366	-1.496	2.870	-2.870	0.077	5.895	-7.349
304456.940	NaN	2.250	7.337	-4.946	1509.890	1498.901	1500.366	-1.405	3.023	-2.550	0.077	5.971	-7.120
304457.916	NaN	2.250	7.326	-4.967	1510.623	1500.366	1499.634	-1.160	2.931	-2.504	0.153	5.971	-7.349
304458.893	NaN	2.250	7.315	-4.957	1510.623	1499.634	1500.366	-1.221	3.023	-2.702	0.306	5.971	-7.273
304459.869	NaN	2.261	7.326	-4.946	1510.623	1499.634	1499.634	-1.328	3.115	-2.763	0.077	6.048	-7.273
304460.846	NaN	2.261	7.337	-4.946	1511.355	1499.634	1500.366	-1.221	2.824	-2.733	0.153	5.971	-7.426
304461.823	NaN	2.261	7.337	-4.957	1508.425	1498.901	1499.634	-1.344	2.641	-2.702	0.077	5.971	-7.349
304462.799	NaN	2.250	7.337	-4.967	1509.890	1500.366	1499.634	-1.298	2.885	-2.656	0.153	5.895	-7.426
304463.776	NaN	2.250	7.337	-4.957	1508.425	1499.634	1499.634	-1.389	2.931	-2.443	0.000	5.971	-7.273
304464.752	NaN	2.261	7.337	-4.957	1509.890	1498.901	1501.099	-1.511	2.870	-2.321	0.230	6.048	-7.349
304465.729	NaN	2.250	7.337	-4.989	1509.890	1500.366	1499.634	-1.344	2.840	-2.489	0.000	5.895	-7.196
304466.705	NaN	2.250	7.326	-4.978	1510.623	1498.901	1501.832	-1.481	2.870	-2.656	0.077	5.971	-7.196
304467.682	NaN	2.261	7.348	-4.957	1510.623	1500.366	1499.634	-1.374	2.870	-2.748	0.077	5.971	-7.196
304468.658	NaN	2.250	7.348	-4.957	1509.890	1500.366	1498.168	-1.084	2.992	-2.672	0.153	5.895	-7.349
304469.635	NaN	2.239	7.337	-4.946	1510.623	1499.634	1501.099	-1.115	2.885	-2.427	0.153	5.895	-7.120
304470.612	NaN	2.250	7.337	-4.946	1510.623	1499.634	1501.832	-1.038	2.702	-2.550	0.153	5.971	-7.273
304471.588	NaN	2.250	7.337	-4.957	1509.890	1500.366	1499.634	-1.267	2.901	-2.870	0.000	5.971	-7.273
304472.565	NaN	2.250	7.337	-4.957	1510.623	1501.099	1501.832	-1.237	2.885	-2.687	0.153	5.895	-7.273
304473.541	NaN	2.250	7.337	-4.946	1510.623	1499.634	1501.099	-1.099	2.824	-2.366	0.153	5.895	-7.349
304474.518	NaN	2.250	7.326	-4.957	1509.890	1500.366	1500.366	-1.176	2.702	-2.290	0.000	6.048	-7.196
304475.494	NaN	2.239	7.337	-4.957	1510.623	1500.366	1500.366	-1.298	2.656	-2.504	-0.077	5.895	-7.273
304476.471	NaN	2.250	7.337	-4.957	1510.623	1500.366	1500.366	-1.359	2.611	-2.748	0.153	5.818	-7.426
304477.448	NaN	2.261	7.337	-4.946	1510.623	1500.366	1499.634	-1.252	2.641	-2.809	0.153	5.895	-7.043
304478.424	NaN	2.250	7.315	-4.957	1510.623	1500.366	1501.832	-1.298	2.916	-2.672	0.153	5.971	-7.120
304479.401	NaN	2.250	7.326	-4.967	1509.890	1500.366	1501.832	-1.206	3.130	-2.534	0.077	5.895	-7.349
304480.377	NaN	2.250	7.326	-4.967	1510.623	1498.901	1500.366	-1.130	2.947	-2.687	0.000	5.971	-7.426
304481.354	NaN	2.250	7.337	-4.967	1510.623	1501.099	1500.366	-1.099	2.779	-2.595	0.153	5.895	-7.349
304482.330	NaN	2.250	7.326	-4.967	1510.623	1500.366	1500.366	-1.099	2.794	-2.595	0.077	5.971	-7.349
304483.307	NaN	2.250	7.326	-4.967	1510.623	1499.634	1501.832	-1.160	2.885	-2.443	0.153	5.971	-7.273
304484.283	NaN	2.250	7.337	-4.978	1510.623	1499.634	1501.099	-1.466	2.977	-2.550	0.077	5.971	-7.120
304485.260	NaN	2.239	7.348	-4.978	1510.623	1501.099	1500.366	-1.481	2.962	-2.718	0.306	5.895	-7.273
304486.237	NaN	2.250	7.348	-4.967	1511.355	1500.366	1501.099	-1.298	2.901	-2.565	0.153	5.971	-7.349
304487.213	NaN	2.261	7.348	-4.957	1510.623	1500.366	1499.634	-1.008	2.763	-2.565	0.077	5.895	-7.349
304488.190	NaN	2.250	7.348	-4.967	1510.623	1499.634	1500.366	-1.237	2.718	-2.687	0.153	5.971	-7.196
304489.166	NaN	2.239	7.337	-4.967	1511.355	1499.634	1501.099	-1.603	2.718	-2.885	0.077	5.895	-7.196
304490.143	NaN	2.239	7.337	-4.957	1511.355	1500.366	1500.366	-1.573	2.687	-2.656	0.153	6.048	-7.349
304491.119	NaN	2.239	7.337	-4.946	1510.623	1500.366	1500.366	-1.328	2.687	-2.550	0.077	5.971	-7.273
304492.096	NaN	2.250	7.326	-4.967	1510.623	1500.366	1500.366	-1.313	2.809	-2.672	0.077	5.971	-7.273
304493.073	NaN	2.250	7.326	-4.957	1509.158	1499.634	1498.901	-1.267	2.748	-2.748	0.230	5.895	-7.273
304494.049	NaN	2.250	7.326	-4.967	1509.890	1500.366	1500.366	-1.115	2.855	-2.840	0.230	5.971	-6.201
304495.026	NaN	2.250	7.337	-4.957	1510.623	1500.366	1500.366	-1.145	2.901	-2.779	0.077	5.971	-7.426
304496.002	3736843118.491	2.250	7.337	-4.967	1510.623	1499.634	1502.564	-1.328	2.855	-2.489	0.000	6.048	-7.426
304496.979	NaN	2.250	7.337	-4.967	1511.355	1499.634	1500.366	-1.282	2.672	-2.550	0.153	6.048	-7.273
304497.955	NaN	2.239	7.337	-4.967	1511.355	1499.634	1501.832	-1.298	2.733	-2.672	0.077	5.895	-7.349
304498.932	NaN	2.250	7.337	-4.978	1510.623	1500.366	1501.099	-1.160	2.687	-2.733	0.153	5.895	-7.349
304499.908	NaN	2.261	7.337	-4.978	1510.623	1500.366	1498.168	-1.160	2.809	-2.901	0.000	6.048	-7.273
304500.885	NaN	2.261	7.337	-4.967	1510.623	1500.366	1500.366	-1.450	2.824	-2.901	0.153	6.048	-7.120
304501.862	NaN	2.261	7.337	-4.978	1510.623	1500.366	1499.634	-1.313	2.840	-2.824	0.000	5.971	-7.273
304502.838	NaN	2.250	7.326	-4.978	1510.623	1499.634	1500.366	-1.130	2.733	-2.702	0.077	6.048	-7.349
304503.815	NaN	2.250	7.326	-4.967	1509.890	1501.099	1500.366	-1.160	2.794	-2.763	0.077	5.971	-7.349
304504.791	NaN	2.261	7.326	-4.978	1510.623	1500.366	1498.901	-1.069	2.855	-2.763	0.230	5.895	-7.349
304505.768	NaN	2.261	7.315	-4.967	1510.623	1500.366	1500.366	-1.191	2.901	-2.626	0.000	5.895	-7.273
304506.744	NaN	2.250	7.315	-4.967	1509.158	1499.634	1500.366	-1.298	2.763	-2.763	0.077	5.895	-7.196
304507.721	NaN	2.239	7.315	-4.967	1510.623	1500.366	1501.099	-1.344	2.595	-2.779	0.153	6.048	-7.426
304508.698	NaN	2.239	7.326	-4.946	1511.355	1500.366	1501.832	-1.084	2.550	-2.611	0.077	6.048	-7.273
304509.674	NaN	2.250	7.337	-4.935	1510.623	1500.366	1501.099	-0.992	2.656	-2.656	0.000	5.971	-7.273
304510.651	NaN	2.250	7.326	-4.946	1511.355	1499.634	1501.099	-1.206	2.824	-2.840	0.077	6.048	-7.426
304511.627	NaN	2.250	7.326	-4.957	1509.890	1499.634	1500.366	-1.344	2.748	-2.885	0.153	5.971	-7.196
304512.604	NaN	2.261	7.337	-4.957	1511.355	1501.099	1500.366	-1.130	2.702	-2.885	0.153	5.971	-7.196
304513.580	NaN	2.250	7.337	-4.967	1510.623	1501.099	1501.099	-1.389	2.870	-2.962	0.077	6.124	-7.196
304514.557	NaN	2.250	7.337	-4.967	1510.623	1499.634	1500.366	-1.435	2.794	-2.840	0.077	5.895	-7.426
304515.533	NaN	2.239	7.326	-4.957	1510.623	1501.099	1500.366	-1.145	2.763	-2.702	0.077	5.971	-7.349
304516.510	NaN	2.239	7.326	-4.967	1512.088	1499.634	1500.366	-1.191	2.611	-2.718	0.000	6.048	-7.120
304517.487	NaN	2.250	7.326	-4.957	1511.355	1499.634	1502.564	-1.435	2.611	-2.763	0.000	5.971	-7.273
304518.463	NaN	2.250	7.337	-4.957	1511.355	1500.366	1501.832	-1.420	2.718	-2.901	0.000	6.124	-7.273
304519.440	NaN	2.250	7.337	-4.967	1509.890	1499.634	1501.832	-1.389	2.672	-2.977	0.230	6.048	-7.196
304520.416	NaN	2.250	7.337	-4.978	1510.623	1500.366	1500.366	-1.344	2.733	-2.901	0.077	5.971	-7.349
304521.393	NaN	2.250	7.348	-4.967	1510.623	1500.366	1499.634	-1.099	2.519	-2.885	0.230	5.895	-7.349
304522.369	NaN	2.261	7.348	-4.967	1510.623	1500.366	1499.634	-1.099	2.427	-2.611	0.077	5.971	-7.273
304523.346	NaN	2.250	7.337	-4.978	1509.890	1500.366	1500.366	-1.069	2.534	-2.733	0.077	5.971	-7.273
304524.323	NaN	2.250	7.337	-4.978	1510.623	1499.634	1499.634	-1.115	2.611	-2.901	0.153	5.895	-7.349
304525.299	NaN	2.239	7.315	-4.967	1511.355	1501.099	1498.168	-1.252	2.519	-2.779	0.230	5.971	-7.273
304526.276	NaN	2.261	7.326	-4.957	1511.355	1499.634	1501.832	-1.435	2.290	-2.931	0.153	5.971	-6.201
304527.252	NaN	2.261	7.337	-4.946	1510.623	1500.366	1501.099	-1.176	2.351	-2.870	0.000	5.971	-7.426
304528.229	NaN	2.261	7.326	-4.935	1510.623	1500.366	1499.634	-1.023	2.519	-2.763	0.077	5.971	-7.349
304529.205	NaN	2.250	7.326	-4.935	1509.890	1498.901	1500.366	-1.130	2.611	-2.809	0.077	5.971	-7.273
304530.182	NaN	2.272	7.326	-4.946	1510.623	1500.366	1499.634	-1.282	2.580	-2.733	0.077	5.971	-7.349
304531.158	NaN	2.272	7.326	-4.946	1509.890	1500.366	1499.634	-1.282	2.458	-2.611	0.077	5.971	-7.349
304532.135	NaN	2.272	7.326	-4.946	1510.623	1500.366	1499.634	-1.099	2.382	-2.626	0.000	6.048	-7.273
304533.112	NaN	2.261	7.315	-4.957	1509.890	1501.832	1498.901	-0.916	2.458	-2.718	0.077	5.971	-7.349
304534.088	NaN	2.250	7.315	-4.957	1510.623	1500.366	1498.901	-1.069	2.550	-2.550	0.000	5.895	-7.273
304535.065	NaN	2.250	7.315	-4.946	1511.355	1499.634	1501.099	-1.145	2.519	-2.534	0.000	5.971	-7.273
304536.041	NaN	2.250	7.326	-4.935	1511.355	1500.366	1499.634	-1.328	2.489	-2.718	0.000	5.895	-7.196
304537.018	NaN	2.250	7.326	-4.957	1509.890	1500.366	1501.099	-1.282	2.702	-2.809	0.000	5.971	-7.349
304537.994	NaN	2.250	7.326	-4.957	1510.623	1499.634	1501.099	-1.282	2.702	-2.718	0.153	5.971	-7.426
304538.971	NaN	2.250	7.337	-4.967	1510.623	1499.634	1502.564	-1.160	2.611	-2.718	0.230	5.971	-7.196
304539.948	NaN	2.250	7.337	-4.967	1510.623	1500.366	1499.634	-1.069	2.397	-2.824	0.000	6.124	-7.349
304540.924	NaN	2.250	7.326	-4.967	1510.623	1500.366	1500.366	-1.069	2.214	-2.962	0.230	5.971	-7.426
304541.901	NaN	2.250	7.337	-4.967	1510.623	1500.366	1499.634	-1.038	2.321	-3.084	0.077	5.971	-7.273
304542.877	NaN	2.239	7.326	-4.957	1510.623	1498.901	1500.366	-1.053	2.351	-2.885	0.077	5.971	-7.120
304543.854	NaN	2.239	7.337	-4.946	1510.623	1500.366	1499.634	-1.099	2.382	-2.824	0.000	5.971	-7.273
304544.830	NaN	2.250	7.337	-4.957	1511.355	1499.634	1501.099	-0.962	2.443	-2.748	0.077	5.895	-7.273
304545.807	NaN	2.261	7.337	-4.957	1510.623	1499.634	1501.099	-1.099	2.702	-2.550	0.000	5.971	-7.273
304546.783	NaN	2.272	7.337	-4.957	1509.890	1500.366	1498.168	-1.328	2.748	-2.626	0.230	6.048	-7.349
304547.760	NaN	2.261	7.337	-4.978	1510.623	1501.099	1498.168	-1.176	2.519	-2.656	0.000	5.971	-7.349
304548.737	NaN	2.261	7.337	-4.967	1511.355	1500.366	1500.366	-1.084	2.244	-2.672	0.077	5.971	-7.349
304549.713	NaN	2.261	7.348	-4.967	1510.623	1501.099	1500.366	-1.252	2.473	-2.870	0.077	5.895	-7.426
304550.690	NaN	2.250	7.348	-4.967	1509.890	1499.634	1501.099	-1.267	2.550	-2.870	0.077	6.048	-7.349
304551.666	NaN	2.250	7.337	-4.967	1509.890	1500.366	1499.634	-1.206	2.489	-2.870	0.153	5.971	-7.196
304552.643	NaN	2.250	7.337	-4.957	1510.623	1500.366	1500.366	-1.145	2.458	-2.809	0.153	6.048	-7.349
304553.619	NaN	2.250	7.348	-4.967	1510.623	1501.099	1499.634	-1.099	2.504	-2.611	0.230	5.971	-7.196
304554.596	NaN	2.250	7.337	-4.957	1511.355	1499.634	1500.366	-0.748	2.458	-2.702	0.230	5.971	-7.349
304555.573	NaN	2.250	7.348	-4.967	1511.355	1500.366	1498.901	-0.885	2.427	-2.763	0.077	5.895	-7.426
304556.549	NaN	2.239	7.337	-4.978	1509.158	1500.366	1500.366	-1.237	2.260	-2.916	0.153	5.971	-7.349
304557.526	NaN	2.250	7.348	-4.967	1511.355	1499.634	1501.099	-1.038	2.321	-2.916	0.000	5.818	-7.426
304558.502	NaN	2.250	7.348	-4.967	1511.355	1499.634	1500.366	-0.901	2.305	-2.718	0.153	6.048	-7.426
304559.479	NaN	2.239	7.348	-4.967	1511.355	1499.634	1501.832	-0.992	2.336	-2.519	0.077	5.971	-7.273
304560.455	NaN	2.228	7.348	-4.967	1510.623	1501.099	1500.366	-1.176	2.489	-2.687	0.077	5.971	-7.273
304561.432	NaN	2.250	7.348	-4.978	1511.355	1501.099	1499.634	-0.992	2.489	-3.176	0.000	5.895	-7.273
304562.408	NaN	2.239	7.348	-4.967	1509.890	1500.366	1499.634	-0.962	2.458	-3.145	0.153	5.971	-7.349
304563.385	NaN	2.239	7.348	-4.967	1510.623	1499.634	1501.099	-1.130	2.412	-2.947	0.306	5.895	-7.426
304564.362	NaN	2.239	7.348	-4.967	1510.623	1499.634	1500.366	-1.160	2.382	-2.733	0.077	5.971	-7.349
304565.338	NaN	2.228	7.337	-4.978	1510.623	1500.366	1501.099	-1.206	2.366	-2.824	0.230	5.895	-6.201
304566.315	NaN	2.239	7.337	-4.967	1509.890	1500.366	1501.832	-0.885	2.687	-2.870	0.077	5.895	-7.196
304567.291	NaN	2.239	7.337	-4.967	1512.088	1500.366	1500.366	-0.748	2.702	-2.901	0.153	6.048	-7.349
304568.268	NaN	2.239	7.348	-4.957	1511.355	1499.634	1501.099	-0.809	2.489	-2.840	0.000	6.124	-7.349
304569.244	NaN	2.239	7.337	-4.957	1510.623	1499.634	1500.366	-1.038	2.290	-2.794	0.153	5.818	-7.273
304570.221	NaN	2.239	7.337	-4.967	1510.623	1501.099	1500.366	-1.313	2.290	-2.916	0.077	5.971	-7.426
304571.198	NaN	2.228	7.337	-4.946	1510.623	1500.366	1500.366	-1.008	2.397	-2.992	0.077	5.895	-7.273
304572.174	NaN	2.228	7.337	-4.946	1511.355	1499.634	1500.366	-1.099	2.443	-2.809	0.077	5.895	-7.502
304573.151	NaN	2.239	7.337	-4.957	1509.890	1500.366	1498.901	-1.038	2.473	-2.672	0.153	5.895	-7.349
304574.127	NaN	2.239	7.326	-4.957	1509.890	1499.634	1498.901	-0.824	2.427	-2.687	0.306	5.971	-7.426
304598.541	NaN	2.272	7.348	-4.946	1510.623	1499.634	1501.099	-0.947	2.351	-2.656	0.077	5.971	-7.273
304599.518	NaN	2.250	7.348	-4.946	1510.623	1500.366	1501.832	-0.947	2.260	-2.840	0.077	6.124	-7.349
304600.494	NaN	2.239	7.337	-4.957	1509.890	1498.901	1498.901	-0.901	2.427	-2.733	0.077	6.048	-7.120
304601.471	NaN	2.239	7.337	-4.946	1509.890	1499.634	1501.099	-1.069	2.366	-2.702	0.077	5.895	-7.502
304602.448	NaN	2.239	7.337	-4.946	1509.890	1499.634	1500.366	-1.008	2.336	-2.733	0.153	5.895	-7.273
304603.424	NaN	2.250	7.348	-4.935	1509.890	1500.366	1500.366	-0.718	2.290	-2.779	0.153	5.971	-7.196
304604.401	NaN	2.239	7.348	-4.935	1511.355	1501.099	1499.634	-0.733	2.275	-2.718	0.230	6.048	-7.273
304605.377	NaN	2.217	7.337	-4.957	1509.890	1501.099	1499.634	-0.702	2.290	-2.840	0.077	6.048	-7.273
304606.354	NaN	2.228	7.326	-4.935	1509.890	1500.366	1501.099	-0.824	2.305	-3.053	0.077	5.971	-7.196
304607.330	NaN	2.228	7.337	-4.946	1510.623	1499.634	1501.832	-0.885	2.336	-3.084	0.153	5.971	-7.273
304608.307	NaN	2.228	7.326	-4.946	1511.355	1499.634	1502.564	-0.947	2.290	-2.901	0.077	6.048	-7.196
304609.283	NaN	2.228	7.326	-4.946	1511.355	1500.366	1499.634	-0.824	2.473	-2.779	0.077	6.048	-7.349
304610.260	NaN	2.228	7.326	-4.957	1510.623	1500.366	1498.901	-0.870	2.489	-2.824	0.153	5.971	-7.349
304611.237	NaN	2.239	7.326	-4.957	1511.355	1500.366	1499.634	-1.130	2.275	-2.992	0.153	5.971	-7.502
304612.213	NaN	2.250	7.315	-4.967	1510.623	1498.901	1500.366	-0.947	2.336	-3.191	0.230	6.048	-7.426
304613.190	NaN	2.250	7.326	-4.967	1508.425	1499.634	1499.634	-0.855	2.183	-3.008	0.077	6.048	-7.273
304614.166	NaN	2.250	7.326	-4.957	1509.890	1498.901	1501.832	-0.885	2.198	-2.809	0.153	6.048	-7.196
304615.143	NaN	2.239	7.326	-4.957	1510.623	1498.901	1499.634	-0.870	2.275	-2.855	0.000	6.048	-7.273
304616.119	NaN	2.239	7.326	-4.946	1510.623	1499.634	1500.366	-0.794	2.351	-2.931	0.000	5.971	-7.273
304617.096	NaN	2.239	7.337	-4.957	1510.623	1500.366	1499.634	-0.626	2.244	-2.931	0.077	5.971	-7.349
304618.073	NaN	2.250	7.326	-4.957	1510.623	1499.634	1500.366	-0.763	2.229	-2.870	0.153	5.971	-7.349
304619.049	NaN	2.250	7.326	-4.967	1510.623	1500.366	1500.366	-0.916	2.229	-2.733	0.077	5.971	-7.349
304620.026	NaN	2.239	7.315	-4.967	1509.158	1499.634	1499.634	-1.023	2.092	-2.794	0.230	5.895	-7.196
304621.002	NaN	2.250	7.315	-4.957	1510.623	1500.366	1499.634	-1.023	2.092	-2.733	0.153	6.048	-7.273
304621.979	NaN	2.250	7.315	-4.957	1510.623	1500.366	1500.366	-0.992	2.076	-2.840	0.077	6.048	-7.196
304622.955	NaN	2.261	7.326	-4.957	1509.890	1498.901	1499.634	-1.038	2.122	-3.053	0.000	6.048	-7.426
304623.932	NaN	2.261	7.326	-4.967	1509.158	1501.099	1501.832	-0.718	2.092	-3.023	0.230	5.971	-7.273
304624.908	NaN	2.250	7.326	-4.978	1510.623	1498.901	1500.366	-0.718	2.183	-2.901	0.230	6.048	-7.273
304625.885	NaN	2.272	7.326	-4.957	1511.355	1499.634	1500.366	-0.702	2.244	-2.916	0.077	6.124	-7.349
304626.862	NaN	2.272	7.337	-4.978	1509.890	1500.366	1499.634	-0.992	2.183	-2.947	0.153	6.048	-7.349
304627.838	NaN	2.261	7.326	-4.978	1509.890	1499.634	1500.366	-0.962	2.107	-2.931	-0.077	5.971	-7.273
304628.815	NaN	2.261	7.337	-4.967	1510.623	1500.366	1500.366	-0.931	1.954	-3.069	0.000	5.971	-7.196
304629.791	NaN	2.261	7.359	-4.967	1509.890	1500.366	1498.901	-0.809	1.985	-2.977	0.153	5.895	-7.426
304630.768	NaN	2.261	7.359	-4.957	1510.623	1499.634	1500.366	-0.580	2.031	-2.885	0.077	5.895	-7.273
304631.744	NaN	2.250	7.359	-4.957	1510.623	1499.634	1500.366	-0.672	2.397	-2.809	0.077	6.048	-7.273
304632.721	NaN	2.250	7.370	-4.967	1511.355	1500.366	1498.901	-0.840	2.351	-2.840	0.077	5.971	-7.273
304633.698	NaN	2.250	7.359	-4.957	1512.088	1499.634	1501.099	-0.885	2.061	-2.885	0.077	6.124	-7.196
304634.674	NaN	2.250	7.359	-4.967	1512.088	1500.366	1501.099	-0.931	1.985	-2.809	0.153	5.818	-7.196
304635.651	NaN	2.250	7.359	-4.967	1509.158	1500.366	1500.366	-0.702	2.061	-2.962	0.077	5.895	-7.273
304636.627	NaN	2.239	7.348	-4.967	1509.158	1500.366	1498.901	-0.718	2.275	-2.962	0.077	6.048	-7.196
304637.604	NaN	2.250	7.348	-4.957	1511.355	1500.366	1500.366	-0.748	2.275	-3.038	0.000	6.048	-7.349
304638.580	NaN	2.261	7.348	-4.957	1510.623	1501.099	1499.634	-0.824	2.122	-2.824	0.077	5.971	-7.349
304639.557	NaN	2.250	7.337	-4.957	1510.623	1500.366	1499.634	-1.023	1.939	-2.687	0.153	5.971	-7.349
304640.533	NaN	2.250	7.326	-4.967	1509.158	1499.634	1500.366	-1.038	1.924	-2.901	0.077	5.818	-7.273
304641.510	NaN	2.239	7.326	-4.978	1509.890	1499.634	1499.634	-0.870	1.817	-3.038	0.077	6.048	-7.273
304642.487	NaN	2.250	7.337	-4.978	1510.623	1500.366	1500.366	-0.672	1.954	-3.145	0.000	5.971	-7.196
304643.463	NaN	2.250	7.337	-4.989	1509.890	1500.366	1498.901	-0.733	2.061	-2.962	0.230	6.048	-7.196
304644.440	NaN	2.250	7.348	-4.978	1509.158	1499.634	1501.832	-0.885	2.031	-2.885	0.153	6.048	-7.349
304645.416	NaN	2.250	7.348	-4.967	1509.890	1499.634	1500.366	-0.824	1.969	-2.809	0.077	5.818	-7.349
304646.393	NaN	2.250	7.348	-4.967	1509.158	1498.901	1500.366	-0.595	2.076	-2.901	0.153	5.971	-7.273
304647.369	NaN	2.250	7.348	-4.978	1510.623	1498.901	1499.634	-0.794	2.153	-2.992	0.153	5.971	-7.349
304648.346	NaN	2.239	7.348	-4.989	1510.623	1499.634	1499.634	-0.809	2.031	-2.916	0.153	5.971	-7.196
304649.323	NaN	2.250	7.337	-4.978	1508.425	1499.634	1500.366	-0.611	1.893	-2.794	0.077	6.048	-7.349
304650.299	NaN	2.239	7.337	-4.978	1509.890	1498.901	1500.366	-0.366	1.939	-2.748	0.077	5.971	-7.426
304651.276	NaN	2.250	7.337	-4.967	1509.158	1498.901	1500.366	-0.611	2.076	-2.718	0.230	5.742	-7.349
304652.252	NaN	2.261	7.348	-4.946	1510.623	1499.634	1500.366	-0.641	2.137	-3.069	0.153	5.971	-7.273
304653.229	NaN	2.261	7.326	-4.946	1510.623	1499.634	1500.366	-0.733	2.031	-3.237	0.077	5.971	-7.273
304654.205	NaN	2.261	7.337	-4.957	1511.355	1499.634	1500.366	-0.626	1.954	-3.084	0.077	6.048	-7.273
304655.182	NaN	2.250	7.337	-4.957	1510.623	1500.366	1500.366	-0.687	2.000	-2.885	0.153	5.971	-7.349
304656.158	NaN	2.250	7.337	-4.957	1510.623	1500.366	1500.366	-0.962	2.046	-2.916	0.077	5.895	-7.273
304657.135	NaN	2.250	7.337	-4.957	1511.355	1500.366	1500.366	-1.191	1.939	-2.916	0.230	5.895	-7.349
304658.112	NaN	2.250	7.337	-4.946	1509.890	1500.366	1500.366	-1.023	2.046	-2.901	0.153	5.895	-7.273
304659.088	NaN	2.239	7.326	-4.957	1510.623	1499.634	1499.634	-0.718	2.183	-3.023	0.230	5.971	-7.426
304660.065	NaN	2.250	7.337	-4.946	1511.355	1501.099	1501.099	-0.672	2.305	-3.008	0.153	5.971	-7.273
304661.041	NaN	2.239	7.326	-4.967	1510.623	1500.366	1498.901	-0.641	2.076	-2.992	0.077	5.971	-7.273
304662.018	NaN	2.250	7.337	-4.957	1509.890	1499.634	1498.901	-0.763	2.000	-2.931	0.077	5.971	-7.349
304662.994	NaN	2.250	7.337	-4.957	1510.623	1499.634	1499.634	-0.824	1.710	-2.885	0.153	6.048	-7.273
304663.971	NaN	2.250	7.337	-4.946	1511.355	1500.366	1498.901	-0.672	1.863	-3.008	0.153	6.124	-7.502
304664.948	NaN	2.250	7.315	-4.957	1509.158	1499.634	1500.366	-0.687	2.015	-2.870	0.230	5.895	-7.426
304665.924	NaN	2.261	7.337	-4.957	1511.355	1500.366	1500.366	-0.534	2.076	-2.779	0.077	5.971	-7.196
304666.901	NaN	2.250	7.337	-4.967	1509.890	1500.366	1500.366	-0.473	1.985	-2.870	0.000	5.971	-7.273
304667.877	NaN	2.239	7.337	-4.967	1509.890	1498.168	1500.366	-0.580	2.092	-3.084	0.153	6.048	-7.426
304668.854	NaN	2.239	7.337	-4.957	1510.623	1501.099	1500.366	-0.794	2.183	-3.084	0.000	5.971	-7.196
304669.830	NaN	2.239	7.337	-4.967	1510.623	1499.634	1498.901	-0.855	2.015	-2.977	0.077	5.971	-7.426
304670.807	NaN	2.250	7.337	-4.957	1510.623	1499.634	1502.564	-0.595	1.954	-2.931	0.153	6.124	-7.349
304671.783	NaN	2.250	7.337	-4.957	1509.890	1500.366	1500.366	-0.595	2.015	-2.901	0.077	5.895	-7.426
304672.760	NaN	2.261	7.337	-4.978	1511.355	1500.366	1500.366	-0.672	1.969	-3.099	0.077	5.971	-7.349
304673.737	NaN	2.261	7.348	-4.967	1510.623	1499.634	1501.099	-0.824	1.985	-3.023	0.077	5.971	-7.349
304674.713	NaN	2.261	7.337	-4.967	1512.088	1500.366	1500.366	-0.885	1.985	-2.901	0.153	5.895	-7.426
304675.690	NaN	2.261	7.348	-4.967	1510.623	1500.366	1498.901	-0.702	2.000	-2.870	0.230	6.048	-7.273
304676.666	NaN	2.261	7.337	-4.967	1509.158	1499.634	1501.832	-0.580	2.061	-2.702	0.077	6.048	-7.273
304677.643	NaN	2.261	7.348	-4.957	1509.890	1501.099	1500.366	-0.611	2.000	-2.702	0.153	6.048	-7.273
304678.619	NaN	2.250	7.348	-4.957	1510.623	1501.099	1499.634	-0.840	1.924	-2.748	0.077	6.048	-7.426
304679.596	NaN	2.250	7.337	-4.967	1511.355	1500.366	1501.099	-0.885	2.000	-2.809	0.077	5.895	-7.426
304680.573	NaN	2.261	7.348	-4.957	1508.425	1499.634	1501.099	-0.748	2.092	-3.053	0.230	5.971	-7.273
304681.549	NaN	2.250	7.348	-4.957	1510.623	1499.634	1500.366	-0.672	2.122	-3.160	0.000	5.895	-7.426
304682.526	NaN	2.261	7.337	-4.957	1509.158	1499.634	1500.366	-0.611	1.954	-2.962	0.077	6.048	-7.349
304683.502	NaN	2.272	7.348	-4.946	1510.623	1500.366	1500.366	-0.534	1.939	-2.977	0.000	5.895	-7.273
304684.479	NaN	2.261	7.348	-4.957	1511.355	1500.366	1498.901	-0.595	1.908	-2.962	0.000	5.971	-7.426
304685.455	3736843118.627	2.250	7.337	-4.978	1509.158	1499.634	1500.366	-0.992	1.985	-2.885	0.077	5.895	-7.273
304686.432	NaN	2.250	7.348	-4.967	1509.890	1499.634	1499.634	-1.145	1.908	-2.870	0.153	5.971	-7.273
304687.408	NaN	2.250	7.348	-4.946	1510.623	1501.099	1501.099	-0.718	1.924	-2.885	0.077	5.818	-7.273
304688.385	NaN	2.239	7.348	-4.967	1512.088	1499.634	1500.366	-0.580	1.908	-2.855	0.153	5.971	-7.349
304689.362	NaN	2.239	7.337	-4.967	1509.158	1499.634	1499.634	-0.748	1.878	-2.855	0.000	6.124	-7.273
304690.338	NaN	2.261	7.326	-4.957	1509.890	1498.901	1499.634	-0.794	1.893	-2.947	0.153	5.895	-7.273
304691.315	NaN	2.261	7.326	-4.946	1510.623	1500.366	1501.099	-0.733	1.863	-3.084	0.153	5.971	-7.502
304692.291	NaN	2.250	7.326	-4.957	1511.355	1499.634	1501.099	-0.733	1.847	-3.206	0.077	6.048	-7.349
304693.268	NaN	2.250	7.326	-4.957	1510.623	1499.634	1500.366	-0.748	1.878	-3.053	0.077	5.971	-7.349
304694.244	NaN	2.239	7.326	-4.957	1510.623	1499.634	1500.366	-0.626	1.969	-2.992	0.153	5.971	-7.196
304695.221	NaN	2.239	7.326	-4.957	1510.623	1501.099	1499.634	-0.656	1.863	-2.916	0.077	5.971	-7.349
304696.198	NaN	2.239	7.315	-4.946	1511.355	1499.634	1501.099	-0.611	1.847	-2.992	0.077	5.895	-7.273
304697.174	NaN	2.239	7.315	-4.946	1509.890	1501.099	1500.366	-0.489	1.893	-2.931	0.077	5.971	-7.349
304698.151	NaN	2.239	7.315	-4.946	1511.355	1500.366	1499.634	-0.443	2.000	-3.053	0.077	5.895	-7.273
304699.127	NaN	2.239	7.315	-4.967	1510.623	1500.366	1500.366	-0.687	2.061	-3.176	0.153	5.895	-7.273
304700.104	NaN	2.239	7.315	-4.967	1509.890	1498.901	1499.634	-0.763	2.076	-3.084	0.077	5.971	-7.349
304701.080	NaN	2.239	7.326	-4.957	1510.623	1500.366	1500.366	-0.656	1.878	-2.931	0.153	5.895	-7.349
304702.057	NaN	2.250	7.337	-4.957	1511.355	1500.366	1500.366	-0.580	1.817	-2.840	0.153	6.048	-7.349
304703.033	NaN	2.250	7.337	-4.957	1511.355	1500.366	1498.901	-0.748	1.832	-2.931	0.077	5.971	-7.196
304704.010	NaN	2.250	7.337	-4.957	1511.355	1499.634	1500.366	-0.931	1.588	-2.992	0.153	5.971	-7.273
304704.987	NaN	2.261	7.326	-4.946	1511.355	1500.366	1501.832	-0.809	1.802	-2.870	0.153	6.048	-7.349
304705.963	NaN	2.261	7.337	-4.946	1510.623	1500.366	1500.366	-0.763	1.908	-3.038	0.000	5.971	-7.273
304706.940	NaN	2.239	7.326	-4.957	1511.355	1500.366	1500.366	-0.733	1.939	-2.916	0.077	5.971	-7.273
304707.916	NaN	2.239	7.326	-4.967	1510.623	1498.901	1500.366	-0.656	1.908	-2.977	0.077	5.971	-8.498
304708.893	NaN	2.239	7.337	-4.957	1511.355	1501.099	1500.366	-0.550	1.802	-2.962	0.000	5.895	-7.273
304709.869	NaN	2.239	7.337	-4.967	1510.623	1499.634	1501.832	-0.336	1.649	-2.962	0.153	5.971	-7.273
304710.846	NaN	2.239	7.348	-4.946	1509.890	1500.366	1499.634	-0.321	1.725	-3.069	0.077	6.048	-7.273
304711.823	NaN	2.239	7.337	-4.957	1510.623	1501.099	1499.634	-0.656	1.908	-3.069	0.230	5.895	-7.273
304712.799	NaN	2.239	7.326	-4.967	1509.890	1498.901	1499.634	-0.672	1.908	-2.885	0.153	5.895	-7.196
304713.776	NaN	2.250	7.326	-4.957	1509.158	1501.099	1498.901	-0.626	1.664	-2.733	0.000	6.124	-7.196
304714.752	NaN	2.250	7.326	-4.957	1511.355	1500.366	1499.634	-0.626	1.756	-2.840	0.077	5.971	-8.498
304715.729	NaN	2.250	7.326	-4.967	1511.355	1499.634	1500.366	-0.855	1.802	-3.053	0.000	6.124	-7.426
304716.705	NaN	2.239	7.337	-4.967	1510.623	1499.634	1501.832	-0.672	1.725	-2.962	0.077	6.124	-7.273
304717.682	NaN	2.261	7.337	-4.978	1511.355	1500.366	1499.634	-0.565	1.756	-2.962	0.077	6.048	-7.196
304718.658	NaN	2.261	7.337	-4.967	1511.355	1499.634	1501.099	-0.565	1.832	-2.947	0.000	5.895	-7.273
304719.635	NaN	2.261	7.337	-4.957	1510.623	1500.366	1500.366	-0.534	1.802	-3.115	0.077	5.895	-7.349
304720.612	NaN	2.272	7.337	-4.957	1509.890	1500.366	1500.366	-0.595	1.817	-3.221	0.000	5.971	-7.426
304721.588	NaN	2.261	7.337	-4.978	1510.623	1499.634	1499.634	-0.718	1.634	-3.099	0.077	6.048	-7.426
304722.565	NaN	2.250	7.337	-4.989	1510.623	1498.901	1499.634	-0.565	1.878	-2.916	0.000	5.895	-7.349
304723.541	NaN	2.261	7.337	-4.967	1510.623	1498.901	1501.832	-0.611	2.031	-2.947	0.153	5.971	-7.349
304724.518	NaN	2.250	7.337	-4.967	1510.623	1499.634	1501.099	-0.656	1.924	-3.069	0.077	5.971	-7.349
304725.494	NaN	2.239	7.326	-4.946	1509.890	1499.634	1501.099	-0.687	1.802	-3.115	0.077	5.971	-7.349
304726.471	NaN	2.250	7.337	-4.946	1509.890	1500.366	1500.366	-0.855	1.695	-2.992	0.153	5.971	-7.273
304727.448	NaN	2.250	7.326	-4.957	1510.623	1498.901	1499.634	-0.840	1.664	-2.931	0.153	5.971	-7.426
304728.424	NaN	2.261	7.337	-4.935	1509.890	1500.366	1500.366	-0.473	1.695	-2.992	-0.077	5.895	-7.196
304729.401	NaN	2.250	7.326	-4.946	1510.623	1500.366	1499.634	-0.565	1.756	-2.931	0.000	5.971	-7.349
304730.377	NaN	2.250	7.315	-4.946	1509.890	1499.634	1500.366	-0.916	1.679	-2.840	0.153	5.971	-7.273
304731.354	NaN	2.272	7.326	-4.946	1509.890	1500.366	1500.366	-0.824	1.847	-3.023	0.077	6.048	-7.273
304732.330	NaN	2.272	7.326	-4.967	1509.890	1499.634	1501.099	-0.443	2.046	-3.206	0.153	5.895	-7.120
304733.307	NaN	2.272	7.337	-4.946	1510.623	1499.634	1501.099	-0.656	1.725	-3.237	0.077	5.971	-7.196
304734.283	NaN	2.261	7.326	-4.957	1510.623	1499.634	1501.099	-0.702	1.511	-3.038	0.230	5.971	-7.349
304735.260	3736843118.797	2.261	7.337	-4.957	1509.890	1499.634	1500.366	-0.550	1.573	-2.947	0.077	6.124	-7.273
304736.237	NaN	2.272	7.337	-4.946	1510.623	1498.901	1500.366	-0.534	1.710	-3.023	0.153	5.971	-7.273
304737.213	NaN	2.272	7.348	-4.967	1510.623	1499.634	1500.366	-0.641	1.664	-3.221	0.000	6.048	-7.349
304738.190	NaN	2.261	7.348	-4.967	1509.890	1501.099	1500.366	-0.550	1.710	-3.053	0.000	6.048	-7.349
304739.166	NaN	2.250	7.337	-4.967	1510.623	1500.366	1499.634	-0.550	1.817	-2.885	0.077	6.048	-7.349
304740.143	NaN	2.250	7.337	-4.946	1510.623	1501.099	1500.366	-0.672	1.939	-2.885	0.153	5.971	-7.349
304741.119	NaN	2.250	7.337	-4.946	1510.623	1499.634	1501.099	-0.611	1.863	-2.962	0.077	5.971	-7.273
304742.096	NaN	2.250	7.337	-4.957	1510.623	1500.366	1500.366	-0.458	1.847	-3.099	0.153	6.048	-7.426
304743.073	NaN	2.261	7.337	-4.967	1509.158	1499.634	1498.901	-0.473	1.771	-3.038	0.153	6.048	-7.426
304744.049	NaN	2.261	7.337	-4.957	1510.623	1499.634	1499.634	-0.473	1.771	-2.962	0.077	5.895	-7.196
304745.026	NaN	2.261	7.337	-4.957	1511.355	1500.366	1498.901	-0.519	1.664	-2.992	0.077	5.818	-7.349
304746.002	NaN	2.261	7.326	-4.946	1511.355	1499.634	1500.366	-0.580	1.649	-3.084	0.077	6.048	-7.273
304746.979	NaN	2.250	7.326	-4.946	1509.890	1500.366	1499.634	-0.763	1.710	-3.176	0.153	5.971	-6.201
304747.955	NaN	2.250	7.326	-4.946	1509.890	1500.366	1500.366	-0.565	1.893	-3.191	0.077	5.971	-7.273
304748.932	NaN	2.261	7.326	-4.967	1512.088	1501.099	1500.366	-0.473	1.756	-3.069	0.077	6.048	-7.349
304749.908	NaN	2.239	7.315	-4.967	1509.890	1498.901	1500.366	-0.427	1.878	-3.099	0.153	5.895	-7.349
304750.885	NaN	2.261	7.326	-4.946	1509.890	1499.634	1500.366	-0.641	1.832	-3.115	0.077	5.895	-7.349
304751.862	NaN	2.250	7.337	-4.946	1509.890	1500.366	1499.634	-0.687	1.817	-2.931	0.153	6.048	-7.349
304752.838	NaN	2.239	7.337	-4.957	1509.890	1498.901	1498.901	-0.687	1.710	-2.855	0.000	5.971	-7.349
304753.815	NaN	2.239	7.337	-4.946	1511.355	1500.366	1498.168	-0.656	1.664	-2.947	0.077	5.818	-7.349
304754.791	NaN	2.239	7.337	-4.946	1510.623	1498.901	1500.366	-0.519	1.756	-3.160	0.153	5.895	-7.196
304755.768	NaN	2.228	7.326	-4.946	1511.355	1499.634	1501.832	-0.260	1.710	-3.389	0.077	5.971	-7.196
304756.744	NaN	2.228	7.337	-4.957	1510.623	1499.634	1500.366	-0.458	1.847	-3.237	0.153	5.971	-7.273
304757.721	NaN	2.228	7.337	-4.967	1511.355	1500.366	1499.634	-0.718	1.695	-2.947	0.153	5.971	-7.349
304758.698	NaN	2.239	7.326	-4.967	1510.623	1500.366	1500.366	-0.565	1.634	-2.809	0.077	6.124	-7.349
304759.674	NaN	2.239	7.326	-4.967	1511.355	1500.366	1500.366	-0.198	1.634	-2.992	0.077	5.895	-7.426
304760.651	NaN	2.250	7.337	-4.967	1509.158	1499.634	1501.832	-0.275	1.756	-3.160	0.077	5.971	-7.273
304761.627	NaN	2.239	7.337	-4.957	1509.890	1499.634	1500.366	-0.382	1.878	-3.023	0.153	6.048	-7.349
304762.604	NaN	2.250	7.337	-4.957	1511.355	1500.366	1500.366	-0.519	1.802	-2.992	0.153	5.895	-7.426
304763.580	NaN	2.228	7.337	-4.957	1509.890	1499.634	1498.901	-0.687	1.618	-2.916	0.077	5.895	-7.426
304764.557	NaN	2.239	7.337	-4.935	1510.623	1501.099	1499.634	-0.748	1.664	-2.962	0.077	5.895	-7.426
304765.533	NaN	2.239	7.315	-4.946	1510.623	1499.634	1501.099	-0.626	1.695	-3.008	0.153	6.048	-7.273
304766.510	NaN	2.239	7.326	-4.967	1509.890	1498.901	1499.634	-0.321	1.573	-3.176	0.306	6.048	-7.273
304767.487	NaN	2.261	7.337	-4.946	1509.158	1498.901	1501.832	-0.244	1.359	-3.069	0.077	6.048	-7.196
304768.463	NaN	2.261	7.326	-4.967	1509.890	1500.366	1499.634	-0.382	1.634	-2.977	0.153	5.971	-7.349
304769.440	NaN	2.272	7.326	-4.957	1510.623	1498.901	1499.634	-0.412	1.725	-3.084	0.077	6.124	-7.349
304770.416	NaN	2.261	7.326	-4.967	1510.623	1499.634	1500.366	-0.366	1.573	-2.931	0.153	5.895	-7.349
304771.393	NaN	2.261	7.326	-4.978	1510.623	1498.901	1501.099	-0.443	1.496	-2.824	0.230	5.971	-7.349
304772.369	NaN	2.261	7.337	-4.967	1510.623	1501.099	1500.366	-0.382	1.466	-2.992	0.000	6.048	-7.426
304773.346	NaN	2.250	7.326	-4.978	1509.890	1500.366	1499.634	-0.275	1.527	-3.145	0.153	6.048	-7.120
304774.323	NaN	2.250	7.326	-4.967	1510.623	1499.634	1500.366	-0.458	1.740	-3.206	0.000	6.048	-7.196
304775.299	NaN	2.239	7.315	-4.967	1511.355	1500.366	1498.901	-0.718	1.847	-3.023	0.077	5.818	-7.120
304776.276	NaN	2.239	7.315	-4.957	1511.355	1501.099	1500.366	-0.519	1.878	-2.931	0.077	5.818	-7.349
304777.252	NaN	2.250	7.315	-4.946	1509.890	1501.099	1501.099	-0.336	1.695	-2.947	0.077	5.971	-7.349
304778.229	NaN	2.250	7.304	-4.957	1510.623	1499.634	1500.366	-0.565	1.664	-3.023	0.077	6.201	-7.349
304779.205	NaN	2.239	7.304	-4.946	1510.623	1499.634	1500.366	-0.427	1.832	-2.947	0.000	5.895	-7.273
304780.182	NaN	2.239	7.326	-4.957	1512.088	1500.366	1500.366	-0.336	1.878	-3.145	0.077	5.895	-7.349
304781.158	NaN	2.250	7.337	-4.957	1510.623	1500.366	1500.366	-0.366	1.710	-3.252	0.153	5.895	-7.273
304782.135	NaN	2.239	7.337	-4.957	1512.088	1499.634	1500.366	-0.504	1.496	-3.191	0.230	5.971	-7.349
304783.112	NaN	2.239	7.337	-4.946	1509.890	1499.634	1500.366	-0.534	1.405	-2.901	0.077	5.971	-7.273
304784.088	NaN	2.239	7.326	-4.967	1511.355	1499.634	1500.366	-0.504	1.511	-2.779	0.000	6.048	-7.273
304785.065	NaN	2.228	7.326	-4.967	1509.158	1500.366	1499.634	-0.412	1.695	-2.992	0.077	6.048	-7.273
304786.041	NaN	2.239	7.326	-4.957	1510.623	1501.099	1499.634	-0.565	1.771	-3.038	0.153	5.895	-7.273
304787.018	NaN	2.239	7.326	-4.967	1510.623	1500.366	1500.366	-0.473	1.649	-2.977	0.000	5.895	-7.426
304787.994	NaN	2.239	7.326	-4.978	1508.425	1499.634	1499.634	-0.443	1.511	-3.023	0.077	6.048	-7.273
304788.971	NaN	2.239	7.337	-4.967	1511.355	1499.634	1501.099	-0.290	1.527	-2.992	0.230	6.048	-7.273
304789.948	NaN	2.239	7.326	-4.967	1509.890	1499.634	1501.832	-0.397	1.603	-3.053	0.000	5.895	-7.273
304790.924	NaN	2.250	7.337	-4.957	1509.890	1500.366	1500.366	-0.534	1.527	-3.038	0.077	6.048	-7.349
304791.901	NaN	2.250	7.337	-4.967	1509.890	1499.634	1501.099	-0.443	1.603	-3.053	0.077	5.971	-7.426
304792.877	NaN	2.239	7.337	-4.957	1510.623	1499.634	1501.832	-0.504	1.588	-3.038	0.077	5.895	-8.268
304793.854	NaN	2.250	7.337	-4.946	1509.890	1501.099	1500.366	-0.519	1.527	-2.977	0.153	5.971	-7.349
304794.830	NaN	2.239	7.337	-4.957	1510.623	1499.634	1499.634	-0.336	1.679	-2.962	0.000	5.971	-7.273
304795.807	NaN	2.239	7.326	-4.957	1510.623	1500.366	1499.634	-0.214	1.802	-3.084	0.153	6.048	-7.349
304796.783	NaN	2.250	7.315	-4.957	1510.623	1500.366	1500.366	-0.336	1.847	-3.023	0.000	5.971	-7.196
304797.760	NaN	2.250	7.326	-4.946	1510.623	1499.634	1500.366	-0.366	1.863	-2.794	0.230	6.048	-7.349
304798.737	NaN	2.250	7.326	-4.946	1510.623	1499.634	1502.564	-0.382	1.786	-2.672	0.077	5.895	-7.273
304799.713	NaN	2.250	7.337	-4.967	1509.890	1499.634	1501.832	-0.397	1.634	-2.733	0.077	5.895	-7.426
304800.690	NaN	2.239	7.348	-4.967	1509.890	1499.634	1500.366	-0.412	1.588	-2.885	0.153	6.048	-7.273
304801.666	NaN	2.228	7.337	-4.957	1510.623	1500.366	1499.634	-0.473	1.573	-2.992	0.077	5.971	-7.349
304802.643	NaN	2.239	7.337	-4.935	1510.623	1500.366	1500.366	-0.336	1.756	-2.824	0.153	5.895	-7.196
304803.619	NaN	2.250	7.337	-4.946	1510.623	1500.366	1498.901	-0.214	1.588	-2.870	0.153	5.971	-7.349
304804.596	NaN	2.239	7.337	-4.935	1510.623	1499.634	1501.099	-0.366	1.466	-2.916	0.000	5.971	-7.349
304805.573	NaN	2.239	7.337	-4.946	1509.890	1499.634	1499.634	-0.504	1.603	-2.901	0.000	5.971	-7.273
304806.549	NaN	2.250	7.326	-4.946	1510.623	1501.099	1498.901	-0.534	1.664	-2.931	0.077	5.895	-7.349
304807.526	NaN	2.261	7.326	-4.946	1509.890	1500.366	1500.366	-0.550	1.664	-2.794	0.153	6.048	-7.349
304813.385	NaN	2.250	7.326	-4.957	1509.158	1500.366	1498.901	-0.321	1.557	-2.885	0.153	5.818	-7.349
304814.362	NaN	2.239	7.326	-4.967	1510.623	1499.634	1500.366	-0.321	1.328	-2.916	0.077	5.971	-7.349
304815.338	NaN	2.228	7.337	-4.967	1510.623	1500.366	1500.366	-0.366	1.542	-3.191	0.000	5.971	-7.349
304816.315	NaN	2.250	7.337	-4.957	1510.623	1500.366	1499.634	-0.290	1.603	-3.267	0.000	5.971	-7.273
304817.291	NaN	2.239	7.326	-4.967	1512.821	1500.366	1500.366	-0.244	1.664	-3.053	0.153	5.895	-7.349
304818.268	NaN	2.250	7.337	-4.957	1509.890	1499.634	1499.634	-0.198	1.679	-2.962	0.153	5.818	-7.273
304819.244	NaN	2.261	7.326	-4.967	1511.355	1499.634	1499.634	-0.305	1.527	-3.099	0.153	6.124	-7.273
304820.221	NaN	2.239	7.337	-4.967	1511.355	1499.634	1501.832	-0.489	1.405	-2.901	0.153	5.895	-7.196
304821.198	NaN	2.239	7.337	-4.967	1511.355	1500.366	1498.901	-0.412	1.527	-2.947	0.230	5.971	-7.196
304822.174	NaN	2.239	7.315	-4.978	1510.623	1501.099	1498.901	-0.214	1.573	-2.931	0.077	6.124	-7.196
304823.151	NaN	2.239	7.326	-4.957	1510.623	1498.168	1500.366	-0.153	1.634	-2.901	0.153	5.971	-7.273
304824.127	NaN	2.228	7.326	-4.957	1510.623	1499.634	1501.099	-0.351	1.695	-3.023	0.153	6.048	-7.273
304825.104	NaN	2.239	7.326	-4.946	1512.088	1500.366	1501.099	-0.519	1.664	-2.885	0.077	5.971	-7.273
304826.080	NaN	2.239	7.326	-4.946	1510.623	1500.366	1501.099	-0.412	1.573	-2.901	0.077	5.971	-7.273
304827.057	NaN	2.261	7.315	-4.946	1510.623	1499.634	1501.832	-0.427	1.496	-3.069	0.000	5.971	-7.196
304828.033	NaN	2.272	7.315	-4.957	1509.890	1499.634	1501.099	-0.366	1.481	-3.176	0.153	6.048	-7.273
304829.010	NaN	2.261	7.326	-4.967	1511.355	1501.099	1500.366	-0.351	1.450	-3.053	-0.077	5.971	-7.349
304829.987	NaN	2.250	7.337	-4.967	1511.355	1501.099	1498.901	-0.473	1.466	-3.008	0.000	6.048	-7.349
304830.963	NaN	2.250	7.326	-4.967	1511.355	1500.366	1500.366	-0.611	1.496	-2.763	0.077	5.895	-7.349
304831.940	NaN	2.261	7.326	-4.967	1510.623	1499.634	1499.634	-0.412	1.527	-3.008	0.077	5.971	-7.273
304832.916	NaN	2.250	7.315	-4.978	1511.355	1499.634	1500.366	-0.336	1.481	-3.084	0.000	6.048	-7.273
304833.893	NaN	2.250	7.326	-4.967	1511.355	1501.099	1499.634	-0.443	1.527	-3.130	0.000	5.971	-7.273
304834.869	NaN	2.250	7.326	-4.967	1510.623	1500.366	1499.634	-0.504	1.618	-3.130	0.153	5.971	-7.349
304835.846	NaN	2.250	7.326	-4.967	1510.623	1500.366	1500.366	-0.336	1.542	-3.023	0.077	6.048	-7.349
304836.823	NaN	2.250	7.326	-4.957	1509.890	1500.366	1498.901	-0.275	1.481	-3.115	0.077	6.201	-7.273
304837.799	NaN	2.239	7.315	-4.957	1509.890	1500.366	1498.168	-0.305	1.557	-3.084	0.000	6.124	-7.273
304838.776	NaN	2.239	7.315	-4.946	1511.355	1500.366	1501.099	-0.046	1.481	-3.008	0.077	5.971	-7.196
304839.752	NaN	2.239	7.326	-4.946	1511.355	1500.366	1499.634	-0.092	1.649	-2.931	0.000	6.048	-7.273
304840.729	NaN	2.239	7.337	-4.946	1511.355	1499.634	1501.099	-0.305	1.603	-2.733	0.153	5.818	-7.273
304841.705	NaN	2.239	7.326	-4.957	1510.623	1499.634	1501.099	-0.397	1.466	-2.992	0.077	6.048	-7.273
304842.682	NaN	2.250	7.337	-4.967	1510.623	1500.366	1501.832	-0.412	1.359	-3.145	0.153	5.895	-7.349
304843.658	NaN	2.250	7.326	-4.957	1509.890	1500.366	1500.366	-0.443	1.359	-2.962	0.153	5.895	-7.273
304844.635	NaN	2.250	7.326	-4.957	1510.623	1500.366	1499.634	-0.412	1.573	-2.748	0.153	5.971	-7.273
304845.612	NaN	2.250	7.326	-4.946	1510.623	1499.634	1500.366	-0.427	1.695	-2.824	0.153	5.895	-7.273
304846.588	NaN	2.239	7.315	-4.957	1510.623	1500.366	1499.634	-0.504	1.603	-2.916	0.153	6.048	-7.349
304847.565	NaN	2.239	7.326	-4.946	1510.623	1500.366	1499.634	-0.305	1.389	-3.008	0.077	5.895	-7.349
304848.541	NaN	2.239	7.315	-4.946	1511.355	1500.366	1499.634	-0.061	1.420	-3.221	0.077	6.048	-7.120
304849.518	NaN	2.250	7.326	-4.957	1509.890	1500.366	1499.634	-0.183	1.389	-2.901	0.077	5.895	-7.349
304850.494	NaN	2.250	7.326	-4.957	1510.623	1500.366	1499.634	-0.275	1.374	-2.809	0.000	5.895	-7.349
304851.471	NaN	2.250	7.326	-4.957	1510.623	1499.634	1500.366	-0.336	1.466	-2.962	0.230	6.124	-7.120
304852.448	NaN	2.261	7.315	-4.957	1510.623	1499.634	1501.832	-0.244	1.420	-2.977	0.000	5.971	-7.196
304853.424	NaN	2.261	7.326	-4.957	1511.355	1500.366	1499.634	-0.290	1.603	-2.992	0.077	5.895	-7.426
304854.401	NaN	2.261	7.326	-4.957	1510.623	1499.634	1499.634	-0.214	1.603	-2.992	0.230	6.048	-7.426
304855.377	NaN	2.261	7.326	-4.967	1510.623	1500.366	1500.366	0.015	1.511	-3.145	0.077	6.124	-7.502
304856.354	NaN	2.261	7.337	-4.957	1511.355	1501.099	1500.366	-0.183	1.420	-3.145	0.230	6.048	-7.426
304857.330	NaN	2.261	7.348	-4.957	1509.158	1501.099	1499.634	-0.321	1.344	-3.053	0.153	5.895	-7.426
304858.307	NaN	2.272	7.337	-4.957	1509.890	1499.634	1500.366	-0.504	1.420	-3.023	0.077	6.124	-7.349
304859.283	NaN	2.261	7.326	-4.957	1510.623	1500.366	1499.634	-0.443	1.573	-2.947	0.000	5.895	-7.502
304860.260	NaN	2.250	7.326	-4.967	1509.158	1500.366	1498.901	-0.366	1.634	-3.099	0.077	5.971	-7.273
304861.237	NaN	2.261	7.326	-4.967	1510.623	1500.366	1500.366	-0.458	1.435	-3.069	0.153	5.971	-7.349
304862.213	NaN	2.250	7.337	-4.967	1512.088	1499.634	1501.832	-0.580	1.221	-2.794	0.077	5.895	-7.273
304863.190	NaN	2.239	7.337	-4.967	1509.158	1500.366	1500.366	-0.458	1.359	-2.992	0.230	6.048	-7.273
304864.166	NaN	2.239	7.315	-4.957	1510.623	1499.634	1500.366	-0.382	1.496	-3.191	0.077	5.895	-7.273
304865.143	NaN	2.250	7.326	-4.946	1511.355	1501.099	1499.634	-0.336	1.389	-3.115	0.153	5.895	-7.273
304866.119	NaN	2.250	7.315	-4.946	1511.355	1500.366	1501.099	-0.244	1.466	-2.992	0.077	5.971	-7.426
304867.096	NaN	2.250	7.315	-4.946	1510.623	1501.099	1500.366	-0.137	1.481	-2.824	0.230	5.895	-7.120
304868.073	NaN	2.250	7.315	-4.946	1511.355	1499.634	1500.366	-0.321	1.527	-2.748	0.077	6.048	-7.349
304869.049	NaN	2.239	7.315	-4.967	1509.158	1500.366	1500.366	-0.504	1.588	-2.947	0.000	5.895	-7.273
304870.026	NaN	2.239	7.326	-4.957	1510.623	1501.099	1499.634	-0.427	1.588	-2.947	0.000	5.895	-7.196
304871.002	NaN	2.228	7.326	-4.946	1510.623	1500.366	1501.099	-0.275	1.466	-3.008	0.077	5.895	-7.349
304871.979	NaN	2.228	7.337	-4.946	1509.890	1499.634	1500.366	-0.260	1.389	-3.176	0.230	6.048	-7.273
304872.955	NaN	2.228	7.326	-4.935	1509.890	1499.634	1501.099	-0.214	1.374	-3.115	0.000	6.048	-7.426
304873.932	NaN	2.250	7.326	-4.957	1511.355	1501.099	1498.901	-0.305	1.573	-2.916	0.230	5.971	-7.196
304874.908	NaN	2.261	7.326	-4.957	1511.355	1500.366	1499.634	-0.366	1.588	-2.794	0.077	6.048	-7.196
304875.885	NaN	2.250	7.326	-4.946	1511.355	1499.634	1501.099	-0.427	1.405	-3.084	0.077	5.971	-7.349
304876.862	NaN	2.272	7.337	-4.935	1511.355	1499.634	1500.366	-0.382	1.282	-2.977	0.077	6.048	-7.349
304877.838	NaN	2.250	7.337	-4.946	1510.623	1499.634	1500.366	-0.489	1.282	-3.038	0.000	6.048	-6.278
304878.815	NaN	2.250	7.348	-4.935	1510.623	1500.366	1501.099	-0.519	1.435	-3.084	0.077	6.048	-7.349
304879.791	NaN	2.250	7.348	-4.946	1512.088	1501.099	1499.634	-0.336	1.481	-2.947	0.153	5.971	-7.349
304880.768	NaN	2.250	7.348	-4.946	1510.623	1500.366	1500.366	-0.351	1.466	-3.099	0.077	5.971	-7.426
304881.744	NaN	2.250	7.348	-4.957	1509.158	1499.634	1501.099	-0.336	1.435	-2.916	0.153	5.971	-7.273
304882.721	NaN	2.239	7.348	-4.967	1510.623	1500.366	1500.366	-0.351	1.450	-2.870	0.000	6.048	-7.273
304883.698	NaN	2.250	7.348	-4.967	1510.623	1500.366	1498.901	-0.443	1.450	-3.130	0.077	5.895	-7.349
304884.674	NaN	2.261	7.348	-4.967	1510.623	1500.366	1501.099	-0.214	1.405	-3.191	0.000	5.971	-7.349
304885.651	NaN	2.261	7.337	-4.978	1510.623	1500.366	1500.366	-0.076	1.298	-2.901	0.230	5.971	-7.349
304886.627	NaN	2.250	7.337	-4.967	1509.890	1500.366	1500.366	0.031	1.359	-2.947	0.077	6.048	-7.196
304887.604	NaN	2.261	7.348	-4.957	1511.355	1500.366	1500.366	-0.046	1.389	-3.115	0.230	5.895	-7.426
304888.580	NaN	2.261	7.348	-4.946	1511.355	1499.634	1501.832	-0.351	1.374	-3.115	0.153	6.048	-7.196
304889.557	NaN	2.250	7.348	-4.957	1510.623	1499.634	1499.634	-0.489	1.313	-3.023	0.077	6.048	-7.196
304890.533	NaN	2.239	7.337	-4.957	1509.890	1500.366	1498.901	-0.382	1.405	-2.916	0.153	6.124	-7.273
304891.510	NaN	2.239	7.348	-4.967	1510.623	1501.099	1500.366	-0.397	1.282	-2.931	0.077	5.895	-7.349
304892.487	NaN	2.239	7.348	-4.967	1510.623	1500.366	1501.099	-0.046	1.298	-2.779	0.077	5.895	-7.426
304893.463	NaN	2.250	7.337	-4.978	1510.623	1500.366	1498.901	-0.290	1.374	-2.779	0.153	5.971	-7.349
304894.440	NaN	2.250	7.326	-4.978	1510.623	1501.099	1500.366	-0.412	1.511	-2.992	0.000	5.971	-7.273
304895.416	NaN	2.250	7.326	-4.989	1510.623	1500.366	1499.634	-0.382	1.588	-3.282	0.077	6.048	-7.273
304896.393	NaN	2.250	7.315	-4.978	1512.088	1500.366	1499.634	-0.275	1.450	-3.084	0.077	6.048	-7.349
304897.369	NaN	2.250	7.337	-4.967	1510.623	1500.366	1500.366	-0.229	1.344	-2.885	0.077	5.971	-7.426
304898.346	NaN	2.250	7.337	-4.946	1510.623	1500.366	1500.366	-0.137	1.313	-2.794	0.230	5.971	-7.196
304899.323	NaN	2.250	7.337	-4.957	1511.355	1500.366	1498.901	-0.107	1.130	-2.794	0.000	6.048	-7.273
304900.299	NaN	2.250	7.326	-4.967	1512.088	1499.634	1500.366	-0.122	1.145	-2.855	0.000	6.048	-7.426
304901.276	NaN	2.261	7.337	-4.957	1511.355	1499.634	1501.099	0.015	1.344	-2.931	0.077	5.895	-7.349
304941.315	NaN	2.261	7.326	-4.967	1511.355	1500.366	1500.366	0.046	1.160	-2.992	0.153	5.895	-7.196
304942.291	NaN	2.261	7.326	-4.967	1511.355	1500.366	1501.099	-0.122	1.282	-3.008	0.077	6.048	-7.273
304943.268	NaN	2.261	7.326	-4.967	1510.623	1500.366	1499.634	-0.473	1.359	-3.099	0.153	5.971	-7.273
304944.244	NaN	2.261	7.315	-4.957	1509.890	1499.634	1501.099	-0.107	1.313	-3.069	0.153	6.124	-7.349
304945.221	NaN	2.250	7.337	-4.957	1510.623	1499.634	1501.099	0.122	1.328	-3.084	0.153	5.971	-7.273
304946.198	NaN	2.250	7.315	-4.967	1510.623	1498.901	1500.366	0.076	1.191	-3.145	0.153	5.971	-7.273
304947.174	NaN	2.261	7.337	-4.946	1510.623	1499.634	1501.099	-0.244	1.008	-3.206	0.153	6.048	-7.349
304948.151	NaN	2.250	7.337	-4.946	1509.158	1499.634	1500.366	-0.229	1.099	-3.130	0.230	5.895	-7.349
304949.127	NaN	2.239	7.337	-4.946	1511.355	1498.901	1499.634	-0.305	1.313	-3.084	0.077	5.971	-6.124
304950.104	NaN	2.239	7.315	-4.957	1509.158	1498.168	1498.901	-0.168	1.389	-3.176	0.153	6.048	-7.196
304951.080	NaN	2.239	7.326	-4.957	1509.158	1500.366	1499.634	0.015	1.313	-3.069	0.000	5.895	-7.273
304952.057	NaN	2.239	7.326	-4.967	1509.890	1500.366	1500.366	-0.015	1.176	-3.221	0.000	5.895	-7.349
304953.033	NaN	2.239	7.337	-4.967	1509.158	1498.901	1500.366	-0.015	1.115	-3.252	0.000	6.048	-7.273
304954.010	NaN	2.250	7.337	-4.957	1510.623	1498.901	1500.366	-0.107	1.145	-2.947	0.000	6.048	-7.349
304954.987	NaN	2.239	7.348	-4.946	1509.890	1501.099	1499.634	-0.229	1.130	-2.855	0.153	5.971	-7.502
304955.963	NaN	2.239	7.337	-4.967	1509.890	1499.634	1500.366	-0.214	1.115	-3.023	0.153	5.971	-6.124
304956.940	NaN	2.250	7.337	-4.967	1509.158	1499.634	1501.099	-0.290	0.977	-3.191	0.077	5.971	-7.349
304957.916	NaN	2.250	7.326	-4.978	1510.623	1499.634	1500.366	-0.153	1.008	-3.191	0.153	5.971	-7.349
304958.893	NaN	2.261	7.326	-4.967	1510.623	1498.901	1500.366	-0.183	1.084	-3.023	0.153	5.818	-7.349
304959.869	NaN	2.261	7.326	-4.967	1511.355	1500.366	1501.832	-0.168	1.176	-3.008	0.000	6.048	-7.273
304960.846	NaN	2.261	7.326	-4.967	1510.623	1500.366	1500.366	-0.076	1.237	-3.115	0.077	6.048	-7.426
304961.823	NaN	2.261	7.326	-4.946	1510.623	1499.634	1501.099	-0.076	1.282	-2.947	0.000	5.971	-7.349
304962.799	NaN	2.250	7.315	-4.957	1511.355	1499.634	1501.099	-0.031	1.374	-2.901	0.153	5.971	-7.273
304963.776	NaN	2.261	7.326	-4.957	1510.623	1500.366	1500.366	0.168	1.206	-2.977	0.077	5.971	-7.196
304964.752	NaN	2.261	7.337	-4.957	1510.623	1500.366	1499.634	0.046	1.008	-3.099	0.000	5.971	-7.349
304965.729	NaN	2.250	7.326	-4.967	1510.623	1500.366	1500.366	-0.305	0.931	-2.962	0.153	5.895	-7.196
304966.705	NaN	2.239	7.326	-4.967	1509.890	1499.634	1500.366	-0.534	1.038	-3.038	0.230	6.048	-7.196
304967.682	NaN	2.239	7.326	-4.967	1511.355	1500.366	1500.366	-0.336	1.115	-3.023	0.153	5.895	-7.196
304968.658	NaN	2.239	7.326	-4.967	1511.355	1499.634	1500.366	-0.076	1.206	-3.099	0.077	5.971	-7.196
304969.635	NaN	2.239	7.337	-4.978	1509.890	1500.366	1498.168	0.107	1.099	-3.053	0.153	6.048	-7.349
304970.612	NaN	2.228	7.326	-4.967	1509.158	1499.634	1498.901	0.076	0.947	-3.053	0.153	6.048	-7.273
304971.588	NaN	2.239	7.326	-4.978	1509.158	1500.366	1498.168	0.122	0.962	-3.069	0.077	6.048	-7.426
304972.565	NaN	2.239	7.315	-4.978	1509.890	1499.634	1499.634	0.046	1.053	-3.023	0.077	5.971	-7.349
304973.541	NaN	2.250	7.337	-4.978	1509.158	1499.634	1499.634	0.076	1.115	-3.053	0.077	5.971	-7.196
304974.518	NaN	2.250	7.337	-4.967	1509.890	1498.901	1498.901	-0.031	1.053	-3.099	0.153	5.895	-7.349
304975.494	NaN	2.250	7.326	-4.978	1509.158	1498.901	1500.366	-0.015	1.084	-3.008	0.153	6.048	-7.426
304976.471	NaN	2.239	7.337	-4.967	1509.890	1498.901	1501.099	0.183	1.069	-3.023	0.230	5.742	-7.273
304977.448	NaN	2.250	7.326	-4.957	1509.158	1498.901	1499.634	0.290	0.947	-2.916	0.077	5.971	-7.349
304978.424	NaN	2.239	7.326	-4.967	1510.623	1500.366	1499.634	0.153	0.931	-3.145	0.077	6.048	-7.273
304979.401	NaN	2.239	7.326	-4.957	1510.623	1499.634	1500.366	0.015	1.115	-3.176	0.153	5.971	-7.273
304980.377	NaN	2.239	7.315	-4.967	1510.623	1498.901	1499.634	-0.061	1.099	-3.191	0.153	5.895	-7.349
304981.354	NaN	2.239	7.315	-4.957	1511.355	1500.366	1500.366	-0.061	1.023	-3.069	0.153	5.895	-7.349
304982.330	NaN	2.250	7.326	-4.957	1512.088	1500.366	1500.366	0.015	1.008	-2.855	0.077	5.971	-7.349
304983.307	NaN	2.250	7.337	-4.957	1510.623	1500.366	1499.634	0.244	1.038	-2.855	0.077	6.048	-7.273
304984.283	NaN	2.239	7.326	-4.967	1509.158	1499.634	1501.099	0.046	1.130	-3.084	0.077	6.048	-7.273
304985.260	NaN	2.250	7.337	-4.967	1511.355	1500.366	1500.366	-0.122	1.160	-3.069	0.153	5.971	-7.196
304986.237	NaN	2.250	7.337	-4.967	1510.623	1500.366	1500.366	-0.122	1.206	-3.115	0.077	5.895	-7.349
304987.213	NaN	2.239	7.326	-4.967	1509.158	1500.366	1501.099	-0.107	1.038	-3.221	0.153	6.048	-7.426
304988.190	3736843118.964	2.250	7.337	-4.957	1509.890	1499.634	1499.634	0.061	0.977	-3.038	0.153	5.895	-8.498
304989.166	NaN	2.239	7.326	-4.967	1510.623	1499.634	1500.366	0.168	0.992	-2.931	0.077	5.895	-7.349
304990.143	NaN	2.239	7.337	-4.967	1509.890	1499.634	1501.099	-0.168	0.962	-2.885	0.153	5.971	-7.273
304991.119	NaN	2.261	7.348	-4.957	1509.890	1499.634	1500.366	-0.153	0.962	-3.023	0.077	6.048	-7.273
304992.096	NaN	2.272	7.359	-4.946	1510.623	1498.901	1499.634	-0.076	0.962	-3.069	-0.077	5.895	-7.273
304993.073	NaN	2.261	7.337	-4.967	1510.623	1498.901	1500.366	-0.015	0.855	-3.023	0.077	6.124	-7.349
304994.049	NaN	2.250	7.337	-4.978	1509.158	1498.901	1500.366	0.153	0.748	-3.023	0.153	6.048	-7.273
304995.026	NaN	2.250	7.337	-4.957	1511.355	1500.366	1499.634	0.229	0.840	-3.115	0.000	5.971	-7.273
304996.002	NaN	2.261	7.326	-4.967	1510.623	1500.366	1500.366	0.244	0.962	-2.916	0.077	5.895	-7.196
304996.979	NaN	2.250	7.326	-4.957	1510.623	1498.901	1499.634	0.183	0.931	-3.038	0.000	5.971	-7.273
304997.955	NaN	2.250	7.326	-4.957	1510.623	1500.366	1498.901	0.015	0.870	-3.069	0.153	6.048	-7.349
304998.932	NaN	2.261	7.326	-4.967	1512.088	1499.634	1501.099	-0.107	0.840	-3.145	0.153	6.048	-7.349
304999.908	NaN	2.250	7.337	-4.967	1509.890	1500.366	1500.366	-0.076	0.824	-3.084	0.000	6.048	-7.273
305000.885	NaN	2.261	7.337	-4.967	1510.623	1500.366	1500.366	-0.076	1.008	-3.084	0.306	5.971	-7.273
305001.862	NaN	2.261	7.337	-4.957	1512.088	1500.366	1498.901	-0.214	1.130	-3.160	0.153	6.048	-7.426
305002.838	NaN	2.250	7.337	-4.967	1511.355	1500.366	1500.366	-0.229	1.053	-3.053	0.153	6.048	-7.273
305003.815	NaN	2.261	7.348	-4.957	1510.623	1500.366	1499.634	-0.214	0.916	-3.252	0.153	6.048	-7.273
305004.791	NaN	2.250	7.326	-4.967	1510.623	1499.634	1500.366	0.000	0.916	-3.221	0.230	5.895	-7.273
305005.768	NaN	2.261	7.348	-4.967	1511.355	1499.634	1499.634	0.061	0.870	-3.130	0.230	6.048	-7.273
305006.744	NaN	2.261	7.337	-4.967	1509.890	1499.634	1500.366	0.168	0.947	-3.053	0.077	5.971	-7.196
305007.721	NaN	2.250	7.348	-4.989	1509.890	1499.634	1500.366	-0.076	0.855	-3.038	0.153	6.124	-7.273
305008.698	NaN	2.261	7.348	-4.967	1511.355	1500.366	1498.901	-0.153	0.794	-3.053	0.077	5.895	-7.273
305009.674	NaN	2.261	7.348	-4.967	1510.623	1499.634	1500.366	-0.015	1.038	-2.992	0.153	5.971	-7.426
305010.651	NaN	2.261	7.337	-4.978	1511.355	1499.634	1501.099	0.122	1.023	-2.870	0.077	6.048	-7.349
305011.627	NaN	2.239	7.348	-4.978	1510.623	1500.366	1498.901	0.321	0.855	-2.992	0.000	6.124	-7.273
305012.604	NaN	2.250	7.348	-4.957	1511.355	1501.099	1500.366	0.321	0.809	-3.008	0.153	5.971	-7.349
305013.580	NaN	2.250	7.348	-4.957	1510.623	1499.634	1501.099	0.290	0.870	-3.130	0.077	5.971	-7.349
305014.557	NaN	2.250	7.348	-4.957	1509.890	1501.099	1499.634	0.076	0.885	-3.191	0.077	5.895	-7.426
305015.533	NaN	2.250	7.348	-4.957	1511.355	1500.366	1500.366	0.031	0.794	-3.145	0.000	5.895	-7.273
305016.510	NaN	2.239	7.337	-4.967	1509.890	1500.366	1500.366	-0.031	0.718	-3.053	0.230	5.971	-7.273
305017.487	NaN	2.239	7.337	-4.957	1511.355	1500.366	1499.634	0.137	0.809	-2.916	0.153	5.818	-7.120
305018.463	NaN	2.239	7.326	-4.957	1509.890	1498.901	1501.099	0.076	1.023	-2.977	0.230	5.971	-7.196
305019.440	NaN	2.239	7.337	-4.957	1509.158	1499.634	1501.099	0.061	0.992	-3.176	0.153	6.048	-7.426
305020.416	NaN	2.228	7.326	-4.957	1510.623	1499.634	1500.366	-0.015	0.824	-3.191	0.077	5.971	-7.349
305021.393	NaN	2.228	7.326	-4.946	1510.623	1498.901	1500.366	-0.168	0.931	-3.084	0.077	6.048	-7.349
305022.369	NaN	2.239	7.337	-4.946	1510.623	1499.634	1499.634	0.092	0.901	-3.130	0.077	5.971	-7.273
305023.346	NaN	2.250	7.337	-4.946	1511.355	1499.634	1501.099	0.168	0.702	-3.023	0.153	6.124	-7.349
305024.323	NaN	2.250	7.326	-4.967	1510.623	1500.366	1500.366	0.000	0.733	-3.038	0.153	6.048	-7.273
305025.299	NaN	2.250	7.326	-4.978	1510.623	1501.099	1499.634	-0.015	0.794	-2.931	0.077	5.971	-7.349
305026.276	NaN	2.261	7.326	-4.957	1510.623	1500.366	1500.366	-0.092	0.870	-2.992	0.306	5.895	-7.349
305027.252	NaN	2.261	7.337	-4.946	1510.623	1500.366	1498.901	-0.168	0.840	-2.931	0.153	6.124	-7.349
305028.229	NaN	2.261	7.326	-4.946	1510.623	1499.634	1500.366	0.076	0.656	-2.885	0.153	5.895	-7.273
305029.205	NaN	2.261	7.326	-4.946	1509.890	1500.366	1499.634	0.366	0.641	-3.038	0.000	5.895	-7.273
305030.182	NaN	2.261	7.326	-4.957	1511.355	1500.366	1499.634	0.565	0.901	-3.160	0.000	5.971	-7.273
305031.158	NaN	2.250	7.326	-4.978	1509.890	1498.901	1501.099	0.443	0.947	-3.252	-0.077	5.971	-7.349
305032.135	NaN	2.261	7.337	-4.967	1511.355	1499.634	1500.366	0.214	0.809	-3.053	0.153	6.048	-7.349
305033.112	NaN	2.250	7.326	-4.967	1510.623	1500.366	1499.634	0.183	0.687	-2.901	0.153	5.971	-7.196
305034.088	NaN	2.250	7.326	-4.967	1509.158	1499.634	1499.634	-0.092	0.718	-2.885	0.230	6.048	-7.349
305035.065	NaN	2.250	7.337	-4.957	1510.623	1498.901	1500.366	-0.137	0.809	-2.931	0.077	5.971	-7.349
305036.041	NaN	2.250	7.337	-4.957	1509.158	1499.634	1499.634	-0.092	0.870	-3.176	0.077	6.048	-7.196
305037.018	NaN	2.250	7.337	-4.967	1509.890	1501.099	1500.366	0.198	0.672	-3.160	0.000	5.971	-7.196
305037.994	NaN	2.239	7.337	-4.978	1509.158	1499.634	1500.366	0.168	0.718	-3.176	0.077	5.895	-7.273
305038.971	NaN	2.250	7.348	-4.967	1510.623	1500.366	1500.366	0.122	0.809	-3.099	0.077	6.048	-7.349
305039.948	NaN	2.239	7.337	-4.978	1509.890	1499.634	1500.366	-0.076	0.595	-3.084	0.077	5.895	-7.273
305040.924	NaN	2.239	7.337	-4.989	1509.890	1498.901	1499.634	0.046	0.656	-3.206	1.148	5.971	-7.349
305041.901	NaN	2.250	7.337	-4.978	1510.623	1499.634	1502.564	0.214	0.718	-3.252	0.077	5.971	-7.426
305042.877	NaN	2.239	7.326	-4.989	1510.623	1499.634	1500.366	0.275	0.794	-3.206	0.077	5.971	-7.426
305043.854	NaN	2.239	7.337	-4.978	1510.623	1500.366	1499.634	0.076	0.901	-3.191	0.153	5.895	-7.349
305044.830	NaN	2.239	7.337	-4.967	1508.425	1500.366	1500.366	0.061	1.023	-3.069	0.153	6.124	-7.273
305045.807	NaN	2.239	7.337	-4.967	1510.623	1499.634	1501.099	0.153	0.916	-3.023	0.000	6.048	-7.349
305046.783	NaN	2.239	7.326	-4.978	1510.623	1500.366	1500.366	0.122	0.779	-3.038	0.153	5.971	-7.273
305047.760	NaN	2.228	7.326	-4.967	1510.623	1500.366	1499.634	-0.137	0.718	-3.160	0.230	5.971	-7.426
305048.737	NaN	2.228	7.326	-4.957	1510.623	1500.366	1499.634	0.076	0.779	-3.267	0.000	5.818	-7.349
305049.713	NaN	2.239	7.326	-4.967	1510.623	1499.634	1500.366	0.229	0.718	-3.221	0.077	6.124	-7.426
305050.690	NaN	2.239	7.337	-4.967	1509.158	1499.634	1500.366	0.198	0.748	-3.313	0.153	6.048	-7.349
305051.666	NaN	2.239	7.337	-4.957	1509.158	1499.634	1501.832	-0.031	0.672	-3.130	0.077	5.818	-7.349
305052.643	NaN	2.239	7.337	-4.957	1509.890	1499.634	1500.366	-0.122	0.504	-3.008	0.153	6.048	-7.273
305053.619	NaN	2.261	7.348	-4.946	1510.623	1500.366	1499.634	0.076	0.534	-3.221	0.153	6.048	-7.273
305054.596	NaN	2.261	7.337	-4.967	1511.355	1499.634	1499.634	0.275	0.718	-3.176	0.077	5.895	-7.196
305055.573	NaN	2.250	7.326	-4.978	1510.623	1498.168	1499.634	0.244	0.763	-3.145	0.077	5.895	-7.349
305056.549	NaN	2.261	7.326	-4.967	1511.355	1500.366	1499.634	0.198	0.779	-3.069	0.000	5.895	-7.196
305057.526	NaN	2.250	7.326	-4.978	1510.623	1499.634	1501.099	0.183	0.763	-3.084	0.077	6.048	-7.349
305058.502	NaN	2.250	7.326	-4.967	1510.623	1498.901	1501.099	0.092	0.779	-3.252	0.077	5.971	-7.273
305059.479	NaN	2.250	7.348	-4.957	1510.623	1500.366	1501.099	0.168	0.565	-3.359	0.153	5.895	-7.349
305060.455	NaN	2.250	7.337	-4.967	1510.623	1500.366	1499.634	-0.061	0.504	-3.527	0.153	5.971	-7.196
305061.432	NaN	2.261	7.348	-4.967	1511.355	1500.366	1501.099	0.061	0.595	-3.267	0.153	5.895	-7.196
305062.408	NaN	2.261	7.337	-4.957	1510.623	1501.099	1500.366	0.076	0.687	-2.992	0.153	5.895	-7.349
305063.385	NaN	2.261	7.337	-4.967	1510.623	1500.366	1500.366	0.229	0.702	-2.916	0.000	5.971	-7.349
305064.362	NaN	2.250	7.348	-4.967	1510.623	1500.366	1499.634	0.076	0.641	-3.038	0.153	5.971	-7.273
305065.338	NaN	2.250	7.337	-4.967	1510.623	1499.634	1499.634	0.061	0.427	-3.313	0.077	5.971	-7.349
305066.315	NaN	2.250	7.348	-4.957	1511.355	1501.099	1500.366	0.229	0.351	-3.313	0.077	5.895	-8.421
305067.291	NaN	2.250	7.337	-4.967	1510.623	1500.366	1500.366	0.260	0.580	-3.008	0.077	5.971	-7.273
305068.268	NaN	2.250	7.326	-4.957	1510.623	1500.366	1500.366	0.305	0.763	-2.992	0.000	5.895	-7.426
305069.244	NaN	2.250	7.315	-4.967	1510.623	1500.366	1498.901	0.351	0.718	-3.023	0.077	6.048	-7.426
305070.221	NaN	2.250	7.326	-4.967	1509.158	1499.634	1499.634	0.122	0.550	-3.115	0.153	6.048	-7.273
305071.198	NaN	2.261	7.326	-4.957	1509.158	1500.366	1499.634	0.000	0.534	-3.191	0.230	6.048	-7.349
305072.174	NaN	2.250	7.326	-4.957	1510.623	1499.634	1500.366	-0.076	0.656	-3.160	0.077	5.895	-7.349
305073.151	NaN	2.261	7.337	-4.957	1510.623	1499.634	1501.099	-0.015	0.687	-3.008	0.153	5.895	-7.273
305074.127	NaN	2.239	7.337	-4.957	1510.623	1500.366	1501.099	0.137	0.550	-3.053	0.000	6.048	-7.349
305075.104	NaN	2.239	7.326	-4.957	1509.890	1499.634	1499.634	0.336	0.534	-2.977	0.077	5.971	-7.349
305076.080	NaN	2.250	7.326	-4.957	1509.890	1498.901	1500.366	0.412	0.748	-2.931	-0.077	5.971	-7.426
305077.057	NaN	2.239	7.315	-4.967	1511.355	1500.366	1499.634	0.290	0.748	-3.130	0.077	5.895	-7.273
305078.033	NaN	2.239	7.326	-4.967	1509.890	1498.901	1499.634	0.275	0.534	-3.389	0.153	5.971	-7.273
305079.010	NaN	2.250	7.326	-4.967	1510.623	1500.366	1498.901	-0.107	0.489	-3.221	0.153	5.895	-7.349
305079.987	NaN	2.250	7.337	-4.978	1510.623	1499.634	1501.832	-0.076	0.443	-3.038	0.077	5.971	-7.273
305080.963	NaN	2.272	7.337	-4.957	1509.890	1499.634	1500.366	0.336	0.565	-3.221	0.077	6.048	-7.196
305081.940	NaN	2.261	7.326	-4.967	1511.355	1499.634	1501.832	0.198	0.794	-3.206	0.230	6.048	-7.273
305082.916	NaN	2.239	7.326	-4.967	1509.890	1498.168	1500.366	0.183	0.656	-3.130	0.000	5.971	-7.273
305083.893	NaN	2.250	7.326	-4.957	1510.623	1501.099	1500.366	0.489	0.458	-3.237	0.000	5.895	-7.349
305084.869	NaN	2.239	7.326	-4.957	1509.890	1501.832	1501.832	0.550	0.443	-3.130	0.077	5.971	-7.273
305085.846	NaN	2.239	7.337	-4.967	1511.355	1499.634	1498.901	0.565	0.427	-2.962	0.077	5.971	-7.273
305086.823	NaN	2.239	7.326	-4.967	1509.890	1500.366	1501.099	0.504	0.489	-2.931	0.000	5.895	-7.273
305087.799	NaN	2.250	7.326	-4.967	1509.890	1498.901	1501.099	0.275	0.443	-3.176	0.077	6.048	-7.349
305088.776	NaN	2.250	7.337	-4.957	1509.890	1500.366	1500.366	0.015	0.534	-3.176	0.153	6.048	-7.349
305089.752	NaN	2.250	7.337	-4.957	1510.623	1500.366	1500.366	-0.214	0.748	-3.176	0.077	5.895	-7.349
305090.729	NaN	2.239	7.337	-4.946	1510.623	1499.634	1500.366	0.092	0.779	-3.115	0.153	5.971	-7.273
305091.705	NaN	2.228	7.326	-4.957	1510.623	1500.366	1498.901	0.244	0.672	-2.992	0.000	5.971	-7.273
305092.682	NaN	2.239	7.326	-4.946	1510.623	1501.099	1499.634	0.183	0.611	-3.053	-0.077	5.971	-7.273
305093.658	NaN	2.250	7.315	-4.957	1509.890	1499.634	1498.901	0.168	0.504	-3.130	0.077	5.971	-7.426
305094.635	NaN	2.250	7.326	-4.946	1509.890	1498.901	1500.366	0.275	0.473	-3.221	0.000	5.895	-7.273
305095.612	NaN	2.239	7.326	-4.946	1510.623	1500.366	1501.099	0.168	0.626	-3.359	0.077	5.895	-7.273
305096.588	NaN	2.239	7.315	-4.957	1510.623	1498.901	1500.366	0.122	0.458	-3.084	0.153	5.895	-7.426
305097.565	NaN	2.239	7.326	-4.957	1509.890	1499.634	1499.634	0.305	0.305	-2.947	0.153	5.895	-7.349
305098.541	NaN	2.239	7.315	-4.967	1510.623	1499.634	1500.366	0.137	0.366	-3.160	0.077	5.971	-7.349
305099.518	NaN	2.239	7.326	-4.957	1509.158	1499.634	1498.901	-0.107	0.641	-3.221	0.077	6.048	-7.273
305100.494	3736843119.133	2.239	7.326	-4.946	1510.623	1498.901	1500.366	-0.214	0.641	-3.344	0.153	5.971	-7.502
305101.471	NaN	2.228	7.337	-4.946	1510.623	1501.099	1501.099	-0.031	0.580	-3.450	0.153	5.971	-7.349
305102.448	NaN	2.228	7.326	-4.967	1510.623	1500.366	1498.901	0.092	0.473	-3.252	0.230	5.895	-7.196
305103.424	NaN	2.239	7.326	-4.978	1509.158	1498.901	1498.901	0.229	0.260	-3.115	0.077	5.895	-7.273
305104.401	NaN	2.250	7.337	-4.967	1509.890	1500.366	1501.099	0.153	0.351	-3.160	0.077	5.971	-7.349
305105.377	NaN	2.239	7.337	-4.989	1510.623	1500.366	1499.634	0.260	0.550	-3.023	0.153	6.048	-7.273
305106.354	NaN	2.239	7.337	-4.978	1509.158	1499.634	1500.366	0.427	0.611	-3.145	0.153	5.818	-7.273
305107.330	NaN	2.239	7.348	-4.967	1509.890	1498.901	1499.634	0.489	0.626	-3.237	0.077	5.971	-7.349
305108.307	NaN	2.250	7.337	-4.967	1509.890	1499.634	1500.366	0.275	0.458	-3.344	0.000	5.971	-7.196
305109.283	NaN	2.250	7.337	-4.957	1510.623	1500.366	1498.901	0.321	0.473	-3.221	0.077	5.895	-7.273
305110.260	NaN	2.250	7.337	-4.967	1510.623	1500.366	1500.366	0.229	0.519	-3.298	0.153	5.895	-7.273
305111.237	NaN	2.250	7.348	-4.967	1510.623	1499.634	1501.099	0.260	0.473	-3.221	0.077	5.971	-7.426
305112.213	NaN	2.250	7.348	-4.967	1510.623	1499.634	1500.366	0.122	0.550	-3.160	0.153	5.971	-7.273
305113.190	NaN	2.250	7.348	-4.978	1510.623	1499.634	1500.366	0.122	0.580	-3.145	0.153	5.895	-7.349
305114.166	NaN	2.239	7.337	-4.978	1509.890	1498.901	1501.832	0.214	0.580	-3.252	0.153	6.048	-7.273
305115.143	NaN	2.250	7.337	-4.967	1509.890	1499.634	1499.634	0.397	0.611	-3.206	0.153	6.048	-7.349
305116.119	NaN	2.239	7.326	-4.978	1509.890	1499.634	1500.366	0.641	0.534	-3.053	0.077	6.048	-7.273
305117.096	NaN	2.250	7.337	-4.978	1509.158	1498.901	1499.634	0.504	0.489	-3.130	0.077	5.971	-7.273
305118.073	NaN	2.261	7.337	-4.957	1509.890	1499.634	1500.366	0.244	0.305	-3.145	0.077	6.048	-7.273
305119.049	NaN	2.250	7.337	-4.967	1509.890	1500.366	1498.901	0.076	0.366	-2.977	1.148	5.971	-7.273
305120.026	NaN	2.261	7.348	-4.967	1511.355	1499.634	1501.832	0.244	0.550	-2.916	0.000	6.048	-7.273
305121.002	NaN	2.261	7.348	-4.967	1510.623	1499.634	1502.564	0.275	0.534	-3.008	0.000	5.818	-7.349
305121.979	NaN	2.261	7.348	-4.957	1510.623	1500.366	1499.634	0.198	0.382	-3.084	0.077	6.048	-7.273
305122.955	NaN	2.261	7.337	-4.967	1509.890	1500.366	1501.832	0.031	0.305	-3.282	0.077	5.971	-7.349
305123.932	NaN	2.261	7.348	-4.967	1510.623	1500.366	1500.366	0.107	0.534	-3.405	0.153	5.971	-7.273
305124.908	NaN	2.250	7.348	-4.946	1511.355	1500.366	1500.366	0.000	0.565	-3.374	0.077	6.048	-7.349
305125.885	NaN	2.239	7.337	-4.957	1510.623	1500.366	1501.099	0.000	0.656	-3.130	0.000	5.895	-7.196
305126.862	NaN	2.239	7.326	-4.967	1510.623	1499.634	1500.366	0.031	0.550	-3.145	0.000	5.895	-7.273
305127.838	NaN	2.261	7.337	-4.946	1510.623	1500.366	1500.366	0.275	0.397	-3.191	0.153	5.895	-7.196
305128.815	NaN	2.261	7.326	-4.957	1509.890	1498.901	1500.366	0.244	0.366	-3.130	0.077	5.895	-7.349
305129.791	NaN	2.261	7.337	-4.957	1509.890	1500.366	1499.634	0.290	0.229	-3.237	0.000	6.048	-7.349
305130.768	NaN	2.261	7.326	-4.967	1510.623	1500.366	1500.366	0.260	0.198	-3.282	0.230	5.971	-7.349
305131.744	NaN	2.250	7.326	-4.967	1509.890	1498.901	1500.366	0.290	0.260	-3.008	0.153	5.818	-7.273
305132.721	NaN	2.250	7.348	-4.967	1509.890	1500.366	1499.634	0.229	0.366	-2.947	0.153	5.818	-7.349
305133.698	NaN	2.250	7.348	-4.957	1511.355	1501.099	1500.366	0.214	0.504	-3.206	0.077	6.048	-7.273
305134.674	NaN	2.250	7.348	-4.957	1511.355	1499.634	1501.099	0.489	0.382	-3.435	0.077	5.971	-7.196
305135.651	NaN	2.261	7.348	-4.978	1511.355	1500.366	1499.634	0.687	0.336	-3.374	0.153	5.971	-7.273
305136.627	NaN	2.250	7.337	-4.989	1511.355	1499.634	1500.366	0.443	0.336	-3.160	0.077	6.048	-7.426
305137.604	NaN	2.250	7.348	-4.967	1510.623	1500.366	1500.366	0.260	0.351	-3.176	0.153	6.048	-7.349
305138.580	NaN	2.250	7.348	-4.957	1510.623	1499.634	1500.366	0.168	0.214	-3.176	0.153	5.818	-7.349
305139.557	NaN	2.250	7.337	-4.935	1510.623	1500.366	1500.366	-0.031	0.260	-3.328	0.077	6.048	-7.502
305140.533	NaN	2.250	7.348	-4.946	1509.890	1500.366	1499.634	0.122	0.382	-3.160	0.153	5.895	-7.349
305141.510	NaN	2.250	7.337	-4.946	1509.158	1499.634	1498.168	0.229	0.565	-3.130	0.153	6.048	-7.273
305142.487	NaN	2.250	7.337	-4.924	1510.623	1501.099	1500.366	0.443	0.351	-3.221	0.000	6.048	-7.196
305143.463	NaN	2.250	7.337	-4.957	1510.623	1499.634	1500.366	0.427	0.214	-3.252	0.077	5.971	-7.273
305144.440	NaN	2.250	7.337	-4.957	1509.158	1499.634	1499.634	0.305	0.366	-3.344	0.077	5.971	-6.201
305145.416	NaN	2.239	7.337	-4.946	1510.623	1499.634	1500.366	0.244	0.473	-3.267	0.077	6.048	-7.273
305146.393	NaN	2.250	7.348	-4.957	1510.623	1501.099	1499.634	0.382	0.427	-3.160	0.077	6.048	-7.426
305147.369	NaN	2.272	7.337	-4.957	1510.623	1500.366	1498.901	0.427	0.275	-2.916	0.153	5.971	-7.273
305148.346	NaN	2.250	7.337	-4.967	1510.623	1500.366	1498.168	0.244	0.321	-3.053	0.000	6.124	-7.273
305149.323	NaN	2.250	7.326	-4.957	1510.623	1499.634	1500.366	0.092	0.382	-3.191	0.153	6.048	-7.349
305150.299	NaN	2.250	7.337	-4.967	1512.088	1499.634	1500.366	0.321	0.305	-3.359	0.230	5.895	-7.273
305151.276	NaN	2.250	7.337	-4.957	1510.623	1499.634	1501.099	0.412	0.275	-3.420	0.153	5.971	-6.124
305152.252	NaN	2.250	7.348	-4.957	1510.623	1500.366	1500.366	0.458	0.321	-3.511	0.230	6.048	-7.120
305153.229	NaN	2.239	7.337	-4.957	1509.890	1500.366	1500.366	0.458	0.305	-3.160	0.153	5.971	-7.349
305154.205	NaN	2.228	7.337	-4.957	1509.890	1499.634	1498.901	0.382	0.473	-3.115	0.000	6.048	-7.349
305155.182	NaN	2.228	7.337	-4.957	1511.355	1500.366	1498.168	0.290	0.427	-3.038	0.077	5.895	-7.349
305156.158	NaN	2.228	7.337	-4.967	1510.623	1498.901	1499.634	0.260	0.260	-3.160	0.000	6.048	-7.349
305157.135	NaN	2.239	7.348	-4.957	1509.158	1498.901	1500.366	0.229	0.137	-3.206	0.000	6.048	-7.273
305158.112	NaN	2.250	7.359	-4.967	1509.890	1498.901	1500.366	0.275	0.260	-3.160	0.153	6.048	-7.273
305159.088	NaN	2.250	7.348	-4.967	1508.425	1498.901	1500.366	0.473	0.412	-3.191	0.153	5.971	-7.426
305160.065	NaN	2.250	7.348	-4.967	1510.623	1501.099	1500.366	0.504	0.305	-3.145	0.153	5.895	-7.349
305161.041	NaN	2.239	7.337	-4.967	1510.623	1499.634	1499.634	0.321	0.275	-3.099	0.077	6.048	-7.273
305162.018	NaN	2.250	7.326	-4.946	1509.158	1499.634	1500.366	0.229	0.229	-3.206	0.077	6.048	-7.349
305162.994	NaN	2.239	7.337	-4.946	1509.890	1499.634	1500.366	0.260	0.366	-3.282	0.153	5.895	-7.273
305163.971	NaN	2.228	7.337	-4.946	1509.158	1500.366	1497.436	0.183	0.336	-3.237	0.153	5.971	-7.273
305164.948	NaN	2.239	7.337	-4.946	1509.158	1501.099	1500.366	0.519	0.290	-3.191	0.077	6.048	-7.349
305165.924	NaN	2.239	7.337	-4.957	1511.355	1500.366	1500.366	0.519	0.229	-3.206	0.230	5.818	-7.349
305166.901	NaN	2.239	7.326	-4.978	1511.355	1500.366	1498.901	0.366	0.214	-3.298	0.153	5.895	-7.349
305167.877	NaN	2.239	7.315	-4.978	1510.623	1498.901	1499.634	0.519	0.351	-3.084	0.000	5.971	-7.273
305168.854	NaN	2.239	7.315	-4.978	1510.623	1501.099	1501.099	0.489	0.412	-3.130	0.306	6.124	-7.273
305169.830	NaN	2.250	7.326	-4.967	1509.890	1500.366	1500.366	0.534	0.443	-3.267	0.000	6.124	-7.426
305170.807	NaN	2.250	7.326	-4.957	1509.890	1500.366	1500.366	0.519	0.458	-3.145	0.077	5.971	-7.120
305171.783	NaN	2.250	7.326	-4.967	1509.890	1500.366	1499.634	0.489	0.260	-3.084	0.153	5.895	-7.273
305172.760	NaN	2.250	7.326	-4.967	1510.623	1500.366	1499.634	0.473	0.168	-3.282	0.230	6.048	-7.426
305173.737	NaN	2.239	7.315	-4.967	1510.623	1499.634	1501.832	0.412	0.198	-3.298	0.153	5.971	-7.196
305174.713	NaN	2.250	7.326	-4.957	1510.623	1499.634	1501.832	0.427	0.275	-3.099	0.153	6.124	-7.273
305175.690	NaN	2.239	7.326	-4.967	1511.355	1500.366	1498.901	0.427	0.244	-3.084	0.077	5.895	-7.349
305176.666	NaN	2.250	7.315	-4.967	1511.355	1498.168	1500.366	0.458	0.092	-3.069	0.230	5.971	-7.273
305177.643	NaN	2.261	7.337	-4.957	1510.623	1500.366	1500.366	0.473	0.260	-3.069	-0.077	6.124	-7.273
305178.619	NaN	2.250	7.337	-4.967	1510.623	1499.634	1499.634	0.412	0.458	-3.313	0.077	5.971	-7.273
305179.596	NaN	2.250	7.337	-4.967	1509.890	1498.901	1499.634	0.473	0.458	-3.374	0.077	6.048	-7.273
305180.573	NaN	2.261	7.326	-4.957	1509.890	1499.634	1501.832	0.397	0.489	-3.206	0.000	5.971	-7.426
305181.549	NaN	2.250	7.337	-4.957	1509.158	1499.634	1500.366	0.244	0.382	-3.221	0.077	6.048	-7.273
305182.526	NaN	2.250	7.348	-4.946	1510.623	1500.366	1500.366	0.107	0.229	-3.206	0.153	6.048	-7.349
305183.502	NaN	2.250	7.326	-4.957	1510.623	1499.634	1499.634	0.336	0.137	-3.023	0.153	5.971	-7.426
305184.479	NaN	2.250	7.315	-4.946	1509.158	1498.901	1498.901	0.702	0.260	-3.130	0.153	6.048	-7.426
305185.455	NaN	2.239	7.315	-4.946	1510.623	1499.634	1501.099	0.718	0.321	-3.313	0.153	5.971	-7.196
305186.432	NaN	2.250	7.326	-4.957	1509.158	1501.099	1500.366	0.443	0.290	-3.313	0.230	6.048	-7.273
305187.408	NaN	2.239	7.326	-4.946	1510.623	1500.366	1500.366	0.229	0.198	-3.420	0.077	5.971	-7.349
305188.385	NaN	2.239	7.326	-4.957	1510.623	1499.634	1501.099	0.275	0.031	-3.298	0.000	6.048	-7.196
305189.362	NaN	2.239	7.337	-4.967	1509.890	1501.099	1500.366	0.550	-0.031	-3.099	0.000	5.895	-7.196
305190.338	NaN	2.239	7.326	-4.967	1510.623	1500.366	1498.901	0.611	0.137	-3.084	-0.077	5.971	-6.124
305191.315	NaN	2.250	7.326	-4.967	1511.355	1501.099	1499.634	0.779	0.137	-3.191	0.077	5.895	-7.426
305192.291	NaN	2.239	7.326	-4.967	1509.890	1500.366	1499.634	0.550	0.489	-3.069	0.153	5.971	-7.273
305193.268	NaN	2.239	7.326	-4.978	1510.623	1499.634	1500.366	0.290	0.534	-3.160	0.153	5.971	-7.349
305194.244	NaN	2.250	7.326	-4.967	1509.158	1500.366	1500.366	0.061	0.412	-3.252	0.000	5.971	-7.273
305195.221	NaN	2.239	7.326	-4.978	1510.623	1500.366	1498.901	0.107	0.366	-3.374	0.077	5.895	-7.349
305196.198	NaN	2.228	7.315	-4.967	1511.355	1500.366	1501.099	0.198	0.397	-3.359	0.153	5.971	-7.273
305197.174	NaN	2.228	7.326	-4.978	1510.623	1500.366	1500.366	0.443	0.366	-3.328	0.077	5.971	-7.273
305198.151	NaN	2.250	7.326	-4.967	1510.623	1500.366	1500.366	0.534	0.321	-3.145	0.077	5.971	-7.273
305199.127	NaN	2.239	7.326	-4.978	1510.623	1499.634	1501.832	0.321	0.351	-3.008	0.153	5.971	-7.426
305200.104	NaN	2.250	7.326	-4.978	1509.890	1499.634	1499.634	0.397	0.214	-2.901	0.153	6.048	-7.349
305201.080	NaN	2.261	7.326	-4.978	1511.355	1499.634	1501.099	0.519	0.321	-3.069	0.077	5.971	-7.349
305202.057	NaN	2.261	7.337	-4.989	1509.158	1499.634	1500.366	0.504	0.458	-3.298	0.153	6.048	-7.273
305203.033	NaN	2.261	7.337	-4.978	1510.623	1500.366	1500.366	0.412	0.137	-3.359	0.153	5.818	-7.196
305204.010	NaN	2.261	7.326	-4.978	1511.355	1498.901	1500.366	0.305	0.015	-3.099	1.148	5.971	-7.273
305204.987	NaN	2.272	7.337	-4.978	1511.355	1500.366	1501.832	0.290	0.153	-3.008	0.153	5.971	-7.349
305205.963	NaN	2.272	7.326	-4.967	1511.355	1500.366	1499.634	0.336	0.183	-3.298	0.000	6.048	-7.349
305206.940	NaN	2.272	7.315	-4.967	1511.355	1501.099	1501.099	0.137	0.107	-3.282	0.153	5.895	-7.349
305207.916	NaN	2.261	7.315	-4.967	1510.623	1499.634	1501.099	0.076	0.183	-3.344	0.077	5.971	-7.426
305208.893	NaN	2.250	7.326	-4.957	1511.355	1501.099	1500.366	0.336	0.183	-3.344	0.000	5.971	-7.273
305209.869	NaN	2.261	7.326	-4.957	1511.355	1500.366	1501.099	0.504	0.290	-3.298	0.153	5.971	-7.273
305210.846	NaN	2.250	7.326	-4.957	1510.623	1501.099	1500.366	0.382	0.183	-3.023	0.000	6.048	-7.349
305211.823	NaN	2.250	7.326	-4.967	1510.623	1499.634	1501.099	0.382	0.137	-3.023	0.077	6.048	-7.273
305212.799	NaN	2.239	7.326	-4.978	1511.355	1501.099	1500.366	0.321	0.198	-2.977	0.077	6.048	-7.349
305213.776	NaN	2.239	7.337	-4.967	1510.623	1500.366	1500.366	0.168	0.305	-3.023	0.077	5.971	-7.349
305214.752	NaN	2.239	7.337	-4.967	1510.623	1499.634	1500.366	0.260	0.153	-3.099	-0.077	5.971	-7.502
305215.729	NaN	2.239	7.326	-4.967	1511.355	1498.901	1501.099	0.580	0.076	-3.099	0.077	5.895	-7.273
305216.705	NaN	2.239	7.326	-4.957	1510.623	1500.366	1499.634	0.550	0.061	-3.053	0.153	5.895	-7.426
305217.682	NaN	2.250	7.326	-4.957	1509.890	1499.634	1500.366	0.595	0.198	-3.252	0.077	6.048	-7.273
305218.658	NaN	2.250	7.326	-4.946	1510.623	1500.366	1500.366	0.611	0.137	-3.389	0.000	5.971	-7.349
305219.635	NaN	2.261	7.326	-4.946	1509.890	1499.634	1501.099	0.397	0.046	-3.298	0.000	5.971	-7.196
305220.612	NaN	2.261	7.337	-4.957	1510.623	1499.634	1501.099	0.489	0.076	-3.099	-0.077	5.971	-7.273
305221.588	NaN	2.250	7.326	-4.967	1510.623	1499.634	1500.366	0.565	-0.061	-3.176	0.077	6.124	-7.349
305222.565	NaN	2.250	7.337	-4.967	1511.355	1500.366	1500.366	0.504	-0.107	-3.313	0.153	5.971	-7.426
305223.541	NaN	2.250	7.337	-4.957	1510.623	1500.366	1501.099	0.458	0.076	-3.221	0.077	5.971	-7.349
305224.518	NaN	2.239	7.348	-4.946	1510.623	1499.634	1501.099	0.397	0.153	-3.038	0.077	5.971	-7.273
305225.494	NaN	2.228	7.348	-4.946	1509.890	1500.366	1500.366	0.275	0.137	-3.084	0.153	6.048	-7.349
305226.471	NaN	2.239	7.348	-4.957	1511.355	1500.366	1500.366	0.336	0.122	-3.176	0.000	5.895	-7.273
305227.448	NaN	2.239	7.337	-4.946	1510.623	1500.366	1500.366	0.504	0.260	-3.206	0.153	5.971	-7.349
305228.424	NaN	2.239	7.348	-4.946	1510.623	1500.366	1500.366	0.489	0.168	-3.130	0.077	5.971	-7.273
305229.401	NaN	2.239	7.348	-4.946	1509.890	1500.366	1501.099	0.473	0.107	-3.115	0.153	5.895	-6.124
305230.377	NaN	2.239	7.337	-4.957	1509.890	1499.634	1501.099	0.473	0.153	-3.053	0.153	5.895	-7.273
305231.354	NaN	2.239	7.337	-4.957	1510.623	1500.366	1500.366	0.382	0.122	-3.008	0.077	6.201	-7.120
305232.330	NaN	2.250	7.337	-4.957	1510.623	1500.366	1501.832	0.382	0.122	-3.160	0.153	5.971	-7.196
305233.307	NaN	2.261	7.326	-4.957	1510.623	1500.366	1500.366	0.076	-0.092	-3.237	0.077	5.895	-7.349
305234.283	NaN	2.250	7.326	-4.967	1511.355	1500.366	1500.366	0.000	0.031	-3.191	0.077	5.971	-7.273
305235.260	NaN	2.239	7.337	-4.978	1510.623	1500.366	1501.099	0.168	0.137	-3.145	0.153	5.895	-7.273
305236.237	NaN	2.250	7.337	-4.967	1511.355	1500.366	1499.634	0.229	0.076	-3.252	0.077	5.971	-7.426
305237.213	NaN	2.250	7.326	-4.967	1510.623	1500.366	1500.366	0.260	0.183	-3.252	0.077	6.048	-7.349
305238.190	NaN	2.239	7.337	-4.978	1511.355	1499.634	1501.099	0.321	0.305	-3.191	0.153	5.971	-7.273
305239.166	NaN	2.239	7.326	-4.989	1509.890	1500.366	1499.634	0.382	0.183	-3.206	0.000	6.048	-7.426
305240.143	NaN	2.239	7.326	-4.978	1511.355	1501.099	1499.634	0.565	0.137	-3.130	0.230	5.971	-7.273
305241.119	NaN	2.250	7.315	-4.978	1511.355	1501.099	1500.366	0.305	0.183	-3.038	0.153	6.124	-7.196
305242.096	NaN	2.250	7.326	-4.989	1511.355	1499.634	1500.366	0.244	0.092	-3.237	0.153	5.895	-7.349
305243.073	NaN	2.261	7.315	-4.978	1511.355	1500.366	1499.634	0.580	0.092	-3.252	0.153	5.971	-7.426
305244.049	NaN	2.261	7.315	-4.978	1509.890	1500.366	1499.634	0.565	0.122	-3.298	0.077	5.971	-7.196
305245.026	NaN	2.272	7.315	-4.957	1509.890	1501.099	1499.634	0.519	0.229	-3.328	0.077	5.971	-7.349
305246.002	NaN	2.272	7.315	-4.957	1512.088	1500.366	1498.168	0.550	0.214	-3.191	0.077	6.048	-7.273
305316.315	NaN	2.239	7.326	-4.967	1509.890	1498.901	1498.901	0.382	0.198	-2.977	-0.077	5.971	-7.273
305317.291	NaN	2.250	7.326	-4.967	1509.890	1499.634	1499.634	0.427	0.122	-2.992	0.077	5.818	-7.349
305318.268	NaN	2.250	7.326	-4.967	1509.890	1500.366	1500.366	0.565	0.107	-3.038	-0.077	5.971	-7.349
305319.244	NaN	2.239	7.326	-4.967	1509.890	1499.634	1500.366	0.626	0.046	-2.916	0.153	6.048	-7.196
305320.221	NaN	2.250	7.337	-4.967	1510.623	1500.366	1498.901	0.473	0.046	-2.809	0.153	6.048	-7.349
305321.198	NaN	2.239	7.326	-4.946	1509.890	1500.366	1500.366	0.412	-0.061	-2.565	0.000	5.818	-7.502
305322.174	NaN	2.239	7.337	-4.935	1509.890	1500.366	1499.634	0.519	-0.015	-2.840	0.077	5.895	-7.273
305323.151	NaN	2.239	7.326	-4.957	1511.355	1500.366	1500.366	0.473	0.046	-2.992	0.000	5.895	-7.196
305324.127	NaN	2.239	7.326	-4.967	1511.355	1499.634	1500.366	0.321	-0.061	-3.099	0.153	6.048	-7.349
305325.104	NaN	2.250	7.326	-4.957	1510.623	1500.366	1499.634	0.122	-0.107	-2.947	0.077	5.971	-7.502
305326.080	NaN	2.250	7.337	-4.957	1511.355	1499.634	1498.901	0.153	-0.046	-2.870	0.077	5.895	-7.349
305327.057	NaN	2.239	7.315	-4.957	1510.623	1499.634	1500.366	0.275	0.046	-3.099	0.077	5.971	-7.426
305328.033	NaN	2.239	7.326	-4.978	1510.623	1499.634	1498.901	0.412	0.107	-3.069	0.153	5.971	-7.426
305329.010	3736843119.301	2.239	7.326	-4.989	1510.623	1500.366	1498.901	0.427	0.031	-3.130	0.153	5.895	-7.426
305329.987	NaN	2.250	7.315	-4.989	1509.890	1499.634	1500.366	0.427	-0.046	-3.206	0.230	6.048	-7.273
305330.963	NaN	2.261	7.326	-4.967	1510.623	1499.634	1501.099	0.366	-0.015	-3.176	0.077	5.971	-7.426
305331.940	NaN	2.261	7.337	-4.967	1510.623	1500.366	1498.901	0.305	0.046	-3.053	0.077	6.124	-7.349
305332.916	NaN	2.250	7.326	-4.978	1509.158	1498.901	1499.634	0.397	0.107	-2.947	-0.077	6.048	-7.273
305333.893	NaN	2.261	7.337	-4.957	1511.355	1500.366	1499.634	0.397	0.137	-2.977	0.000	6.124	-7.120
305334.869	NaN	2.239	7.337	-4.967	1510.623	1499.634	1501.832	0.550	-0.046	-2.977	0.077	6.048	-7.426
305335.846	NaN	2.239	7.337	-4.967	1510.623	1500.366	1499.634	0.427	-0.046	-3.038	0.077	5.895	-7.502
305336.823	NaN	2.250	7.337	-4.967	1508.425	1499.634	1502.564	0.412	-0.046	-3.023	0.230	6.048	-7.196
305337.799	NaN	2.250	7.337	-4.989	1511.355	1500.366	1500.366	0.504	-0.046	-2.901	0.077	6.048	-7.349
305338.776	NaN	2.261	7.337	-5.000	1509.158	1498.901	1498.901	0.489	0.046	-3.008	0.077	5.971	-7.196
305339.752	NaN	2.283	7.348	-4.989	1510.623	1500.366	1498.901	0.565	0.076	-3.008	0.153	6.048	-7.349
305340.729	NaN	2.272	7.337	-4.978	1510.623	1499.634	1501.099	0.565	0.000	-2.962	0.153	5.895	-7.196
305341.705	NaN	2.261	7.337	-4.978	1509.158	1499.634	1501.832	0.412	0.031	-2.901	0.077	5.971	-7.273
305342.682	NaN	2.272	7.337	-4.967	1510.623	1500.366	1500.366	0.336	-0.076	-2.794	0.077	5.895	-7.349
305343.658	NaN	2.261	7.337	-4.967	1511.355	1499.634	1500.366	0.458	-0.137	-2.840	0.077	6.048	-7.349
305344.635	NaN	2.261	7.348	-4.957	1509.890	1499.634	1501.832	0.366	-0.168	-3.008	0.000	6.048	-7.349
305345.612	NaN	2.239	7.348	-4.967	1510.623	1499.634	1501.832	0.504	-0.107	-2.977	0.077	6.048	-7.349
305346.588	NaN	2.239	7.348	-4.967	1509.890	1499.634	1500.366	0.519	0.000	-2.992	0.077	5.895	-7.273
305347.565	NaN	2.250	7.359	-4.967	1509.890	1500.366	1501.099	0.351	-0.031	-2.977	0.153	6.048	-7.349
305348.541	NaN	2.250	7.348	-4.989	1510.623	1499.634	1500.366	0.412	0.153	-2.931	0.000	5.971	-7.273
305349.518	NaN	2.250	7.337	-4.978	1508.425	1499.634	1499.634	0.565	0.198	-2.916	0.077	6.048	-7.349
