Timestamp	PC Timestamp	Low Noise Accelerometer X	Low Noise Accelerometer Y	Low Noise Accelerometer Z	Int A12	Int A13	Int A14	Gyroscope X	Gyroscope Y	Gyroscope Z	Wide Range Accelerometer X	Wide Range Accelerometer Y	Wide Range Accelerometer Z
58424.713	NaN	-3.152	1.587	9.489	1504.762	1504.029	1509.890	-6.229	-0.687	6.473	-5.895	-0.230	8.421
58425.690	NaN	-3.152	1.598	9.467	1504.762	1504.029	1508.425	-6.214	-0.763	6.504	-5.895	-0.230	8.498
58426.666	NaN	-3.130	1.587	9.478	1505.495	1504.762	1510.623	-6.351	-0.687	6.443	-5.818	-0.306	8.421
58427.643	NaN	-3.130	1.598	9.478	1505.495	1504.029	1510.623	-6.305	-0.565	6.656	-5.895	-0.230	8.421
58428.619	NaN	-3.141	1.598	9.478	1505.495	1504.029	1510.623	-6.275	-0.489	6.595	-5.818	-0.153	8.421
58429.596	NaN	-3.141	1.598	9.478	1505.495	1504.029	1509.890	-6.244	-0.611	6.504	-5.742	-0.153	8.268
58430.573	NaN	-3.141	1.587	9.478	1504.762	1503.297	1510.623	-6.397	-0.595	6.382	-5.818	-0.153	8.574
58431.549	NaN	-3.120	1.598	9.478	1505.495	1504.029	1510.623	-6.397	-0.687	6.427	-6.048	-0.230	8.421
58432.526	NaN	-3.120	1.587	9.478	1505.495	1504.029	1509.890	-6.214	-0.595	6.672	-5.971	-0.230	8.421
58433.502	NaN	-3.130	1.598	9.478	1504.762	1504.029	1511.355	-6.015	-0.519	6.656	-5.742	-0.230	8.421
58434.479	NaN	-3.152	1.587	9.467	1504.029	1503.297	1511.355	-6.244	-0.763	6.641	-5.742	-0.383	8.498
58435.455	NaN	-3.152	1.587	9.457	1505.495	1503.297	1509.158	-6.443	-0.611	6.565	-5.895	-0.306	8.115
58436.432	NaN	-3.152	1.598	9.467	1505.495	1504.029	1509.890	-6.260	-0.458	6.427	-5.895	-0.153	8.421
58437.408	NaN	-3.141	1.598	9.457	1505.495	1503.297	1510.623	-6.321	-0.580	6.427	-5.742	-0.306	8.268
58438.385	NaN	-3.141	1.598	9.446	1504.762	1503.297	1510.623	-6.504	-0.595	6.687	-5.818	-0.230	8.421
58439.362	NaN	-3.152	1.609	9.446	1506.227	1503.297	1510.623	-6.321	-0.595	6.550	-5.742	-0.306	8.421
58440.338	NaN	-3.130	1.598	9.467	1506.227	1505.495	1511.355	-6.290	-0.611	6.519	-5.818	-0.153	8.421
58441.315	NaN	-3.130	1.598	9.478	1504.762	1504.029	1511.355	-6.412	-0.626	6.580	-5.742	-0.306	8.498
58442.291	NaN	-3.141	1.598	9.489	1505.495	1504.029	1509.890	-6.473	-0.458	6.565	-5.742	-0.306	8.421
58443.268	NaN	-3.152	1.598	9.500	1504.762	1503.297	1509.890	-6.397	-0.672	6.580	-5.895	-0.306	8.421
58444.244	NaN	-3.152	1.587	9.489	1506.227	1504.029	1510.623	-6.366	-0.809	6.580	-5.818	-0.383	8.574
58445.221	NaN	-3.163	1.587	9.478	1504.762	1503.297	1509.890	-6.168	-0.595	6.458	-5.895	-0.230	8.344
58446.198	NaN	-3.152	1.598	9.489	1504.762	1503.297	1509.890	-6.412	-0.565	6.229	-5.971	-0.306	8.498
58447.174	NaN	-3.152	1.598	9.478	1505.495	1503.297	1509.158	-6.534	-0.397	6.321	-5.971	-0.306	8.421
58448.151	NaN	-3.174	1.598	9.467	1504.762	1503.297	1510.623	-6.595	-0.397	6.519	-5.895	-0.230	8.344
58449.127	NaN	-3.163	1.598	9.467	1506.227	1504.029	1509.890	-6.611	-0.458	6.458	-5.818	-0.230	8.344
58450.104	NaN	-3.163	1.598	9.489	1506.227	1504.029	1511.355	-6.427	-0.656	6.397	-5.742	-0.306	8.268
58451.080	NaN	-3.141	1.598	9.489	1506.227	1504.029	1509.890	-6.412	-0.824	6.626	-5.818	-0.153	8.344
58452.057	NaN	-3.152	1.587	9.478	1504.762	1503.297	1510.623	-6.519	-0.641	6.595	-5.818	-0.306	8.498
58453.033	NaN	-3.152	1.598	9.478	1506.227	1503.297	1510.623	-6.565	-0.687	6.397	-5.895	-0.306	8.498
58454.010	NaN	-3.141	1.620	9.478	1505.495	1504.029	1510.623	-6.443	-0.702	6.656	-5.818	-0.306	8.344
58454.987	NaN	-3.141	1.598	9.467	1505.495	1503.297	1509.158	-6.244	-0.595	6.733	-5.818	-0.230	8.344
58455.963	NaN	-3.141	1.609	9.478	1505.495	1503.297	1511.355	-6.229	-0.519	6.656	-5.742	-0.153	8.344
58456.940	NaN	-3.141	1.587	9.478	1505.495	1504.029	1510.623	-6.168	-0.519	6.687	-5.742	-0.230	8.421
58457.916	NaN	-3.141	1.587	9.478	1505.495	1504.762	1510.623	-6.351	-0.672	6.733	-5.895	-0.230	8.421
58458.893	NaN	-3.141	1.587	9.478	1504.762	1504.029	1509.890	-6.550	-0.611	6.626	-5.818	-0.383	8.421
58459.869	NaN	-3.141	1.587	9.478	1505.495	1504.029	1509.890	-6.290	-0.427	6.595	-5.895	-0.230	8.498
58460.846	NaN	-3.141	1.587	9.478	1505.495	1503.297	1510.623	-6.580	-0.397	6.504	-5.742	-0.230	8.344
58461.823	NaN	-3.163	1.598	9.478	1506.227	1503.297	1510.623	-6.763	-0.427	6.565	-5.818	-0.306	8.421
58462.799	NaN	-3.152	1.598	9.489	1505.495	1504.029	1510.623	-6.763	-0.458	6.672	-5.895	-0.383	8.421
58463.776	NaN	-3.141	1.598	9.467	1504.762	1503.297	1510.623	-6.656	-0.687	6.611	-5.818	-0.230	8.268
58464.752	NaN	-3.152	1.598	9.467	1505.495	1504.029	1509.890	-6.550	-0.763	6.626	-5.971	-0.153	8.344
58465.729	NaN	-3.152	1.598	9.467	1504.762	1504.029	1510.623	-6.489	-0.779	6.702	-5.818	-0.153	8.191
58466.705	NaN	-3.152	1.598	9.457	1506.227	1504.029	1509.890	-6.198	-0.626	6.748	-5.742	-0.230	8.344
58467.682	NaN	-3.141	1.598	9.457	1505.495	1504.762	1509.890	-6.321	-0.336	6.733	-5.742	-0.230	8.421
58468.658	NaN	-3.141	1.587	9.457	1504.762	1504.029	1510.623	-6.366	-0.427	6.794	-5.742	-0.230	8.421
58469.635	NaN	-3.130	1.598	9.435	1506.227	1504.029	1509.890	-6.397	-0.611	6.687	-5.818	-0.306	8.421
58470.612	NaN	-3.141	1.598	9.446	1506.227	1503.297	1510.623	-6.214	-0.641	6.641	-5.895	-0.153	8.268
58471.588	NaN	-3.141	1.598	9.446	1505.495	1504.029	1509.890	-6.168	-0.748	6.626	-5.742	-0.306	8.574
58472.565	NaN	-3.141	1.587	9.457	1506.960	1504.029	1509.890	-6.397	-0.626	6.611	-5.895	-0.153	8.498
58473.541	NaN	-3.152	1.587	9.457	1504.762	1504.029	1511.355	-6.427	-0.519	6.397	-5.818	-0.230	8.344
58474.518	NaN	-3.152	1.587	9.446	1505.495	1503.297	1509.158	-6.305	-0.489	6.473	-5.895	-0.230	8.344
58475.494	NaN	-3.152	1.598	9.446	1506.227	1505.495	1509.890	-6.458	-0.550	6.733	-5.818	-0.153	8.344
58476.471	NaN	-3.152	1.587	9.467	1506.227	1503.297	1510.623	-6.611	-0.534	6.702	-5.818	-0.306	8.498
58477.448	NaN	-3.152	1.587	9.467	1505.495	1504.029	1511.355	-6.473	-0.550	6.550	-5.818	-0.230	8.498
58478.424	NaN	-3.152	1.587	9.467	1506.227	1504.029	1510.623	-6.351	-0.519	6.718	-5.818	-0.153	8.268
58479.401	NaN	-3.152	1.587	9.467	1505.495	1503.297	1510.623	-6.229	-0.626	6.595	-5.665	-0.153	8.421
58480.377	NaN	-3.152	1.587	9.467	1504.762	1503.297	1509.890	-6.397	-0.626	6.611	-5.818	-0.383	8.344
58481.354	NaN	-3.152	1.598	9.467	1505.495	1504.029	1511.355	-6.519	-0.427	6.733	-5.895	-0.383	8.498
58482.330	NaN	-3.152	1.598	9.467	1504.762	1504.762	1510.623	-6.534	-0.534	6.595	-5.818	-0.153	8.268
58483.307	NaN	-3.163	1.598	9.467	1504.762	1504.762	1511.355	-6.412	-0.641	6.534	-5.818	-0.153	8.344
58484.283	NaN	-3.174	1.598	9.457	1506.227	1504.029	1509.890	-6.153	-0.656	6.702	-5.818	-0.383	8.344
58485.260	NaN	-3.174	1.598	9.467	1505.495	1504.762	1509.158	-6.321	-0.580	6.809	-5.742	-0.153	8.344
58486.237	NaN	-3.163	1.598	9.467	1506.227	1504.029	1510.623	-6.443	-0.565	6.672	-5.895	-0.306	8.344
58487.213	NaN	-3.163	1.609	9.467	1505.495	1503.297	1510.623	-6.366	-0.641	6.641	-5.895	-0.306	8.421
58488.190	NaN	-3.163	1.598	9.457	1505.495	1504.029	1510.623	-6.321	-0.595	6.687	-5.742	-0.383	8.344
58489.166	NaN	-3.163	1.609	9.467	1504.762	1504.029	1509.890	-6.504	-0.641	6.748	-5.895	-0.306	8.344
58490.143	NaN	-3.163	1.609	9.457	1504.762	1504.029	1510.623	-6.595	-0.641	6.718	-5.742	-0.153	8.268
58491.119	NaN	-3.163	1.598	9.457	1505.495	1504.029	1510.623	-6.748	-0.794	6.656	-5.589	-0.306	8.344
58492.096	NaN	-3.152	1.598	9.467	1505.495	1504.029	1510.623	-6.748	-0.718	6.687	-5.895	-0.306	8.421
58493.073	NaN	-3.163	1.587	9.457	1505.495	1504.029	1509.158	-6.382	-0.656	6.580	-5.742	-0.230	8.498
58494.049	NaN	-3.152	1.587	9.467	1506.227	1503.297	1512.088	-6.153	-0.595	6.611	-5.818	-0.230	8.268
58495.026	NaN	-3.152	1.587	9.457	1504.029	1504.762	1510.623	-6.183	-0.641	6.763	-5.742	-0.230	8.344
58496.002	NaN	-3.152	1.587	9.457	1505.495	1503.297	1510.623	-6.458	-0.519	6.779	-5.742	-0.306	8.574
58496.979	NaN	-3.163	1.576	9.457	1504.762	1504.029	1509.890	-6.443	-0.489	6.733	-5.818	-0.153	8.498
58497.955	NaN	-3.152	1.576	9.467	1505.495	1504.762	1512.088	-6.473	-0.580	6.794	-5.895	-0.306	8.268
58498.932	NaN	-3.141	1.576	9.478	1506.960	1504.029	1509.890	-6.427	-0.641	6.611	-5.742	-0.230	8.421
58499.908	NaN	-3.141	1.587	9.478	1505.495	1503.297	1511.355	-6.504	-0.611	6.550	-5.895	-0.153	8.344
58500.885	NaN	-3.141	1.587	9.489	1505.495	1503.297	1511.355	-6.504	-0.473	6.641	-5.818	-0.306	8.421
58501.862	NaN	-3.141	1.587	9.489	1504.762	1502.564	1509.890	-6.504	-0.458	6.656	-5.895	-0.306	8.498
58502.838	NaN	-3.141	1.587	9.478	1505.495	1503.297	1511.355	-6.412	-0.504	6.763	-5.895	-0.230	8.344
58503.815	NaN	-3.152	1.576	9.478	1505.495	1503.297	1509.890	-6.397	-0.504	6.687	-5.818	-0.230	8.574
58504.791	NaN	-3.141	1.598	9.478	1506.227	1502.564	1509.158	-6.183	-0.595	6.718	-5.665	-0.306	8.498
58505.768	NaN	-3.141	1.598	9.489	1506.227	1504.029	1510.623	-6.244	-0.687	6.855	-5.818	-0.230	8.268
58506.744	NaN	-3.152	1.598	9.489	1504.762	1502.564	1509.158	-6.443	-0.672	6.931	-5.818	-0.306	8.344
58507.721	NaN	-3.141	1.598	9.489	1506.227	1503.297	1511.355	-6.489	-0.580	6.779	-5.895	-0.153	8.421
58508.698	NaN	-3.152	1.609	9.478	1504.762	1503.297	1509.890	-6.183	-0.550	6.656	-5.818	-0.230	8.498
58509.674	NaN	-3.141	1.598	9.478	1505.495	1504.029	1509.890	-6.275	-0.489	6.824	-5.818	-0.306	8.421
58510.651	NaN	-3.163	1.598	9.467	1504.762	1504.029	1511.355	-6.305	-0.473	6.748	-5.818	-0.230	8.344
58511.627	NaN	-3.174	1.587	9.478	1504.762	1503.297	1509.890	-6.519	-0.534	6.733	-5.971	-0.230	8.268
58512.604	NaN	-3.163	1.598	9.478	1504.762	1503.297	1510.623	-6.626	-0.718	6.718	-5.895	-0.230	8.421
58513.580	NaN	-3.163	1.587	9.478	1505.495	1503.297	1509.158	-6.809	-0.611	6.748	-5.895	-0.383	8.268
58514.557	NaN	-3.185	1.587	9.467	1504.762	1503.297	1509.890	-6.748	-0.519	6.702	-5.742	-0.230	8.498
58515.533	NaN	-3.174	1.598	9.467	1506.227	1504.029	1509.890	-6.290	-0.641	6.626	-5.818	-0.306	8.498
58516.510	NaN	-3.185	1.587	9.467	1504.762	1504.029	1509.158	-6.198	-0.611	6.641	-5.895	-0.230	8.498
58517.487	NaN	-3.185	1.587	9.467	1504.762	1503.297	1509.158	-6.489	-0.595	6.824	-5.971	-0.230	8.344
58518.463	NaN	-3.163	1.587	9.457	1505.495	1504.762	1509.890	-6.458	-0.473	6.931	-5.742	-0.230	8.498
58519.440	NaN	-3.174	1.576	9.457	1504.029	1501.832	1509.158	-6.595	-0.412	6.885	-5.665	-0.077	8.268
58520.416	NaN	-3.152	1.587	9.457	1506.227	1504.029	1509.890	-6.718	-0.595	6.779	-5.818	-0.230	8.268
58521.393	NaN	-3.163	1.587	9.467	1505.495	1504.029	1509.890	-6.718	-0.702	6.733	-5.818	-0.306	8.421
58522.369	NaN	-3.141	1.598	9.467	1504.762	1504.762	1510.623	-6.672	-0.656	6.779	-5.818	-0.230	8.421
58523.346	NaN	-3.152	1.587	9.467	1504.762	1503.297	1509.890	-6.641	-0.565	6.885	-5.895	-0.230	8.421
58524.323	NaN	-3.152	1.598	9.467	1505.495	1504.029	1510.623	-6.473	-0.473	6.885	-5.895	-0.306	8.344
58525.299	NaN	-3.152	1.576	9.467	1503.297	1504.029	1509.890	-6.198	-0.565	6.672	-5.895	-0.230	8.344
58526.276	NaN	-3.130	1.587	9.467	1506.227	1504.762	1509.158	-6.336	-0.626	6.672	-5.971	-0.153	8.421
58527.252	NaN	-3.141	1.598	9.467	1506.227	1504.029	1508.425	-6.443	-0.595	6.641	-5.742	-0.306	8.421
58528.229	NaN	-3.141	1.609	9.478	1503.297	1503.297	1509.158	-6.504	-0.458	6.763	-5.895	-0.153	8.344
58529.205	NaN	-3.141	1.609	9.478	1505.495	1505.495	1512.088	-6.580	-0.504	6.763	-5.818	-0.153	8.421
58530.182	NaN	-3.163	1.598	9.467	1504.029	1504.029	1509.158	-6.580	-0.504	6.885	-5.895	-0.153	8.344
58531.158	NaN	-3.141	1.598	9.467	1504.029	1504.029	1510.623	-6.595	-0.702	6.977	-5.895	-0.306	8.498
58532.135	NaN	-3.152	1.598	9.467	1505.495	1504.029	1510.623	-6.656	-0.779	6.870	-5.818	-0.230	8.498
58533.112	NaN	-3.152	1.576	9.467	1504.762	1503.297	1509.158	-6.519	-0.824	6.687	-5.818	-0.306	8.574
58534.088	NaN	-3.130	1.598	9.467	1507.692	1504.762	1510.623	-6.702	-0.534	6.687	-5.818	-0.077	8.421
58535.065	NaN	-3.141	1.587	9.457	1506.227	1503.297	1509.158	-6.763	-0.565	6.763	-6.048	-0.153	8.421
58536.041	NaN	-3.141	1.609	9.467	1505.495	1504.029	1509.890	-6.611	-0.580	6.733	-5.895	-0.459	8.421
58537.018	NaN	-3.152	1.587	9.457	1505.495	1503.297	1509.890	-6.321	-0.794	6.840	-5.818	-0.230	8.498
58537.994	NaN	-3.152	1.587	9.467	1504.762	1503.297	1509.158	-6.229	-0.809	6.916	-5.818	-0.306	8.421
58538.971	NaN	-3.141	1.587	9.467	1505.495	1504.762	1509.158	-6.626	-0.580	6.992	-5.742	-0.383	8.421
58539.948	NaN	-3.152	1.587	9.467	1505.495	1504.029	1509.890	-6.947	-0.519	6.901	-5.971	-0.306	8.498
58540.924	NaN	-3.141	1.576	9.467	1505.495	1504.762	1510.623	-6.641	-0.626	6.794	-5.742	-0.230	8.268
58541.901	NaN	-3.141	1.565	9.457	1505.495	1504.029	1509.158	-6.427	-0.733	6.718	-5.818	-0.230	8.421
58542.877	NaN	-3.141	1.576	9.478	1504.762	1502.564	1509.158	-6.382	-0.672	6.733	-5.818	-0.230	8.344
58543.854	NaN	-3.130	1.598	9.467	1506.960	1504.762	1511.355	-6.672	-0.550	6.931	-5.818	-0.230	8.421
58544.830	NaN	-3.141	1.587	9.467	1505.495	1504.029	1510.623	-6.580	-0.565	6.870	-5.895	-0.077	8.421
58545.807	NaN	-3.141	1.598	9.478	1504.029	1504.029	1509.158	-6.626	-0.611	6.809	-5.895	-0.306	8.421
58546.783	NaN	-3.152	1.598	9.467	1505.495	1504.029	1510.623	-6.565	-0.733	6.855	-5.818	-0.230	8.268
58547.760	NaN	-3.152	1.598	9.467	1505.495	1504.029	1510.623	-6.519	-0.779	6.885	-5.818	-0.077	8.421
58548.737	NaN	-3.163	1.598	9.467	1505.495	1504.029	1509.158	-6.244	-0.656	6.748	-5.742	-0.459	8.421
58549.713	NaN	-3.163	1.609	9.467	1505.495	1504.762	1509.158	-6.366	-0.809	6.595	-5.818	-0.153	8.344
58550.690	NaN	-3.163	1.598	9.457	1505.495	1504.762	1509.158	-6.580	-0.885	6.641	-5.818	-0.230	8.268
58551.666	NaN	-3.152	1.598	9.457	1503.297	1502.564	1509.890	-6.519	-0.718	6.992	-5.818	-0.153	8.498
58552.643	NaN	-3.141	1.598	9.457	1505.495	1504.762	1510.623	-6.397	-0.550	7.206	-5.742	-0.306	8.344
58553.619	NaN	-3.152	1.598	9.457	1504.029	1504.029	1511.355	-6.427	-0.397	6.855	-5.742	-0.306	8.268
58554.596	NaN	-3.141	1.587	9.457	1506.227	1504.029	1511.355	-6.412	-0.351	6.718	-5.895	-0.383	8.344
58555.573	NaN	-3.152	1.576	9.457	1506.227	1504.029	1510.623	-6.595	-0.519	6.687	-5.818	-0.230	8.344
58556.549	NaN	-3.130	1.576	9.457	1504.762	1503.297	1509.158	-6.672	-0.595	6.794	-5.895	-0.077	8.268
58557.526	NaN	-3.130	1.587	9.467	1505.495	1503.297	1509.158	-6.702	-0.580	6.855	-5.895	-0.306	8.421
58558.502	NaN	-3.141	1.587	9.467	1505.495	1504.029	1509.158	-6.656	-0.641	6.901	-5.818	-0.230	8.498
58559.479	NaN	-3.163	1.576	9.457	1503.297	1503.297	1508.425	-6.412	-0.641	7.038	-5.742	-0.306	8.421
58560.455	NaN	-3.152	1.587	9.457	1504.029	1504.029	1509.890	-6.397	-0.748	6.977	-5.818	-0.230	8.421
58561.432	NaN	-3.163	1.587	9.446	1504.029	1504.029	1509.158	-6.427	-0.718	6.885	-5.742	-0.306	8.421
58562.408	NaN	-3.152	1.598	9.467	1504.762	1504.029	1510.623	-6.641	-0.458	6.824	-5.818	-0.230	8.421
58563.385	NaN	-3.152	1.598	9.467	1506.227	1504.029	1509.890	-6.763	-0.351	6.931	-5.818	-0.077	8.421
58564.362	NaN	-3.163	1.598	9.467	1505.495	1504.029	1509.890	-6.779	-0.595	6.748	-5.742	-0.230	8.498
58565.338	NaN	-3.141	1.598	9.467	1506.227	1504.029	1510.623	-6.382	-0.656	6.763	-5.818	-0.306	8.421
58566.315	NaN	-3.152	1.598	9.467	1504.762	1503.297	1509.890	-6.305	-0.611	6.992	-5.895	-0.306	8.421
58567.291	NaN	-3.141	1.598	9.467	1506.227	1503.297	1507.692	-6.366	-0.656	6.885	-5.895	-0.306	8.344
58568.268	NaN	-3.152	1.598	9.467	1504.762	1504.029	1509.158	-6.473	-0.733	6.748	-5.818	-0.230	8.344
58569.244	NaN	-3.152	1.576	9.478	1504.029	1503.297	1509.158	-6.443	-0.763	6.885	-5.895	-0.230	8.344
58570.221	NaN	-3.152	1.598	9.489	1504.762	1504.029	1509.890	-6.519	-0.794	6.855	-5.818	-0.230	8.344
58571.198	NaN	-3.163	1.587	9.489	1505.495	1504.029	1508.425	-6.489	-0.641	6.748	-5.818	-0.383	8.421
58572.174	NaN	-3.152	1.598	9.489	1505.495	1504.029	1508.425	-6.321	-0.779	7.038	-5.742	-0.153	8.421
58573.151	NaN	-3.163	1.587	9.478	1504.762	1503.297	1508.425	-6.305	-0.885	7.084	-5.818	-0.230	8.344
58574.127	NaN	-3.152	1.598	9.478	1506.227	1504.762	1510.623	-6.489	-0.809	6.962	-5.818	-0.230	8.421
58575.104	NaN	-3.141	1.587	9.467	1504.762	1504.029	1510.623	-6.641	-0.763	6.901	-5.895	-0.230	8.574
58576.080	NaN	-3.152	1.576	9.467	1505.495	1504.029	1509.890	-6.687	-0.641	6.779	-5.742	-0.306	8.344
58577.057	NaN	-3.163	1.576	9.467	1505.495	1503.297	1509.158	-6.748	-0.565	6.656	-5.818	-0.230	8.421
58578.033	NaN	-3.163	1.587	9.467	1505.495	1504.029	1510.623	-6.534	-0.412	6.809	-5.818	-0.383	8.421
58579.010	NaN	-3.163	1.576	9.478	1506.227	1504.029	1510.623	-6.504	-0.443	6.916	-5.895	-0.077	8.421
58579.987	NaN	-3.163	1.587	9.489	1504.762	1504.762	1509.890	-6.641	-0.504	7.053	-5.818	-0.153	8.574
58580.963	NaN	-3.163	1.587	9.489	1504.762	1504.762	1509.890	-6.504	-0.550	6.947	-5.818	-0.306	8.344
58581.940	NaN	-3.174	1.576	9.467	1505.495	1502.564	1509.158	-6.504	-0.611	6.870	-5.895	-0.306	8.344
58582.916	NaN	-3.163	1.576	9.478	1505.495	1504.029	1511.355	-6.595	-0.611	6.885	-5.742	-0.230	8.498
58583.893	NaN	-3.152	1.587	9.489	1506.227	1504.029	1510.623	-6.626	-0.565	6.840	-5.742	-0.306	8.421
58584.869	NaN	-3.141	1.576	9.489	1507.692	1504.762	1509.890	-6.458	-0.580	6.870	-5.818	-0.306	8.344
58585.846	NaN	-3.141	1.587	9.489	1505.495	1504.762	1509.890	-6.489	-0.626	6.824	-5.895	-0.230	8.421
58586.823	NaN	-3.141	1.587	9.489	1504.762	1504.762	1509.890	-6.611	-0.504	6.977	-5.818	-0.306	8.421
58587.799	NaN	-3.141	1.587	9.489	1504.762	1504.029	1510.623	-6.519	-0.427	6.947	-5.742	-0.383	8.421
58588.776	NaN	-3.130	1.598	9.489	1505.495	1504.762	1509.890	-6.550	-0.412	6.779	-5.818	-0.306	8.651
58589.752	NaN	-3.141	1.587	9.489	1505.495	1504.762	1511.355	-6.672	-0.443	6.794	-5.742	-0.306	8.498
58590.729	NaN	-3.141	1.576	9.489	1504.029	1504.029	1509.158	-6.641	-0.550	6.962	-5.742	-0.153	8.421
58591.705	NaN	-3.141	1.587	9.489	1505.495	1504.762	1510.623	-6.855	-0.611	6.947	-5.818	-0.383	8.421
58592.682	NaN	-3.141	1.598	9.489	1505.495	1503.297	1510.623	-6.687	-0.641	6.901	-5.895	-0.230	8.344
58593.658	NaN	-3.152	1.587	9.478	1506.227	1503.297	1508.425	-6.733	-0.687	6.916	-5.818	-0.153	8.421
58594.635	NaN	-3.152	1.598	9.478	1504.762	1504.029	1510.623	-6.702	-0.672	6.962	-5.665	-0.153	8.268
58595.612	NaN	-3.163	1.598	9.478	1506.227	1504.029	1509.158	-6.840	-0.565	7.008	-5.895	-0.306	8.421
58596.588	NaN	-3.141	1.598	9.478	1505.495	1504.029	1509.158	-6.763	-0.565	7.008	-5.665	-0.230	8.574
58597.565	NaN	-3.152	1.587	9.467	1504.762	1504.762	1510.623	-6.702	-0.595	6.916	-5.818	-0.383	8.268
58598.541	NaN	-3.141	1.587	9.467	1504.762	1504.029	1511.355	-6.748	-0.504	7.038	-5.818	-0.383	8.344
58599.518	NaN	-3.152	1.587	9.457	1504.762	1504.029	1510.623	-6.748	-0.519	6.931	-5.665	-0.383	8.498
58600.494	NaN	-3.141	1.598	9.457	1505.495	1505.495	1510.623	-6.580	-0.672	6.809	-5.818	-0.230	8.344
58601.471	NaN	-3.141	1.598	9.467	1505.495	1504.762	1510.623	-6.702	-0.840	6.779	-5.895	-0.230	8.421
58602.448	NaN	-3.141	1.598	9.457	1504.029	1504.029	1509.158	-6.901	-0.748	6.916	-5.742	-0.153	8.421
58603.424	NaN	-3.152	1.598	9.457	1505.495	1503.297	1509.158	-6.779	-0.641	6.870	-5.895	-0.230	8.421
58604.401	NaN	-3.152	1.598	9.457	1505.495	1504.029	1509.890	-6.794	-0.656	6.992	-5.895	-0.306	8.498
58605.377	NaN	-3.163	1.587	9.457	1504.762	1503.297	1509.158	-6.763	-0.809	7.115	-5.971	-0.306	8.421
58606.354	NaN	-3.152	1.598	9.467	1505.495	1503.297	1509.158	-6.565	-0.901	7.069	-5.818	-0.306	8.421
58607.330	NaN	-3.152	1.598	9.467	1505.495	1504.762	1509.890	-6.595	-0.672	6.992	-5.895	-0.306	8.421
58608.307	NaN	-3.163	1.587	9.478	1505.495	1504.029	1509.158	-6.534	-0.489	6.763	-5.742	-0.230	8.344
58609.283	NaN	-3.163	1.598	9.457	1504.762	1504.029	1509.890	-6.580	-0.641	6.885	-5.818	-0.230	8.421
58610.260	NaN	-3.152	1.598	9.457	1506.227	1504.029	1511.355	-6.779	-0.748	7.008	-5.818	-0.230	8.344
58611.237	NaN	-3.163	1.598	9.457	1504.029	1504.762	1509.890	-6.779	-0.718	7.115	-5.895	-0.153	8.498
58612.213	NaN	-3.163	1.598	9.457	1505.495	1502.564	1510.623	-6.641	-0.656	7.191	-5.895	-0.306	8.421
58613.190	NaN	-3.174	1.587	9.457	1504.029	1503.297	1509.890	-6.733	-0.580	7.176	-5.818	-0.230	8.344
58614.166	NaN	-3.163	1.587	9.467	1506.227	1504.762	1509.158	-6.718	-0.580	7.053	-5.971	-0.306	8.421
58615.143	NaN	-3.152	1.598	9.467	1506.227	1504.029	1509.158	-6.626	-0.641	6.855	-5.895	-0.153	8.344
58616.119	NaN	-3.163	1.598	9.478	1505.495	1504.029	1510.623	-6.748	-0.641	6.809	-5.895	-0.153	8.344
58617.096	NaN	-3.163	1.598	9.489	1505.495	1504.029	1508.425	-6.733	-0.595	7.023	-5.742	-0.230	8.344
58618.073	NaN	-3.174	1.598	9.467	1506.960	1504.029	1509.158	-6.656	-0.519	7.084	-5.818	-0.230	8.344
58619.049	NaN	-3.163	1.598	9.478	1506.960	1504.029	1509.890	-6.595	-0.458	7.191	-5.895	-0.306	8.344
58620.026	NaN	-3.163	1.609	9.478	1505.495	1504.029	1511.355	-6.794	-0.779	7.145	-5.818	-0.230	8.498
58621.002	NaN	-3.163	1.598	9.489	1506.227	1503.297	1509.890	-6.870	-0.779	6.916	-5.818	-0.383	8.344
58621.979	NaN	-3.163	1.598	9.478	1505.495	1502.564	1510.623	-6.824	-0.641	6.916	-5.895	-0.230	8.268
58622.955	NaN	-3.163	1.609	9.478	1505.495	1504.762	1510.623	-6.641	-0.641	6.931	-5.818	-0.230	8.344
58623.932	NaN	-3.152	1.609	9.478	1506.227	1504.029	1510.623	-6.656	-0.748	6.855	-5.665	-0.306	8.421
58624.908	NaN	-3.152	1.609	9.489	1506.227	1504.029	1511.355	-6.779	-0.672	6.931	-5.895	-0.459	8.268
58625.885	NaN	-3.152	1.598	9.489	1505.495	1503.297	1511.355	-6.733	-0.626	7.084	-5.818	-0.230	8.421
58626.862	NaN	-3.163	1.587	9.467	1505.495	1504.029	1509.890	-6.595	-0.611	7.221	-5.895	-0.383	8.344
58627.838	NaN	-3.141	1.587	9.478	1505.495	1504.762	1510.623	-6.611	-0.519	7.115	-5.895	-0.383	8.344
58628.815	NaN	-3.141	1.587	9.467	1505.495	1504.029	1511.355	-6.611	-0.595	7.115	-5.818	-0.230	8.344
58629.791	NaN	-3.152	1.576	9.467	1504.762	1504.762	1512.088	-6.702	-0.733	7.191	-5.895	-0.153	8.498
58630.768	NaN	-3.141	1.576	9.478	1504.762	1503.297	1509.890	-6.779	-0.748	7.008	-5.818	-0.383	8.498
58631.744	NaN	-3.152	1.598	9.478	1504.762	1504.029	1510.623	-6.870	-0.672	6.992	-5.665	-0.306	8.344
58632.721	NaN	-3.152	1.598	9.478	1505.495	1504.762	1510.623	-6.840	-0.702	7.053	-5.818	-0.153	8.268
58633.698	NaN	-3.152	1.587	9.478	1506.227	1504.029	1510.623	-6.702	-0.611	7.130	-5.895	-0.230	8.498
58634.674	NaN	-3.152	1.587	9.478	1506.227	1502.564	1509.890	-6.885	-0.672	7.176	-5.818	-0.383	8.421
58635.651	NaN	-3.163	1.576	9.478	1504.029	1503.297	1509.158	-7.099	-0.672	7.160	-5.971	-0.306	8.344
58636.627	NaN	-3.141	1.587	9.489	1504.762	1503.297	1509.158	-6.733	-0.473	7.099	-5.895	-0.230	8.268
58637.604	NaN	-3.152	1.576	9.478	1505.495	1503.297	1509.890	-6.595	-0.443	6.870	-5.895	-0.230	8.498
58638.580	NaN	-3.152	1.587	9.467	1504.029	1501.832	1508.425	-6.626	-0.473	6.916	-5.742	-0.306	8.421
58639.557	NaN	-3.163	1.587	9.467	1504.762	1504.029	1509.890	-6.794	-0.580	7.206	-5.818	-0.306	8.421
58640.533	NaN	-3.163	1.587	9.457	1505.495	1503.297	1509.158	-6.885	-0.626	7.084	-5.818	-0.306	8.421
58641.510	NaN	-3.152	1.587	9.457	1506.227	1504.029	1510.623	-6.824	-0.550	7.038	-5.895	-0.230	8.498
58642.487	NaN	-3.152	1.587	9.457	1506.227	1503.297	1509.890	-6.779	-0.702	7.160	-5.895	-0.077	8.344
58643.463	NaN	-3.152	1.587	9.457	1504.029	1503.297	1509.890	-6.733	-0.840	7.053	-5.895	-0.306	8.421
58644.440	NaN	-3.152	1.587	9.467	1504.762	1504.029	1509.158	-6.824	-0.916	7.069	-5.818	-0.383	8.344
58645.416	NaN	-3.152	1.576	9.467	1506.227	1502.564	1509.890	-6.855	-0.733	7.130	-5.895	-0.306	8.344
58646.393	NaN	-3.141	1.587	9.467	1506.227	1503.297	1509.158	-6.779	-0.611	7.099	-5.895	-0.230	8.344
58647.369	NaN	-3.141	1.587	9.457	1505.495	1504.762	1510.623	-6.748	-0.504	6.885	-5.895	-0.306	8.421
58648.346	NaN	-3.152	1.576	9.457	1504.762	1503.297	1509.158	-6.718	-0.321	6.809	-5.742	-0.306	8.498
58649.323	NaN	-3.152	1.587	9.457	1506.227	1503.297	1511.355	-6.687	-0.397	7.023	-5.818	-0.306	8.344
58650.299	NaN	-3.152	1.587	9.446	1504.762	1503.297	1509.158	-6.611	-0.550	7.191	-5.895	-0.383	8.421
58651.276	NaN	-3.152	1.587	9.457	1505.495	1503.297	1509.890	-6.611	-0.656	7.176	-5.818	-0.306	8.421
58652.252	NaN	-3.141	1.598	9.446	1505.495	1504.029	1509.890	-6.656	-0.519	7.038	-5.818	-0.153	8.344
58653.229	NaN	-3.152	1.587	9.446	1504.762	1503.297	1509.158	-6.824	-0.458	7.008	-5.818	-0.306	8.344
58654.205	NaN	-3.141	1.609	9.457	1504.762	1504.029	1509.890	-6.931	-0.641	7.099	-5.895	-0.230	8.421
58655.182	NaN	-3.130	1.598	9.467	1505.495	1504.029	1510.623	-7.069	-0.687	6.947	-5.742	-0.230	8.344
58656.158	NaN	-3.141	1.609	9.467	1504.762	1504.029	1509.158	-6.931	-0.473	6.794	-5.895	-0.230	8.498
58657.135	NaN	-3.141	1.609	9.478	1504.762	1504.762	1510.623	-6.885	-0.443	6.870	-5.818	-0.230	8.344
58658.112	NaN	-3.152	1.609	9.478	1504.029	1503.297	1508.425	-6.534	-0.656	7.084	-5.895	-0.230	8.421
58659.088	NaN	-3.141	1.598	9.489	1505.495	1504.762	1510.623	-6.534	-0.702	7.237	-5.818	-0.153	8.344
58660.065	NaN	-3.141	1.598	9.478	1505.495	1504.029	1510.623	-6.901	-0.595	7.267	-5.895	-0.230	8.268
58661.041	NaN	-3.141	1.598	9.489	1504.029	1503.297	1509.890	-6.885	-0.626	7.115	-6.048	-0.153	8.344
58662.018	NaN	-3.141	1.598	9.489	1504.762	1504.029	1510.623	-6.611	-0.794	6.885	-5.971	-0.306	8.344
58662.994	NaN	-3.152	1.598	9.478	1505.495	1504.029	1510.623	-6.382	-0.718	6.977	-5.742	-0.306	8.421
58663.971	NaN	-3.141	1.598	9.489	1505.495	1504.029	1510.623	-6.519	-0.519	7.130	-5.742	-0.306	8.344
58664.948	NaN	-3.152	1.587	9.478	1505.495	1503.297	1510.623	-6.580	-0.443	7.206	-5.742	-0.230	8.574
58665.924	NaN	-3.152	1.587	9.478	1505.495	1504.029	1511.355	-6.565	-0.779	7.206	-5.665	-0.230	8.421
58666.901	NaN	-3.152	1.576	9.467	1505.495	1503.297	1509.158	-6.611	-0.962	7.176	-5.742	-0.459	8.421
58667.877	NaN	-3.152	1.587	9.467	1505.495	1504.762	1510.623	-6.748	-0.672	7.282	-5.818	-0.230	8.498
58668.854	NaN	-3.152	1.576	9.457	1505.495	1503.297	1509.890	-6.672	-0.336	7.115	-5.742	-0.306	8.421
58669.830	NaN	-3.141	1.598	9.446	1505.495	1504.029	1509.158	-6.718	-0.366	6.992	-5.895	-0.153	8.191
58670.807	NaN	-3.152	1.587	9.457	1505.495	1503.297	1508.425	-6.718	-0.565	6.901	-5.818	-0.230	8.421
58671.783	NaN	-3.141	1.598	9.457	1505.495	1504.029	1509.890	-6.718	-0.611	7.038	-5.895	-0.153	8.268
58672.760	NaN	-3.152	1.598	9.467	1504.762	1504.029	1509.158	-6.748	-0.641	7.313	-5.895	-0.306	8.574
58673.737	NaN	-3.152	1.598	9.457	1506.227	1503.297	1508.425	-6.718	-0.824	7.160	-5.818	-0.306	8.344
58674.713	NaN	-3.152	1.598	9.467	1504.762	1504.762	1510.623	-6.977	-0.901	7.069	-5.818	-0.459	8.344
58675.690	NaN	-3.152	1.598	9.457	1506.227	1504.029	1509.158	-7.053	-0.718	6.916	-5.895	-0.230	8.421
58676.666	NaN	-3.141	1.609	9.467	1505.495	1504.762	1510.623	-7.008	-0.626	7.115	-5.895	-0.153	8.498
58677.643	NaN	-3.152	1.609	9.467	1504.762	1504.762	1510.623	-6.901	-0.519	7.191	-5.895	-0.306	8.421
58678.619	NaN	-3.163	1.598	9.478	1506.227	1503.297	1510.623	-6.824	-0.534	7.130	-5.742	-0.153	8.191
58679.596	NaN	-3.152	1.587	9.478	1504.762	1503.297	1509.890	-7.023	-0.595	7.130	-5.971	-0.153	8.421
58680.573	NaN	-3.163	1.587	9.478	1505.495	1504.762	1510.623	-7.145	-0.626	7.023	-5.895	-0.230	8.344
58681.549	NaN	-3.152	1.609	9.478	1505.495	1503.297	1509.158	-6.885	-0.824	7.282	-5.818	-0.306	8.421
58682.526	NaN	-3.163	1.598	9.478	1505.495	1504.029	1511.355	-6.977	-0.702	7.328	-5.818	-0.306	8.344
58683.502	NaN	-3.152	1.598	9.489	1504.762	1504.762	1510.623	-6.824	-0.565	7.206	-6.048	-0.153	8.421
58684.479	NaN	-3.152	1.587	9.478	1504.762	1504.762	1509.890	-6.687	-0.458	7.053	-5.742	-0.230	8.498
58685.455	NaN	-3.152	1.598	9.478	1506.227	1504.029	1511.355	-6.534	-0.382	7.008	-5.818	-0.230	8.268
58686.432	NaN	-3.141	1.587	9.467	1505.495	1504.762	1510.623	-6.718	-0.351	7.053	-5.895	-0.383	8.268
58687.408	NaN	-3.141	1.587	9.467	1505.495	1504.029	1510.623	-6.763	-0.534	7.237	-5.818	-0.383	8.498
58688.385	NaN	-3.152	1.598	9.467	1505.495	1504.029	1508.425	-6.779	-0.641	7.313	-5.818	-0.153	8.498
58689.362	NaN	-3.163	1.587	9.467	1505.495	1503.297	1510.623	-6.718	-0.397	7.176	-5.971	-0.306	8.344
58690.338	NaN	-3.152	1.587	9.478	1505.495	1504.029	1511.355	-6.855	-0.534	7.298	-5.818	-0.230	8.421
58691.315	NaN	-3.141	1.598	9.467	1505.495	1503.297	1509.890	-6.870	-0.550	7.237	-5.818	-0.306	8.498
58692.291	NaN	-3.141	1.598	9.457	1505.495	1503.297	1510.623	-6.718	-0.504	7.176	-5.895	-0.306	8.268
58693.268	NaN	-3.152	1.598	9.457	1505.495	1504.029	1509.890	-6.473	-0.534	7.206	-5.895	-0.153	8.344
58694.244	NaN	-3.152	1.609	9.457	1505.495	1504.762	1509.890	-6.626	-0.824	7.328	-5.895	-0.306	8.344
58695.221	NaN	-3.141	1.609	9.467	1505.495	1504.029	1509.158	-6.656	-0.824	7.405	-5.895	-0.230	8.574
58696.198	NaN	-3.141	1.609	9.478	1505.495	1503.297	1509.890	-6.870	-0.672	7.023	-5.818	-0.230	8.421
58697.174	NaN	-3.163	1.598	9.478	1504.762	1504.029	1510.623	-6.992	-0.473	6.931	-5.818	-0.230	8.268
58698.151	NaN	-3.163	1.598	9.467	1506.227	1503.297	1511.355	-7.038	-0.382	7.099	-5.818	-0.230	8.574
58699.127	NaN	-3.163	1.609	9.467	1506.227	1504.029	1510.623	-7.053	-0.550	7.298	-5.895	-0.230	8.344
58700.104	NaN	-3.163	1.609	9.478	1504.762	1504.029	1511.355	-6.977	-0.550	7.252	-5.742	-0.230	8.344
58701.080	3736847480.507	-3.163	1.598	9.467	1505.495	1503.297	1509.890	-6.901	-0.519	7.145	-5.818	-0.306	8.344
58702.057	NaN	-3.152	1.587	9.478	1504.762	1503.297	1510.623	-6.794	-0.565	7.267	-5.742	-0.306	8.498
58706.940	NaN	-3.152	1.598	9.467	1505.495	1504.029	1511.355	-6.916	-0.855	7.420	-5.895	-0.153	8.344
58707.916	NaN	-3.152	1.587	9.467	1505.495	1504.762	1510.623	-6.947	-0.672	7.237	-5.818	-0.230	8.344
58708.893	NaN	-3.141	1.587	9.478	1505.495	1504.029	1511.355	-6.901	-0.580	7.221	-5.895	-0.306	8.268
58709.869	NaN	-3.141	1.587	9.478	1506.227	1504.029	1509.158	-7.008	-0.611	7.115	-5.818	-0.383	8.498
58710.846	NaN	-3.141	1.587	9.489	1504.029	1503.297	1509.890	-6.809	-0.565	6.977	-5.818	-0.306	8.344
58711.823	NaN	-3.152	1.587	9.478	1505.495	1504.762	1509.158	-6.992	-0.611	7.069	-5.742	-0.306	8.421
58712.799	NaN	-3.152	1.587	9.478	1506.227	1504.029	1509.158	-6.931	-0.595	7.145	-5.818	-0.230	8.344
58713.776	NaN	-3.163	1.587	9.467	1506.227	1504.762	1509.890	-6.748	-0.382	7.237	-5.818	-0.230	8.344
58714.752	NaN	-3.152	1.598	9.489	1505.495	1503.297	1510.623	-6.687	-0.336	7.145	-5.742	-0.306	8.344
58715.729	NaN	-3.163	1.587	9.478	1505.495	1503.297	1508.425	-6.779	-0.519	7.115	-5.895	-0.230	8.344
58716.705	NaN	-3.152	1.587	9.478	1505.495	1504.029	1510.623	-6.855	-0.427	7.191	-5.818	-0.306	8.421
58717.682	NaN	-3.163	1.598	9.478	1505.495	1504.029	1510.623	-6.763	-0.519	7.160	-5.895	-0.230	8.421
58718.658	NaN	-3.163	1.598	9.478	1504.762	1504.029	1510.623	-6.595	-0.565	7.176	-5.742	-0.230	8.574
58719.635	NaN	-3.174	1.598	9.478	1505.495	1503.297	1509.890	-6.733	-0.534	7.130	-5.818	-0.306	8.498
58720.612	NaN	-3.185	1.587	9.478	1504.762	1503.297	1510.623	-6.809	-0.580	7.298	-5.895	-0.230	8.268
58721.588	NaN	-3.163	1.598	9.478	1506.227	1504.762	1511.355	-6.992	-0.534	7.298	-5.818	-0.230	8.421
58722.565	NaN	-3.174	1.587	9.457	1505.495	1504.029	1511.355	-7.008	-0.504	7.115	-5.742	-0.230	8.344
58723.541	NaN	-3.152	1.598	9.457	1504.029	1504.762	1509.158	-6.916	-0.626	7.053	-5.971	-0.153	8.344
58724.518	NaN	-3.152	1.587	9.446	1505.495	1503.297	1509.890	-6.763	-0.748	7.252	-5.895	-0.153	8.344
58725.494	NaN	-3.152	1.587	9.446	1506.227	1504.762	1508.425	-6.611	-0.641	7.313	-5.742	-0.306	8.421
58726.471	NaN	-3.141	1.587	9.457	1505.495	1503.297	1509.158	-6.870	-0.534	7.313	-5.742	-0.230	8.498
58727.448	NaN	-3.152	1.598	9.467	1506.227	1503.297	1509.890	-6.672	-0.550	7.344	-5.818	-0.230	8.268
58728.424	NaN	-3.152	1.587	9.467	1503.297	1502.564	1509.890	-6.626	-0.733	7.420	-5.818	-0.230	8.498
58729.401	NaN	-3.152	1.598	9.457	1505.495	1502.564	1509.158	-6.702	-0.855	7.282	-5.818	-0.153	8.498
58730.377	NaN	-3.141	1.598	9.457	1504.762	1504.029	1509.158	-6.779	-0.870	7.313	-5.742	-0.306	8.498
58731.354	NaN	-3.141	1.598	9.467	1505.495	1504.029	1510.623	-7.038	-0.641	7.481	-5.818	-0.077	8.344
58732.330	NaN	-3.141	1.587	9.457	1505.495	1503.297	1512.088	-7.084	-0.489	7.252	-5.818	-0.306	8.498
58733.307	NaN	-3.152	1.598	9.457	1504.762	1503.297	1509.158	-6.977	-0.550	7.099	-5.742	-0.230	8.498
58734.283	NaN	-3.141	1.598	9.467	1506.960	1504.029	1510.623	-6.931	-0.534	7.191	-5.818	-0.153	8.344
58735.260	NaN	-3.163	1.587	9.467	1504.762	1504.029	1509.158	-6.947	-0.427	7.405	-5.971	-0.230	8.421
58736.237	NaN	-3.152	1.587	9.478	1505.495	1503.297	1508.425	-6.901	-0.565	7.374	-5.818	-0.230	8.421
58737.213	NaN	-3.152	1.598	9.489	1505.495	1503.297	1509.890	-6.962	-0.672	7.206	-5.818	-0.153	8.344
58738.190	NaN	-3.152	1.587	9.478	1506.227	1503.297	1509.158	-7.038	-0.702	7.237	-5.818	-0.230	8.344
58739.166	NaN	-3.141	1.587	9.489	1505.495	1504.762	1510.623	-7.206	-0.626	7.282	-5.895	-0.230	8.574
58740.143	NaN	-3.152	1.576	9.489	1504.762	1504.762	1510.623	-7.115	-0.519	7.221	-5.742	-0.306	8.421
58741.119	NaN	-3.152	1.587	9.500	1504.762	1504.029	1509.890	-6.855	-0.489	7.252	-5.895	-0.153	8.498
58742.096	NaN	-3.152	1.587	9.500	1504.762	1504.762	1509.890	-6.870	-0.656	7.252	-5.818	-0.230	8.421
58743.073	NaN	-3.152	1.587	9.489	1506.227	1504.029	1509.890	-6.840	-0.672	7.282	-5.895	-0.153	8.344
58744.049	NaN	-3.152	1.587	9.478	1505.495	1504.029	1511.355	-6.824	-0.595	7.298	-5.818	-0.153	8.268
58745.026	NaN	-3.141	1.598	9.467	1505.495	1504.029	1509.158	-7.145	-0.595	7.359	-5.742	-0.153	8.344
58746.002	NaN	-3.152	1.587	9.467	1505.495	1503.297	1509.890	-7.084	-0.656	7.405	-5.895	-0.230	8.498
58746.979	NaN	-3.163	1.587	9.467	1504.762	1504.029	1510.623	-6.840	-0.672	7.252	-5.742	-0.230	8.421
58747.955	NaN	-3.152	1.587	9.467	1503.297	1502.564	1509.158	-6.656	-0.565	7.221	-5.742	-0.306	8.498
58748.932	NaN	-3.141	1.598	9.467	1504.762	1503.297	1509.890	-6.901	-0.550	7.252	-5.895	-0.306	8.421
58749.908	NaN	-3.130	1.598	9.457	1504.762	1504.029	1509.890	-7.084	-0.565	7.191	-5.742	-0.230	8.421
58750.885	NaN	-3.130	1.598	9.457	1505.495	1504.029	1509.890	-7.099	-0.641	7.191	-5.971	-0.383	8.498
58751.862	NaN	-3.141	1.587	9.457	1505.495	1504.029	1511.355	-6.885	-0.733	7.328	-5.895	-0.306	8.191
58752.838	NaN	-3.141	1.598	9.467	1504.762	1504.762	1511.355	-6.718	-0.763	7.237	-5.818	-0.230	8.574
58753.815	NaN	-3.141	1.598	9.467	1505.495	1503.297	1510.623	-6.931	-0.595	7.206	-5.895	-0.306	8.344
58754.791	NaN	-3.141	1.587	9.467	1504.029	1504.029	1509.158	-7.023	-0.504	7.237	-5.742	-0.153	8.421
58755.768	NaN	-3.141	1.576	9.467	1504.762	1504.029	1509.890	-6.702	-0.519	7.359	-5.971	-0.230	8.268
58756.744	NaN	-3.152	1.587	9.467	1505.495	1504.029	1509.158	-6.733	-0.504	7.466	-5.895	-0.383	8.498
58757.721	NaN	-3.141	1.587	9.457	1506.227	1503.297	1510.623	-6.855	-0.580	7.435	-5.818	-0.230	8.421
58758.698	NaN	-3.141	1.587	9.457	1505.495	1502.564	1509.890	-7.008	-0.672	7.328	-5.742	-0.306	8.421
58759.674	NaN	-3.163	1.587	9.457	1504.762	1504.029	1510.623	-6.977	-0.718	7.221	-5.818	-0.306	8.421
58760.651	NaN	-3.163	1.576	9.457	1505.495	1503.297	1509.890	-6.870	-0.580	7.160	-5.895	-0.306	8.344
58761.627	NaN	-3.163	1.587	9.457	1506.227	1503.297	1509.158	-6.855	-0.534	7.267	-5.895	-0.230	8.498
58762.604	NaN	-3.141	1.587	9.467	1504.762	1503.297	1509.158	-6.931	-0.550	7.191	-5.895	-0.306	8.421
58763.580	NaN	-3.141	1.587	9.457	1506.227	1504.029	1509.890	-7.053	-0.580	7.145	-5.742	-0.383	8.421
58764.557	NaN	-3.141	1.576	9.457	1504.029	1503.297	1509.158	-6.947	-0.382	7.267	-5.818	-0.306	8.344
58765.533	NaN	-3.152	1.576	9.457	1506.960	1504.762	1509.890	-6.977	-0.290	7.267	-5.742	-0.153	8.344
58766.510	NaN	-3.152	1.576	9.467	1504.762	1504.762	1510.623	-6.885	-0.473	7.359	-5.895	-0.153	8.421
58767.487	NaN	-3.163	1.587	9.457	1505.495	1504.029	1508.425	-6.748	-0.565	7.328	-5.818	-0.230	8.574
58768.463	NaN	-3.152	1.598	9.457	1504.762	1503.297	1509.890	-6.809	-0.504	7.160	-5.818	-0.306	8.421
58769.440	NaN	-3.163	1.598	9.446	1506.227	1502.564	1509.158	-6.885	-0.595	7.206	-5.818	-0.306	8.574
58770.416	NaN	-3.141	1.598	9.457	1505.495	1504.762	1510.623	-7.084	-0.611	7.496	-5.895	-0.153	8.498
58771.393	NaN	-3.152	1.576	9.467	1505.495	1504.762	1509.890	-6.947	-0.641	7.466	-5.971	-0.230	8.191
58772.369	NaN	-3.152	1.565	9.467	1504.762	1504.762	1510.623	-6.733	-0.565	7.298	-5.895	-0.230	8.421
58773.346	NaN	-3.152	1.565	9.467	1504.762	1503.297	1509.158	-6.626	-0.473	7.511	-5.818	-0.230	8.344
58774.323	NaN	-3.141	1.576	9.457	1505.495	1504.029	1509.890	-6.718	-0.489	7.435	-5.818	-0.230	8.421
58775.299	NaN	-3.141	1.576	9.446	1506.227	1504.762	1511.355	-6.809	-0.519	7.328	-5.818	-0.306	8.574
58776.276	NaN	-3.130	1.576	9.446	1505.495	1502.564	1509.158	-6.916	-0.382	7.282	-5.818	-0.230	8.344
58777.252	NaN	-3.130	1.576	9.446	1506.227	1504.029	1509.890	-6.901	-0.473	7.496	-5.742	-0.153	8.268
58778.229	NaN	-3.130	1.576	9.457	1504.762	1504.029	1509.158	-6.992	-0.687	7.389	-5.818	-0.306	8.421
58779.205	NaN	-3.130	1.598	9.467	1506.227	1503.297	1511.355	-7.145	-0.626	7.359	-5.971	-0.306	8.344
58780.182	NaN	-3.141	1.598	9.457	1505.495	1504.029	1509.890	-7.130	-0.580	7.374	-5.818	-0.306	8.421
58781.158	NaN	-3.141	1.609	9.457	1506.227	1503.297	1509.890	-6.962	-0.534	7.359	-5.818	-0.306	8.498
58782.135	NaN	-3.152	1.609	9.435	1506.227	1503.297	1510.623	-7.023	-0.626	7.481	-5.971	-0.230	8.344
58783.112	NaN	-3.152	1.587	9.435	1504.029	1503.297	1509.158	-7.084	-0.641	7.542	-5.895	-0.306	8.498
58784.088	NaN	-3.130	1.598	9.457	1501.832	1503.297	1509.890	-7.130	-0.611	7.634	-5.971	-0.306	8.344
58785.065	NaN	-3.141	1.587	9.457	1505.495	1503.297	1512.088	-6.870	-0.504	7.511	-5.742	-0.306	8.344
58786.041	NaN	-3.141	1.587	9.467	1503.297	1503.297	1509.158	-6.763	-0.550	7.511	-5.818	-0.306	8.344
58787.018	NaN	-3.141	1.587	9.467	1504.762	1504.029	1509.158	-6.718	-0.656	7.298	-5.895	-0.306	8.268
58787.994	NaN	-3.141	1.587	9.467	1505.495	1504.762	1510.623	-6.779	-0.534	7.313	-5.895	-0.230	8.498
58788.971	NaN	-3.141	1.576	9.478	1506.227	1504.029	1510.623	-6.794	-0.534	7.420	-5.895	-0.153	8.268
58789.948	NaN	-3.141	1.576	9.467	1505.495	1504.029	1509.890	-6.962	-0.595	7.435	-5.742	-0.153	8.268
58790.924	NaN	-3.141	1.565	9.457	1504.762	1504.029	1510.623	-7.038	-0.580	7.496	-5.818	-0.306	8.344
58791.901	NaN	-3.141	1.565	9.457	1505.495	1503.297	1510.623	-6.885	-0.534	7.573	-5.742	-0.230	8.498
58792.877	NaN	-3.141	1.576	9.457	1506.227	1504.762	1509.890	-6.855	-0.565	7.542	-5.895	-0.230	8.344
58793.854	NaN	-3.141	1.576	9.457	1505.495	1504.029	1509.158	-6.977	-0.718	7.359	-5.742	-0.306	8.421
58794.830	NaN	-3.141	1.587	9.457	1506.227	1503.297	1509.158	-7.069	-0.626	7.405	-5.742	-0.230	8.344
58795.807	NaN	-3.152	1.576	9.467	1504.029	1503.297	1509.890	-7.008	-0.534	7.176	-5.895	-0.306	8.421
58796.783	NaN	-3.141	1.587	9.467	1505.495	1503.297	1509.890	-6.977	-0.687	7.252	-5.895	-0.230	8.344
58797.760	NaN	-3.141	1.587	9.467	1504.762	1503.297	1509.890	-7.038	-0.580	7.221	-5.818	-0.306	8.421
58798.737	NaN	-3.141	1.598	9.467	1504.762	1502.564	1509.890	-7.115	-0.427	7.466	-5.895	-0.230	8.344
58799.713	NaN	-3.152	1.598	9.467	1504.762	1504.029	1510.623	-7.099	-0.595	7.511	-5.818	-0.230	8.344
58800.690	NaN	-3.163	1.598	9.457	1505.495	1502.564	1509.890	-6.962	-0.733	7.450	-5.818	-0.306	8.498
58801.666	NaN	-3.163	1.609	9.467	1505.495	1504.762	1510.623	-6.824	-0.672	7.466	-5.895	-0.306	8.268
58802.643	NaN	-3.174	1.598	9.457	1504.762	1503.297	1508.425	-6.962	-0.443	7.466	-5.895	-0.306	8.191
58803.619	NaN	-3.174	1.598	9.457	1504.762	1503.297	1509.890	-7.069	-0.443	7.557	-5.818	-0.306	8.421
58804.596	NaN	-3.163	1.598	9.467	1504.762	1504.029	1509.158	-7.084	-0.473	7.420	-5.818	-0.306	8.421
58805.573	NaN	-3.152	1.587	9.457	1505.495	1504.029	1509.158	-6.824	-0.550	7.542	-5.895	-0.077	8.651
58806.549	NaN	-3.152	1.598	9.467	1504.762	1503.297	1510.623	-6.779	-0.702	7.511	-5.742	-0.153	8.344
58807.526	NaN	-3.141	1.576	9.457	1506.227	1504.029	1510.623	-6.870	-0.687	7.634	-5.971	-0.230	8.421
58808.502	NaN	-3.141	1.587	9.457	1505.495	1504.029	1510.623	-7.130	-0.565	7.573	-5.818	-0.230	8.498
58809.479	NaN	-3.152	1.565	9.457	1504.029	1503.297	1510.623	-7.221	-0.672	7.359	-5.895	-0.230	8.651
58810.455	NaN	-3.152	1.576	9.457	1506.227	1504.762	1510.623	-7.160	-0.611	7.298	-5.742	-0.230	8.421
58811.432	NaN	-3.152	1.587	9.457	1505.495	1504.029	1510.623	-7.069	-0.534	7.527	-5.818	-0.230	8.498
58812.408	NaN	-3.152	1.598	9.467	1504.762	1503.297	1512.088	-7.084	-0.443	7.634	-5.818	-0.306	8.344
58813.385	NaN	-3.152	1.598	9.478	1504.762	1504.029	1509.890	-6.855	-0.397	7.542	-5.818	-0.153	8.344
58814.362	NaN	-3.152	1.609	9.478	1505.495	1504.029	1509.890	-6.885	-0.458	7.389	-5.818	-0.153	8.421
58815.338	NaN	-3.152	1.598	9.478	1506.227	1504.762	1509.890	-6.885	-0.611	7.450	-5.818	-0.306	8.498
58816.315	NaN	-3.163	1.587	9.478	1505.495	1503.297	1509.158	-6.885	-0.565	7.511	-5.818	-0.306	8.421
58817.291	NaN	-3.163	1.587	9.489	1504.762	1503.297	1509.158	-6.855	-0.672	7.664	-5.971	-0.230	8.498
58818.268	NaN	-3.163	1.587	9.489	1504.762	1503.297	1509.158	-6.947	-0.534	7.588	-5.742	-0.230	8.344
58819.244	NaN	-3.152	1.587	9.467	1505.495	1504.762	1508.425	-7.069	-0.687	7.496	-5.895	-0.230	8.421
58820.221	NaN	-3.141	1.587	9.457	1505.495	1504.029	1511.355	-7.053	-0.733	7.374	-5.895	-0.230	8.344
58821.198	NaN	-3.141	1.587	9.457	1506.227	1503.297	1508.425	-7.115	-0.763	7.298	-5.742	-0.306	8.421
58822.174	NaN	-3.152	1.587	9.457	1504.762	1502.564	1509.158	-7.160	-0.626	7.282	-5.665	-0.153	8.344
58823.151	NaN	-3.163	1.576	9.457	1505.495	1503.297	1509.890	-7.069	-0.412	7.557	-5.895	-0.230	8.344
58824.127	NaN	-3.163	1.598	9.467	1504.762	1504.029	1510.623	-7.206	-0.611	7.466	-5.818	-0.306	8.421
58825.104	NaN	-3.152	1.598	9.478	1505.495	1503.297	1510.623	-7.191	-0.565	7.450	-5.818	-0.306	8.268
58826.080	NaN	-3.141	1.598	9.457	1504.762	1504.029	1510.623	-6.870	-0.641	7.344	-5.818	-0.230	8.421
58827.057	NaN	-3.152	1.598	9.467	1506.227	1503.297	1509.890	-6.702	-0.595	7.466	-5.895	-0.230	8.421
58828.033	NaN	-3.152	1.598	9.457	1506.960	1503.297	1509.890	-6.794	-0.626	7.527	-5.742	-0.230	8.498
58829.010	NaN	-3.152	1.598	9.457	1505.495	1504.029	1511.355	-7.069	-0.595	7.557	-5.895	-0.306	8.421
58829.987	NaN	-3.152	1.587	9.467	1506.227	1504.029	1509.890	-7.237	-0.626	7.634	-5.818	-0.230	8.421
58830.963	NaN	-3.163	1.598	9.478	1505.495	1504.029	1510.623	-7.191	-0.656	7.710	-5.818	-0.306	8.344
58831.940	NaN	-3.163	1.587	9.478	1504.762	1503.297	1510.623	-7.084	-0.565	7.634	-5.742	-0.306	8.421
58832.916	NaN	-3.152	1.598	9.489	1505.495	1504.762	1510.623	-7.160	-0.550	7.481	-5.895	-0.383	8.421
58833.893	NaN	-3.141	1.598	9.489	1505.495	1504.762	1510.623	-7.160	-0.519	7.252	-5.742	-0.306	8.344
58834.869	NaN	-3.130	1.587	9.478	1506.227	1503.297	1509.158	-7.008	-0.534	7.160	-5.818	-0.306	8.574
58835.846	NaN	-3.141	1.587	9.478	1505.495	1504.029	1510.623	-6.809	-0.595	7.313	-5.818	-0.306	8.344
58836.823	NaN	-3.152	1.587	9.478	1505.495	1504.762	1509.158	-6.870	-0.611	7.450	-5.895	-0.153	8.498
58837.799	NaN	-3.152	1.598	9.489	1505.495	1504.029	1509.890	-7.069	-0.489	7.557	-5.818	-0.230	8.344
58838.776	NaN	-3.152	1.587	9.489	1504.762	1504.762	1511.355	-7.069	-0.504	7.511	-5.742	-0.230	8.421
58839.752	NaN	-3.163	1.598	9.489	1505.495	1503.297	1510.623	-6.992	-0.595	7.481	-5.818	-0.306	8.344
58840.729	NaN	-3.163	1.587	9.489	1506.227	1504.029	1509.890	-6.809	-0.702	7.328	-5.818	-0.153	8.268
58841.705	NaN	-3.163	1.598	9.478	1506.227	1504.762	1509.158	-6.733	-0.550	7.344	-5.742	-0.230	8.421
58842.682	NaN	-3.163	1.598	9.489	1505.495	1504.029	1509.158	-6.916	-0.473	7.618	-5.895	-0.306	8.421
58843.658	NaN	-3.163	1.598	9.489	1504.029	1505.495	1510.623	-7.145	-0.550	7.756	-5.818	-0.230	8.498
58844.635	NaN	-3.163	1.598	9.489	1505.495	1504.029	1509.890	-7.053	-0.565	7.634	-5.895	-0.230	8.498
58845.612	NaN	-3.174	1.598	9.467	1505.495	1504.762	1512.088	-6.947	-0.534	7.649	-5.971	-0.383	8.344
58846.588	NaN	-3.163	1.598	9.467	1505.495	1504.029	1509.890	-7.069	-0.748	7.756	-5.895	-0.230	8.344
58847.565	NaN	-3.152	1.598	9.457	1505.495	1504.762	1511.355	-7.115	-0.641	7.832	-5.818	-0.230	8.421
58848.541	NaN	-3.152	1.587	9.467	1504.762	1504.029	1509.890	-6.947	-0.534	7.664	-5.895	-0.230	8.421
58849.518	NaN	-3.163	1.598	9.478	1506.227	1504.029	1510.623	-6.947	-0.641	7.496	-5.742	-0.306	8.421
58850.494	NaN	-3.152	1.598	9.467	1506.960	1504.762	1510.623	-7.145	-0.656	7.603	-5.818	-0.153	8.344
58851.471	NaN	-3.130	1.587	9.478	1505.495	1504.762	1510.623	-7.298	-0.687	7.573	-5.589	-0.153	8.421
58852.448	NaN	-3.130	1.587	9.478	1505.495	1504.029	1509.890	-7.176	-0.687	7.573	-5.895	-0.383	8.498
58853.424	NaN	-3.130	1.587	9.467	1506.227	1504.029	1512.821	-7.053	-0.672	7.603	-5.895	-0.230	8.421
58854.401	NaN	-3.141	1.587	9.467	1505.495	1502.564	1509.890	-6.931	-0.779	7.496	-5.818	-0.077	8.498
58855.377	NaN	-3.141	1.587	9.478	1506.227	1504.762	1512.088	-7.023	-0.641	7.542	-5.895	-0.306	8.421
58856.354	NaN	-3.141	1.587	9.478	1506.227	1503.297	1512.088	-7.053	-0.519	7.435	-5.818	-0.383	8.421
58857.330	NaN	-3.141	1.576	9.478	1505.495	1504.762	1509.890	-7.069	-0.519	7.435	-5.665	-0.230	8.344
58858.307	NaN	-3.141	1.576	9.467	1504.762	1504.762	1509.890	-6.962	-0.504	7.527	-5.971	-0.459	8.574
58859.283	NaN	-3.152	1.587	9.467	1505.495	1504.029	1509.890	-6.977	-0.580	7.649	-5.665	-0.153	8.344
58860.260	NaN	-3.163	1.587	9.457	1506.227	1504.029	1511.355	-6.947	-0.656	7.527	-5.895	-0.306	8.344
58861.237	NaN	-3.152	1.587	9.457	1504.762	1504.762	1510.623	-7.145	-0.672	7.511	-5.895	-0.230	8.498
58862.213	NaN	-3.163	1.587	9.467	1505.495	1504.029	1510.623	-7.053	-0.611	7.679	-5.818	-0.306	8.651
58863.190	NaN	-3.163	1.576	9.457	1503.297	1504.029	1509.158	-7.038	-0.458	7.435	-5.818	-0.153	8.344
58864.166	NaN	-3.152	1.598	9.467	1505.495	1504.029	1510.623	-6.947	-0.504	7.420	-5.818	-0.230	8.421
58865.143	NaN	-3.152	1.598	9.467	1505.495	1504.762	1510.623	-7.084	-0.626	7.695	-5.895	-0.153	8.421
58866.119	NaN	-3.152	1.598	9.478	1506.227	1504.029	1509.158	-6.962	-0.611	7.802	-5.895	-0.230	8.498
58867.096	NaN	-3.163	1.587	9.478	1504.762	1504.762	1509.890	-7.038	-0.626	7.664	-5.665	-0.153	8.421
58868.073	NaN	-3.174	1.598	9.489	1506.227	1504.029	1509.158	-7.130	-0.641	7.420	-5.818	-0.306	8.421
58869.049	3736847480.666	-3.174	1.587	9.489	1505.495	1504.029	1510.623	-7.053	-0.656	7.511	-5.818	-0.153	8.268
58870.026	NaN	-3.174	1.576	9.489	1505.495	1502.564	1509.890	-6.824	-0.626	7.527	-5.818	-0.306	8.498
58871.002	NaN	-3.163	1.576	9.511	1505.495	1503.297	1509.158	-6.779	-0.473	7.695	-5.742	-0.306	8.268
58871.979	NaN	-3.163	1.576	9.489	1504.762	1504.029	1509.890	-6.962	-0.626	7.893	-5.818	-0.306	8.421
58872.955	NaN	-3.174	1.576	9.478	1504.762	1502.564	1509.158	-7.038	-0.565	7.863	-5.895	-0.230	8.421
58873.932	NaN	-3.152	1.587	9.478	1504.762	1503.297	1509.890	-7.206	-0.611	7.771	-5.818	-0.230	8.498
58874.908	NaN	-3.163	1.587	9.467	1505.495	1504.029	1509.890	-7.359	-0.656	7.847	-6.048	-0.306	8.421
58875.885	NaN	-3.152	1.587	9.478	1504.762	1502.564	1509.158	-7.237	-0.656	7.618	-5.742	-0.230	8.421
58876.862	NaN	-3.141	1.587	9.467	1504.762	1503.297	1508.425	-7.145	-0.443	7.557	-5.742	-0.230	8.421
58877.838	NaN	-3.141	1.587	9.467	1504.762	1503.297	1509.890	-6.931	-0.397	7.481	-5.895	-0.230	8.498
58878.815	NaN	-3.130	1.598	9.467	1504.762	1503.297	1511.355	-6.885	-0.534	7.282	-5.742	-0.230	8.344
58879.791	NaN	-3.141	1.587	9.457	1505.495	1504.029	1509.158	-7.053	-0.687	7.511	-5.818	-0.306	8.344
58880.768	NaN	-3.152	1.576	9.457	1504.762	1502.564	1509.158	-7.252	-0.504	7.710	-5.818	-0.077	8.344
58881.744	NaN	-3.141	1.598	9.457	1505.495	1504.029	1509.890	-7.160	-0.656	7.710	-5.895	-0.230	8.268
58882.721	NaN	-3.152	1.587	9.467	1504.762	1504.029	1510.623	-7.115	-0.779	7.649	-5.742	-0.230	8.344
58883.698	NaN	-3.152	1.609	9.467	1505.495	1503.297	1508.425	-6.977	-0.641	7.588	-5.971	-0.153	8.421
58884.674	NaN	-3.141	1.609	9.489	1505.495	1503.297	1511.355	-6.794	-0.641	7.664	-5.895	-0.153	8.421
58885.651	NaN	-3.163	1.598	9.478	1504.029	1504.029	1509.890	-6.901	-0.611	7.710	-5.742	-0.230	8.498
58886.627	NaN	-3.163	1.598	9.478	1504.029	1503.297	1509.890	-7.084	-0.565	7.573	-5.818	-0.383	8.421
58887.604	NaN	-3.141	1.609	9.478	1506.227	1504.762	1510.623	-7.084	-0.504	7.740	-5.895	-0.230	8.344
58888.580	NaN	-3.152	1.598	9.467	1505.495	1504.762	1509.890	-7.176	-0.595	7.893	-5.818	-0.306	8.421
58889.557	NaN	-3.152	1.598	9.467	1505.495	1502.564	1508.425	-7.053	-0.580	7.802	-5.742	-0.230	8.344
58890.533	NaN	-3.163	1.598	9.467	1506.227	1503.297	1511.355	-6.885	-0.504	7.618	-5.818	-0.306	8.344
58891.510	NaN	-3.163	1.598	9.467	1504.762	1503.297	1509.890	-7.084	-0.412	7.466	-5.818	-0.230	8.268
58892.487	NaN	-3.141	1.598	9.489	1504.762	1503.297	1509.890	-7.313	-0.244	7.603	-5.818	-0.383	8.421
58893.463	NaN	-3.141	1.587	9.489	1506.227	1503.297	1509.890	-7.328	-0.412	7.725	-5.895	-0.306	8.421
58894.440	NaN	-3.163	1.576	9.489	1505.495	1503.297	1509.890	-7.344	-0.489	7.695	-5.742	-0.306	8.421
58895.416	NaN	-3.163	1.587	9.478	1506.960	1503.297	1510.623	-7.023	-0.687	7.450	-5.742	-0.230	8.268
58896.393	NaN	-3.185	1.587	9.478	1504.762	1503.297	1507.692	-7.099	-0.672	7.435	-5.895	-0.230	8.574
58897.369	NaN	-3.163	1.598	9.478	1505.495	1503.297	1509.890	-7.069	-0.504	7.588	-5.818	-0.230	8.421
58898.346	NaN	-3.152	1.598	9.467	1504.762	1504.029	1510.623	-7.053	-0.443	7.832	-5.895	-0.306	8.498
58899.323	NaN	-3.163	1.587	9.478	1504.762	1503.297	1509.158	-7.145	-0.351	7.832	-5.818	-0.153	8.421
58900.299	NaN	-3.141	1.598	9.489	1504.762	1504.029	1511.355	-7.328	-0.580	7.756	-5.818	-0.153	8.574
58901.276	NaN	-3.152	1.598	9.489	1504.762	1503.297	1509.890	-7.176	-0.656	7.771	-5.818	-0.306	8.421
58902.252	NaN	-3.141	1.587	9.478	1504.762	1502.564	1509.890	-7.008	-0.672	7.679	-5.895	-0.306	8.421
58903.229	NaN	-3.152	1.587	9.467	1505.495	1504.029	1509.890	-6.977	-0.641	7.695	-5.971	-0.230	8.421
58904.205	NaN	-3.152	1.587	9.457	1504.762	1502.564	1509.890	-7.008	-0.550	7.435	-5.895	-0.230	8.421
58905.182	NaN	-3.130	1.598	9.457	1505.495	1504.029	1509.890	-7.008	-0.427	7.313	-5.818	-0.306	8.344
58906.158	NaN	-3.130	1.598	9.446	1505.495	1503.297	1509.158	-7.298	-0.458	7.496	-5.818	-0.230	8.344
58907.135	NaN	-3.141	1.598	9.457	1504.762	1504.029	1509.890	-7.221	-0.519	7.649	-5.895	-0.230	8.421
58908.112	NaN	-3.152	1.587	9.446	1504.762	1504.029	1509.158	-7.053	-0.473	7.573	-5.818	-0.230	8.421
58909.088	NaN	-3.141	1.598	9.457	1506.227	1503.297	1509.158	-7.206	-0.504	7.634	-5.895	-0.306	8.344
58910.065	NaN	-3.163	1.598	9.457	1504.762	1504.029	1510.623	-7.405	-0.382	7.802	-5.818	-0.230	8.574
58911.041	NaN	-3.163	1.598	9.467	1505.495	1502.564	1509.890	-7.267	-0.489	7.802	-5.895	-0.077	8.421
58912.018	NaN	-3.163	1.587	9.467	1505.495	1503.297	1510.623	-7.221	-0.733	7.664	-5.818	-0.230	8.498
58912.994	NaN	-3.152	1.598	9.467	1506.227	1504.029	1510.623	-7.221	-0.656	7.542	-5.818	-0.306	8.421
58913.971	NaN	-3.152	1.587	9.478	1504.762	1503.297	1510.623	-7.191	-0.382	7.725	-5.895	-0.230	8.421
58914.948	NaN	-3.152	1.598	9.478	1505.495	1504.029	1509.890	-7.282	-0.427	7.710	-5.895	-0.230	8.421
58915.924	NaN	-3.141	1.598	9.478	1505.495	1504.029	1509.158	-7.481	-0.534	7.634	-5.895	-0.077	8.344
58916.901	NaN	-3.152	1.587	9.478	1506.227	1503.297	1509.890	-7.298	-0.718	7.573	-5.895	-0.153	8.498
58917.877	NaN	-3.152	1.598	9.489	1505.495	1504.029	1510.623	-7.160	-0.840	7.573	-5.895	-0.230	8.421
58918.854	NaN	-3.163	1.598	9.489	1504.029	1503.297	1510.623	-6.916	-0.580	7.679	-5.818	-0.230	8.344
58919.830	NaN	-3.174	1.598	9.478	1504.762	1504.029	1510.623	-6.901	-0.427	7.603	-5.895	-0.230	8.421
58920.807	NaN	-3.163	1.587	9.467	1504.762	1503.297	1509.158	-7.008	-0.412	7.725	-5.895	-0.153	8.344
58921.783	NaN	-3.152	1.587	9.457	1505.495	1503.297	1511.355	-7.191	-0.443	7.740	-5.895	-0.230	8.421
58922.760	NaN	-3.141	1.587	9.467	1506.227	1504.762	1509.890	-7.221	-0.427	7.557	-5.971	-0.230	8.574
58923.737	NaN	-3.141	1.587	9.457	1506.227	1504.029	1510.623	-7.069	-0.534	7.710	-5.818	-0.306	8.421
58924.713	NaN	-3.130	1.598	9.446	1506.227	1504.029	1509.890	-7.176	-0.595	7.832	-5.818	-0.153	8.421
58925.690	NaN	-3.152	1.587	9.446	1505.495	1503.297	1509.890	-7.267	-0.519	7.832	-5.818	-0.306	8.344
58926.666	NaN	-3.152	1.587	9.467	1504.762	1503.297	1509.158	-7.328	-0.473	7.573	-5.665	-0.230	8.344
58927.643	NaN	-3.141	1.587	9.467	1503.297	1502.564	1509.158	-7.176	-0.595	7.573	-5.818	-0.230	8.344
58928.619	NaN	-3.130	1.598	9.478	1504.762	1504.029	1509.158	-6.870	-0.748	7.695	-5.742	-0.306	8.498
58929.596	NaN	-3.130	1.576	9.478	1504.029	1504.029	1510.623	-6.947	-0.580	7.664	-5.895	-0.459	8.421
58930.573	NaN	-3.141	1.587	9.467	1504.029	1503.297	1511.355	-7.084	-0.504	7.634	-5.742	-0.383	8.421
58931.549	NaN	-3.130	1.587	9.467	1504.762	1504.029	1512.088	-7.267	-0.443	7.710	-5.742	-0.306	8.421
58932.526	NaN	-3.130	1.587	9.467	1505.495	1504.762	1512.088	-7.313	-0.260	7.542	-5.818	-0.230	8.344
58933.502	NaN	-3.141	1.598	9.467	1505.495	1504.762	1510.623	-7.313	-0.427	7.573	-5.818	-0.306	8.421
58934.479	NaN	-3.141	1.598	9.478	1504.762	1504.029	1509.158	-7.344	-0.641	7.634	-5.665	-0.153	8.344
58935.455	NaN	-3.141	1.598	9.489	1505.495	1504.029	1510.623	-7.282	-0.718	7.802	-5.742	-0.306	8.574
58936.432	NaN	-3.152	1.598	9.478	1505.495	1503.297	1510.623	-6.962	-0.504	7.847	-5.742	-0.230	8.344
58937.408	NaN	-3.152	1.587	9.467	1505.495	1504.029	1509.890	-7.038	-0.489	7.847	-5.818	-0.230	8.498
58938.385	NaN	-3.152	1.587	9.467	1504.762	1504.029	1509.890	-7.099	-0.534	7.863	-5.742	-0.306	8.421
58939.362	NaN	-3.152	1.587	9.467	1506.960	1504.029	1509.158	-7.328	-0.458	7.756	-5.895	-0.306	8.498
58940.338	NaN	-3.141	1.598	9.467	1506.227	1504.762	1510.623	-7.237	-0.565	7.756	-5.895	-0.153	8.421
58941.315	NaN	-3.152	1.587	9.457	1506.227	1504.029	1509.890	-7.145	-0.641	7.802	-5.895	-0.230	8.421
58942.291	NaN	-3.141	1.587	9.457	1505.495	1502.564	1509.890	-7.038	-0.702	7.756	-5.895	-0.230	8.344
58943.268	NaN	-3.163	1.587	9.467	1505.495	1504.029	1509.890	-6.992	-0.580	7.756	-5.971	-0.230	8.421
58944.244	NaN	-3.152	1.587	9.467	1505.495	1504.762	1510.623	-6.901	-0.687	7.908	-5.895	-0.306	8.344
58945.221	NaN	-3.152	1.598	9.467	1505.495	1503.297	1510.623	-7.053	-0.626	8.092	-5.971	-0.230	8.498
58946.198	NaN	-3.152	1.598	9.457	1505.495	1503.297	1510.623	-7.328	-0.580	7.969	-5.895	-0.306	8.344
58947.174	NaN	-3.152	1.598	9.467	1504.762	1503.297	1510.623	-7.328	-0.641	7.908	-5.895	-0.153	8.421
58948.151	NaN	-3.174	1.598	9.467	1505.495	1503.297	1509.158	-7.176	-0.580	7.863	-5.971	-0.306	8.344
58949.127	NaN	-3.163	1.598	9.467	1504.029	1503.297	1509.890	-6.992	-0.489	7.802	-5.895	-0.306	8.344
58950.104	NaN	-3.152	1.587	9.467	1504.029	1503.297	1509.890	-6.931	-0.519	7.695	-5.818	-0.383	8.268
58951.080	NaN	-3.152	1.598	9.478	1504.762	1504.029	1509.158	-6.977	-0.595	7.802	-5.895	-0.230	8.344
58952.057	NaN	-3.152	1.587	9.467	1505.495	1502.564	1509.890	-7.023	-0.626	7.924	-5.818	-0.306	8.421
58953.033	NaN	-3.141	1.598	9.467	1504.762	1504.029	1509.890	-7.115	-0.611	7.832	-5.818	-0.306	8.421
58954.010	NaN	-3.163	1.587	9.467	1505.495	1503.297	1509.890	-7.099	-0.519	7.664	-5.665	-0.230	8.498
58954.987	NaN	-3.163	1.587	9.478	1504.762	1503.297	1509.890	-7.023	-0.427	7.664	-5.818	-0.230	8.498
58955.963	NaN	-3.163	1.598	9.478	1504.762	1504.029	1509.890	-7.099	-0.519	7.679	-5.742	-0.077	8.268
58956.940	NaN	-3.174	1.587	9.478	1504.762	1503.297	1510.623	-7.099	-0.427	7.847	-5.742	-0.230	8.574
58957.916	NaN	-3.152	1.598	9.478	1506.227	1504.029	1512.821	-7.160	-0.519	7.939	-5.742	-0.383	8.421
58958.893	NaN	-3.174	1.576	9.489	1505.495	1504.029	1511.355	-7.130	-0.550	7.954	-5.895	-0.306	8.498
58959.869	NaN	-3.163	1.598	9.489	1506.227	1504.762	1510.623	-7.099	-0.580	7.771	-5.818	-0.306	8.344
58960.846	NaN	-3.174	1.587	9.489	1504.029	1503.297	1509.158	-7.176	-0.626	7.740	-5.971	-0.306	8.344
58961.823	NaN	-3.163	1.587	9.478	1504.762	1504.762	1510.623	-7.328	-0.519	7.847	-5.818	-0.306	8.498
58962.799	NaN	-3.141	1.587	9.489	1505.495	1504.029	1512.088	-7.450	-0.565	7.832	-5.895	-0.153	8.268
58963.776	NaN	-3.141	1.587	9.478	1505.495	1503.297	1510.623	-7.145	-0.534	7.939	-5.895	-0.230	8.574
58964.752	NaN	-3.141	1.598	9.478	1504.762	1504.029	1510.623	-7.008	-0.473	7.847	-5.818	-0.230	8.344
58965.729	NaN	-3.152	1.598	9.457	1505.495	1504.029	1510.623	-7.237	-0.427	7.817	-5.742	-0.230	8.421
58966.705	NaN	-3.141	1.609	9.457	1505.495	1504.029	1509.890	-7.344	-0.595	7.832	-5.742	-0.306	8.344
58967.682	NaN	-3.152	1.609	9.446	1506.960	1503.297	1509.890	-7.282	-0.595	7.802	-5.895	-0.230	8.268
58968.658	NaN	-3.141	1.598	9.446	1505.495	1504.029	1511.355	-7.237	-0.397	7.679	-5.895	-0.230	8.498
58969.635	NaN	-3.141	1.609	9.446	1505.495	1504.762	1511.355	-7.298	-0.366	7.695	-5.818	-0.230	8.421
58970.612	NaN	-3.152	1.598	9.435	1506.960	1504.029	1510.623	-7.435	-0.580	7.756	-5.818	-0.230	8.344
58971.588	NaN	-3.141	1.598	9.446	1506.227	1504.029	1511.355	-7.267	-0.550	7.908	-5.742	-0.230	8.421
58972.565	NaN	-3.152	1.598	9.446	1504.762	1504.029	1509.158	-7.160	-0.504	8.031	-5.818	-0.230	8.421
58973.541	NaN	-3.152	1.609	9.446	1504.029	1503.297	1509.890	-7.053	-0.672	8.046	-5.742	-0.230	8.498
58974.518	NaN	-3.141	1.598	9.457	1505.495	1504.029	1510.623	-6.992	-0.855	7.878	-5.742	-0.230	8.421
58975.494	NaN	-3.152	1.598	9.467	1506.227	1503.297	1510.623	-7.282	-0.794	7.969	-5.895	-0.077	8.421
58976.471	NaN	-3.163	1.587	9.467	1505.495	1503.297	1509.158	-7.405	-0.504	7.954	-5.818	-0.153	8.421
58977.448	NaN	-3.152	1.598	9.467	1506.227	1504.029	1509.890	-7.252	-0.336	7.908	-5.818	-0.230	8.421
58978.424	NaN	-3.152	1.598	9.478	1505.495	1504.029	1511.355	-7.237	-0.412	7.878	-5.818	-0.230	8.344
58979.401	NaN	-3.152	1.587	9.467	1504.029	1503.297	1508.425	-7.115	-0.534	7.908	-5.818	-0.306	8.344
58980.377	NaN	-3.141	1.598	9.467	1505.495	1504.029	1512.088	-7.176	-0.687	7.786	-5.895	-0.383	8.421
58981.354	NaN	-3.141	1.598	9.457	1505.495	1504.029	1510.623	-7.160	-0.718	7.634	-6.048	-0.230	8.344
58982.330	NaN	-3.141	1.598	9.467	1505.495	1504.029	1509.890	-7.084	-0.641	7.740	-5.818	-0.230	8.344
58983.307	NaN	-3.152	1.587	9.467	1504.762	1504.029	1508.425	-7.130	-0.427	7.878	-5.818	-0.230	8.421
58984.283	NaN	-3.152	1.598	9.457	1506.227	1504.029	1509.158	-7.145	-0.321	8.153	-5.818	-0.383	8.421
58985.260	NaN	-3.152	1.609	9.467	1505.495	1504.029	1511.355	-7.221	-0.489	8.061	-5.665	-0.230	8.498
58986.237	NaN	-3.152	1.609	9.457	1506.227	1504.029	1508.425	-7.221	-0.733	7.908	-5.742	-0.306	8.498
58987.213	NaN	-3.152	1.598	9.457	1505.495	1503.297	1509.890	-7.038	-0.473	7.832	-5.971	-0.153	8.268
58988.190	NaN	-3.163	1.587	9.457	1505.495	1503.297	1509.158	-7.084	-0.321	7.954	-5.895	-0.306	8.344
58989.166	NaN	-3.163	1.598	9.467	1506.960	1504.762	1509.158	-7.206	-0.412	8.122	-5.895	-0.230	8.344
58990.143	NaN	-3.163	1.598	9.467	1505.495	1503.297	1509.890	-7.191	-0.397	7.924	-5.895	-0.306	8.498
58991.119	NaN	-3.152	1.598	9.467	1505.495	1504.762	1509.890	-7.160	-0.366	7.924	-5.742	-0.230	8.344
58992.096	NaN	-3.163	1.587	9.467	1505.495	1504.029	1511.355	-7.176	-0.458	7.954	-5.818	-0.383	8.421
58993.073	NaN	-3.163	1.609	9.467	1504.762	1502.564	1509.158	-7.130	-0.534	7.893	-5.818	-0.306	8.498
58994.049	NaN	-3.141	1.609	9.478	1505.495	1504.029	1509.890	-7.191	-0.733	7.832	-5.665	-0.383	8.344
58995.026	NaN	-3.163	1.598	9.467	1506.227	1503.297	1509.158	-7.237	-0.885	7.664	-5.895	-0.230	8.421
58996.002	NaN	-3.152	1.598	9.457	1504.762	1502.564	1509.158	-7.252	-0.672	7.664	-5.742	-0.230	8.574
58996.979	NaN	-3.152	1.587	9.457	1504.762	1503.297	1509.890	-7.008	-0.351	7.649	-5.971	-0.230	8.421
58997.955	NaN	-3.152	1.587	9.457	1504.762	1503.297	1509.890	-6.901	-0.366	7.969	-5.742	-0.153	8.498
58998.932	NaN	-3.130	1.598	9.478	1504.762	1504.029	1508.425	-7.053	-0.458	8.031	-5.971	-0.153	8.421
58999.908	NaN	-3.141	1.587	9.478	1505.495	1503.297	1510.623	-7.328	-0.565	8.153	-5.742	-0.306	8.344
59000.885	NaN	-3.152	1.587	9.467	1504.762	1502.564	1508.425	-7.466	-0.580	8.198	-5.818	-0.230	8.421
59001.862	NaN	-3.152	1.587	9.457	1506.227	1504.029	1510.623	-7.496	-0.412	8.260	-5.895	-0.230	8.344
59002.838	NaN	-3.163	1.576	9.457	1504.762	1502.564	1509.890	-7.298	-0.550	8.031	-5.895	-0.459	8.344
59003.815	NaN	-3.152	1.587	9.467	1504.762	1504.029	1511.355	-7.252	-0.504	7.863	-5.971	-0.306	8.344
59004.791	NaN	-3.152	1.587	9.467	1505.495	1504.029	1508.425	-7.267	-0.382	7.832	-5.895	-0.153	8.498
59005.768	NaN	-3.152	1.587	9.467	1504.762	1502.564	1509.158	-7.282	-0.382	7.939	-5.818	-0.306	8.498
59006.744	NaN	-3.141	1.598	9.457	1506.227	1504.029	1510.623	-7.328	-0.412	7.893	-5.895	-0.306	8.574
59007.721	NaN	-3.152	1.598	9.467	1505.495	1503.297	1511.355	-7.084	-0.427	7.969	-5.818	-0.230	8.421
59008.698	NaN	-3.163	1.587	9.467	1506.227	1504.029	1509.890	-6.962	-0.489	7.954	-5.818	-0.230	8.421
59009.674	NaN	-3.141	1.587	9.489	1504.762	1504.029	1509.890	-6.977	-0.519	7.985	-5.818	-0.230	8.268
59010.651	NaN	-3.152	1.576	9.478	1504.762	1504.029	1509.890	-7.023	-0.626	7.969	-5.742	-0.306	8.421
59011.627	NaN	-3.152	1.576	9.489	1505.495	1502.564	1510.623	-7.267	-0.687	7.817	-5.895	-0.306	8.344
59012.604	NaN	-3.141	1.609	9.489	1506.227	1503.297	1511.355	-7.450	-0.641	7.863	-5.818	-0.230	8.421
59013.580	NaN	-3.152	1.598	9.489	1504.762	1504.029	1510.623	-7.496	-0.641	7.802	-5.971	-0.306	8.268
59014.557	NaN	-3.163	1.598	9.478	1505.495	1503.297	1509.158	-7.405	-0.626	7.771	-5.971	-0.230	8.498
59015.533	NaN	-3.163	1.598	9.478	1505.495	1504.762	1510.623	-7.344	-0.580	7.924	-5.818	-0.153	8.498
59016.510	NaN	-3.152	1.598	9.478	1504.762	1504.029	1510.623	-7.405	-0.550	8.076	-5.818	-0.230	8.344
59017.487	NaN	-3.163	1.598	9.478	1503.297	1503.297	1512.088	-7.282	-0.504	7.969	-5.971	-0.306	8.344
59018.463	NaN	-3.163	1.598	9.489	1506.227	1503.297	1509.890	-7.038	-0.504	7.924	-5.895	-0.230	8.498
59019.440	NaN	-3.163	1.587	9.489	1505.495	1502.564	1509.890	-7.160	-0.550	8.046	-5.742	-0.230	8.344
59020.416	NaN	-3.152	1.587	9.489	1505.495	1504.762	1511.355	-7.267	-0.336	7.924	-5.971	-0.230	8.421
59021.393	NaN	-3.152	1.598	9.478	1505.495	1503.297	1509.890	-7.313	-0.397	7.832	-5.818	-0.230	8.344
59022.369	NaN	-3.163	1.598	9.467	1505.495	1503.297	1511.355	-7.191	-0.626	7.969	-5.818	-0.383	8.574
59023.346	3736847480.834	-3.163	1.587	9.467	1504.762	1504.029	1509.890	-7.252	-0.534	8.031	-5.742	-0.306	8.421
59024.323	NaN	-3.163	1.587	9.446	1506.227	1504.029	1509.890	-7.267	-0.656	7.863	-5.818	-0.230	8.344
59025.299	NaN	-3.163	1.598	9.457	1505.495	1504.029	1511.355	-7.160	-0.656	8.000	-5.818	-0.153	8.344
59026.276	NaN	-3.163	1.587	9.467	1505.495	1504.029	1509.158	-7.328	-0.489	7.969	-5.895	-0.230	8.498
59027.252	NaN	-3.163	1.587	9.467	1505.495	1504.029	1509.890	-7.328	-0.336	8.107	-5.818	-0.306	8.344
59028.229	NaN	-3.174	1.587	9.467	1504.762	1503.297	1509.158	-7.191	-0.351	8.198	-5.818	-0.230	8.421
59029.205	NaN	-3.163	1.587	9.457	1504.762	1502.564	1509.890	-7.115	-0.489	8.046	-5.742	-0.230	8.421
59030.182	NaN	-3.174	1.587	9.467	1505.495	1504.029	1509.890	-7.160	-0.580	7.939	-5.818	-0.306	8.344
59031.158	NaN	-3.163	1.587	9.478	1504.029	1502.564	1509.890	-7.237	-0.626	7.939	-5.742	-0.230	8.498
59032.135	NaN	-3.152	1.598	9.478	1505.495	1503.297	1509.158	-7.359	-0.504	7.924	-5.742	-0.230	8.574
59033.112	NaN	-3.152	1.598	9.478	1505.495	1503.297	1509.158	-7.191	-0.412	7.740	-5.895	-0.230	8.344
59034.088	NaN	-3.141	1.598	9.489	1503.297	1503.297	1511.355	-6.901	-0.489	7.695	-5.742	-0.230	8.344
59035.065	NaN	-3.163	1.598	9.489	1504.029	1504.029	1509.890	-7.191	-0.641	7.847	-5.665	-0.306	8.421
59036.041	NaN	-3.152	1.598	9.478	1503.297	1502.564	1510.623	-7.618	-0.718	8.092	-5.818	-0.306	8.421
59037.018	NaN	-3.141	1.598	9.478	1504.762	1503.297	1509.890	-7.359	-0.534	8.061	-5.818	-0.230	8.498
59037.994	NaN	-3.141	1.598	9.478	1505.495	1504.029	1509.890	-6.794	-0.458	8.168	-5.818	-0.153	8.344
59038.971	NaN	-3.152	1.598	9.467	1504.762	1504.029	1510.623	-6.931	-0.580	8.183	-5.742	-0.153	8.344
59039.948	NaN	-3.152	1.598	9.457	1504.762	1504.029	1509.158	-7.130	-0.656	8.153	-5.818	-0.306	8.498
59040.924	NaN	-3.163	1.587	9.457	1505.495	1504.029	1509.158	-7.176	-0.718	7.969	-5.895	-0.306	8.574
59041.901	NaN	-3.152	1.587	9.467	1505.495	1504.029	1509.890	-7.237	-0.733	7.969	-5.742	0.000	8.344
59042.877	NaN	-3.141	1.587	9.457	1504.762	1504.762	1509.890	-7.176	-0.550	8.107	-5.818	-0.230	8.421
59043.854	NaN	-3.141	1.598	9.467	1505.495	1503.297	1509.890	-7.221	-0.443	8.092	-5.742	-0.230	8.421
59044.830	NaN	-3.152	1.598	9.467	1506.227	1504.029	1510.623	-7.206	-0.305	8.183	-5.818	-0.153	8.344
59045.807	NaN	-3.152	1.598	9.467	1504.029	1503.297	1509.890	-7.130	-0.458	8.092	-5.818	-0.230	8.344
59046.783	NaN	-3.141	1.620	9.478	1505.495	1503.297	1509.890	-7.237	-0.580	8.000	-5.742	-0.306	8.498
59047.760	NaN	-3.152	1.609	9.489	1505.495	1504.029	1510.623	-7.359	-0.580	8.076	-5.742	-0.230	8.421
59048.737	NaN	-3.152	1.598	9.478	1506.227	1504.029	1510.623	-7.466	-0.565	8.000	-5.818	-0.383	8.574
59049.713	NaN	-3.152	1.609	9.467	1504.762	1503.297	1509.158	-7.435	-0.565	7.847	-5.665	-0.230	8.498
59050.690	NaN	-3.163	1.598	9.467	1506.227	1503.297	1509.158	-7.221	-0.748	7.786	-5.742	-0.306	8.421
59051.666	NaN	-3.152	1.598	9.467	1506.227	1504.029	1509.158	-7.145	-0.824	7.756	-5.895	-0.230	8.421
59052.643	NaN	-3.163	1.576	9.457	1504.762	1502.564	1509.890	-7.267	-0.718	7.863	-5.742	-0.153	8.421
59053.619	NaN	-3.141	1.598	9.457	1504.762	1503.297	1509.158	-7.420	-0.565	8.122	-5.895	-0.153	8.344
59054.596	NaN	-3.141	1.587	9.457	1506.227	1503.297	1509.890	-7.405	-0.397	8.275	-5.971	-0.230	8.421
59055.573	NaN	-3.141	1.598	9.467	1506.227	1504.029	1509.890	-7.267	-0.473	8.198	-5.742	-0.383	8.498
59056.549	NaN	-3.141	1.598	9.489	1505.495	1503.297	1511.355	-7.389	-0.580	7.908	-5.742	-0.383	8.268
59057.526	NaN	-3.130	1.587	9.489	1505.495	1504.029	1510.623	-7.634	-0.702	7.725	-5.742	-0.153	8.344
59058.502	NaN	-3.141	1.587	9.489	1504.762	1504.029	1512.088	-7.542	-0.687	7.939	-5.895	-0.153	8.268
59059.479	NaN	-3.152	1.576	9.478	1505.495	1504.029	1509.890	-7.145	-0.641	8.122	-5.818	-0.153	8.344
59060.455	NaN	-3.152	1.576	9.467	1504.762	1502.564	1509.158	-7.145	-0.672	8.137	-5.742	-0.383	8.268
59061.432	NaN	-3.152	1.587	9.478	1505.495	1503.297	1509.158	-7.252	-0.718	8.153	-5.895	-0.383	8.268
59062.408	NaN	-3.152	1.587	9.467	1504.762	1504.029	1510.623	-7.496	-0.626	8.107	-6.048	-0.306	8.421
59063.385	NaN	-3.152	1.576	9.478	1504.762	1502.564	1509.158	-7.542	-0.534	7.908	-5.818	-0.306	8.344
59064.362	NaN	-3.163	1.565	9.478	1504.762	1504.029	1510.623	-7.389	-0.595	8.031	-5.895	-0.383	8.421
59065.338	NaN	-3.163	1.576	9.489	1505.495	1504.762	1509.890	-7.313	-0.550	8.031	-5.742	-0.383	8.421
59066.315	NaN	-3.163	1.576	9.478	1504.762	1503.297	1510.623	-7.420	-0.687	7.908	-5.818	-0.153	8.421
59067.291	NaN	-3.152	1.587	9.478	1505.495	1504.029	1510.623	-7.282	-0.641	7.954	-5.742	-0.230	8.344
59068.268	NaN	-3.163	1.576	9.478	1504.762	1504.029	1509.890	-7.450	-0.534	8.046	-5.818	-0.153	8.498
59069.244	NaN	-3.152	1.587	9.467	1505.495	1504.029	1510.623	-7.466	-0.611	8.076	-5.665	-0.230	8.268
59070.221	NaN	-3.152	1.576	9.467	1505.495	1504.029	1509.158	-7.466	-0.534	8.107	-5.895	-0.153	8.268
59071.198	NaN	-3.152	1.576	9.467	1503.297	1504.029	1510.623	-7.313	-0.519	7.985	-5.818	-0.306	8.421
59072.174	NaN	-3.141	1.587	9.467	1504.762	1503.297	1511.355	-7.221	-0.702	8.015	-5.742	-0.306	8.344
59073.151	NaN	-3.152	1.587	9.467	1505.495	1504.029	1509.890	-7.435	-0.672	8.229	-5.665	-0.077	8.498
59074.127	NaN	-3.152	1.598	9.467	1504.762	1504.762	1510.623	-7.542	-0.458	8.275	-5.818	-0.306	8.498
59075.104	NaN	-3.163	1.587	9.457	1505.495	1504.029	1510.623	-7.420	-0.275	8.153	-5.895	-0.306	8.344
59076.080	NaN	-3.163	1.587	9.457	1505.495	1503.297	1509.890	-7.328	-0.214	8.107	-5.742	-0.153	8.498
59077.057	NaN	-3.152	1.598	9.467	1504.029	1503.297	1509.158	-7.282	-0.473	8.031	-5.818	-0.306	8.421
59078.033	NaN	-3.163	1.598	9.478	1506.227	1503.297	1509.890	-7.328	-0.611	8.229	-5.742	-0.230	8.421
59079.010	NaN	-3.152	1.587	9.478	1506.227	1504.029	1510.623	-7.298	-0.534	8.366	-5.895	-0.306	8.268
59079.987	NaN	-3.152	1.587	9.467	1506.227	1503.297	1509.890	-7.267	-0.473	8.107	-5.895	-0.230	8.498
59080.963	NaN	-3.152	1.587	9.467	1504.762	1503.297	1510.623	-7.298	-0.351	7.954	-5.665	-0.153	8.421
59081.940	NaN	-3.152	1.576	9.457	1504.029	1504.029	1510.623	-7.374	-0.290	8.092	-5.895	-0.306	8.268
59082.916	NaN	-3.163	1.587	9.457	1504.762	1503.297	1509.890	-7.389	-0.473	8.275	-5.895	-0.306	8.421
59083.893	NaN	-3.152	1.598	9.457	1504.762	1502.564	1509.158	-7.557	-0.519	8.168	-5.818	-0.153	8.344
59084.869	NaN	-3.163	1.609	9.457	1505.495	1502.564	1511.355	-7.527	-0.534	8.092	-5.742	-0.230	8.421
59085.846	NaN	-3.152	1.598	9.467	1505.495	1503.297	1510.623	-7.481	-0.595	8.015	-5.818	-0.306	8.498
59086.823	NaN	-3.152	1.598	9.457	1504.762	1502.564	1509.158	-7.359	-0.519	8.000	-5.742	-0.306	8.344
59087.799	NaN	-3.152	1.598	9.467	1504.762	1503.297	1510.623	-7.160	-0.580	8.031	-5.895	-0.306	8.344
59088.776	NaN	-3.152	1.609	9.467	1504.762	1503.297	1509.890	-7.359	-0.565	7.954	-5.818	-0.153	8.421
59089.752	NaN	-3.152	1.587	9.467	1504.762	1504.029	1511.355	-7.374	-0.702	7.893	-5.895	-0.306	8.344
59090.729	NaN	-3.163	1.587	9.467	1505.495	1504.029	1510.623	-7.496	-0.534	7.954	-5.895	-0.383	8.421
59091.705	NaN	-3.152	1.587	9.489	1505.495	1504.762	1511.355	-7.573	-0.443	8.061	-5.818	-0.306	8.344
59092.682	NaN	-3.152	1.587	9.489	1504.762	1504.029	1510.623	-7.374	-0.382	8.107	-5.818	-0.383	8.344
59093.658	NaN	-3.152	1.598	9.478	1506.227	1504.029	1509.158	-7.344	-0.336	8.275	-5.742	-0.306	8.421
59094.635	NaN	-3.152	1.598	9.478	1506.227	1503.297	1508.425	-7.221	-0.290	8.092	-5.742	-0.383	8.498
59095.612	NaN	-3.152	1.598	9.478	1506.227	1503.297	1509.158	-7.374	-0.366	8.015	-5.895	-0.383	8.421
59096.588	NaN	-3.141	1.609	9.457	1506.960	1504.029	1511.355	-7.557	-0.519	8.137	-5.742	-0.306	8.421
59097.565	NaN	-3.152	1.598	9.446	1505.495	1504.762	1509.890	-7.435	-0.611	8.168	-5.818	-0.383	8.344
59098.541	NaN	-3.152	1.609	9.457	1505.495	1504.029	1509.158	-7.435	-0.519	8.153	-6.048	-0.230	8.344
59099.518	NaN	-3.152	1.598	9.457	1504.762	1503.297	1509.158	-7.466	-0.351	8.122	-5.895	-0.230	8.421
59100.494	NaN	-3.141	1.609	9.457	1505.495	1504.029	1509.890	-7.420	-0.366	8.015	-5.818	-0.230	8.498
59101.471	NaN	-3.152	1.598	9.457	1505.495	1503.297	1509.890	-7.191	-0.458	8.076	-5.895	-0.383	8.498
59102.448	NaN	-3.152	1.598	9.457	1504.029	1503.297	1509.890	-7.374	-0.565	8.015	-5.818	-0.230	8.421
59103.424	NaN	-3.152	1.609	9.457	1504.029	1503.297	1509.158	-7.435	-0.595	8.092	-5.895	-0.306	8.421
59104.401	NaN	-3.163	1.598	9.457	1504.762	1504.029	1509.890	-7.176	-0.489	8.336	-5.971	-0.153	8.268
59105.377	NaN	-3.152	1.609	9.457	1506.960	1504.762	1510.623	-7.267	-0.427	8.321	-5.742	-0.306	8.268
59106.354	NaN	-3.163	1.609	9.467	1505.495	1504.029	1510.623	-7.435	-0.397	8.137	-5.895	-0.230	8.268
59107.330	NaN	-3.163	1.576	9.467	1505.495	1504.029	1509.158	-7.344	-0.534	8.244	-5.895	-0.230	8.421
59108.307	NaN	-3.163	1.576	9.478	1506.227	1503.297	1509.158	-7.267	-0.672	8.183	-5.742	-0.230	8.421
59109.283	NaN	-3.152	1.576	9.489	1506.227	1504.762	1509.890	-7.099	-0.763	8.107	-5.818	-0.306	8.344
59110.260	NaN	-3.152	1.576	9.478	1504.762	1504.029	1510.623	-7.252	-0.473	7.863	-5.895	-0.230	8.498
59111.237	NaN	-3.152	1.576	9.467	1505.495	1504.029	1509.890	-7.450	-0.397	7.817	-5.971	-0.230	8.421
59112.213	NaN	-3.152	1.576	9.467	1504.762	1503.297	1509.890	-7.634	-0.504	8.015	-5.818	-0.306	8.498
59113.190	NaN	-3.152	1.587	9.457	1504.762	1501.832	1509.890	-7.481	-0.504	8.015	-5.895	-0.383	8.421
59114.166	NaN	-3.141	1.598	9.457	1506.227	1504.029	1511.355	-7.374	-0.473	8.046	-5.665	-0.230	8.344
59115.143	NaN	-3.163	1.587	9.457	1504.762	1504.029	1509.158	-7.405	-0.565	7.985	-5.818	-0.230	8.344
59116.119	NaN	-3.152	1.598	9.467	1506.227	1503.297	1509.890	-7.359	-0.580	8.122	-5.895	-0.306	8.421
59117.096	NaN	-3.163	1.587	9.467	1505.495	1503.297	1508.425	-7.313	-0.595	8.244	-5.895	-0.230	8.268
59118.073	NaN	-3.163	1.587	9.467	1505.495	1504.029	1508.425	-7.420	-0.641	8.244	-5.818	-0.230	8.421
59119.049	NaN	-3.152	1.587	9.478	1505.495	1504.029	1510.623	-7.359	-0.672	8.260	-5.818	-0.230	8.344
59120.026	NaN	-3.141	1.587	9.478	1506.227	1503.297	1509.890	-7.344	-0.656	8.366	-5.665	-0.383	8.344
59121.002	NaN	-3.141	1.587	9.489	1505.495	1504.029	1511.355	-7.435	-0.687	8.427	-5.895	-0.383	8.344
59121.979	NaN	-3.152	1.587	9.478	1506.227	1503.297	1509.158	-7.435	-0.641	8.290	-5.895	-0.230	8.344
59122.955	NaN	-3.141	1.598	9.478	1504.762	1504.029	1510.623	-7.282	-0.458	8.244	-5.818	-0.230	8.574
59123.932	NaN	-3.141	1.598	9.478	1505.495	1504.762	1510.623	-7.282	-0.412	8.244	-5.895	-0.230	8.344
59124.908	NaN	-3.141	1.587	9.478	1505.495	1504.029	1509.890	-7.389	-0.550	8.305	-5.818	-0.306	8.421
59125.885	NaN	-3.141	1.587	9.478	1504.762	1504.762	1510.623	-7.359	-0.763	8.092	-5.818	-0.306	8.498
59126.862	NaN	-3.152	1.576	9.467	1504.762	1504.029	1509.158	-7.298	-0.565	8.015	-5.818	-0.230	8.498
59127.838	NaN	-3.141	1.587	9.478	1505.495	1504.029	1509.890	-7.405	-0.305	8.000	-5.742	-0.230	8.268
59128.815	NaN	-3.130	1.587	9.478	1505.495	1504.029	1509.158	-7.420	-0.412	8.046	-5.895	-0.230	8.574
59129.791	NaN	-3.130	1.587	9.467	1504.762	1503.297	1509.890	-7.511	-0.656	8.244	-5.818	-0.230	8.344
59130.768	NaN	-3.141	1.587	9.478	1505.495	1503.297	1509.890	-7.573	-0.611	8.122	-5.742	-0.306	8.344
59131.744	NaN	-3.141	1.598	9.478	1504.762	1503.297	1509.158	-7.740	-0.458	7.969	-5.742	-0.230	8.344
59132.721	NaN	-3.130	1.598	9.478	1505.495	1503.297	1509.158	-7.603	-0.336	7.954	-5.742	-0.230	8.498
59133.698	NaN	-3.130	1.598	9.478	1506.227	1504.029	1510.623	-7.359	-0.443	8.122	-5.742	-0.306	8.421
59134.674	NaN	-3.141	1.598	9.467	1504.762	1504.029	1511.355	-7.237	-0.534	8.275	-5.818	-0.306	8.498
59135.651	NaN	-3.152	1.587	9.457	1506.960	1503.297	1510.623	-7.206	-0.550	8.305	-5.742	-0.306	8.498
59136.627	NaN	-3.141	1.587	9.478	1505.495	1505.495	1509.890	-7.481	-0.397	8.244	-5.665	-0.230	8.421
59137.604	NaN	-3.152	1.587	9.467	1504.762	1504.762	1509.158	-7.725	-0.366	8.214	-5.971	-0.230	8.268
59138.580	NaN	-3.141	1.587	9.467	1504.029	1504.029	1509.890	-7.450	-0.458	8.122	-5.895	-0.230	8.421
59139.557	NaN	-3.141	1.587	9.467	1506.227	1504.029	1509.158	-7.267	-0.412	8.260	-5.742	-0.153	8.344
59140.533	NaN	-3.141	1.598	9.478	1505.495	1504.029	1510.623	-7.267	-0.382	8.534	-5.895	-0.306	8.268
59141.510	NaN	-3.141	1.598	9.489	1505.495	1504.762	1509.890	-7.359	-0.504	8.458	-5.818	-0.230	8.344
59142.487	NaN	-3.130	1.598	9.489	1505.495	1504.029	1509.890	-7.374	-0.397	8.229	-5.818	-0.230	8.344
59143.463	NaN	-3.141	1.587	9.478	1506.227	1503.297	1509.158	-7.511	-0.412	8.107	-5.742	-0.230	8.421
59144.440	NaN	-3.141	1.587	9.467	1505.495	1504.029	1509.890	-7.664	-0.443	8.061	-5.895	-0.230	8.498
59145.416	NaN	-3.152	1.587	9.467	1506.227	1504.029	1510.623	-7.603	-0.458	8.137	-5.818	-0.230	8.421
59146.393	NaN	-3.163	1.576	9.457	1504.762	1503.297	1511.355	-7.573	-0.595	8.260	-5.971	-0.230	8.421
59147.369	NaN	-3.152	1.587	9.478	1505.495	1502.564	1508.425	-7.435	-0.565	8.229	-5.818	-0.230	8.344
59148.346	NaN	-3.152	1.576	9.467	1505.495	1503.297	1509.890	-7.511	-0.489	8.122	-5.818	-0.153	8.344
59149.323	NaN	-3.152	1.587	9.457	1506.227	1504.029	1509.158	-7.603	-0.550	8.076	-5.742	-0.306	8.268
59150.299	NaN	-3.141	1.587	9.457	1505.495	1504.029	1509.890	-7.298	-0.489	8.122	-5.818	-0.230	8.421
59151.276	NaN	-3.141	1.576	9.467	1505.495	1503.297	1509.890	-7.267	-0.427	8.107	-5.895	-0.230	8.344
59152.252	NaN	-3.141	1.576	9.467	1504.762	1503.297	1509.158	-7.374	-0.412	8.305	-5.818	-0.230	8.344
59153.229	NaN	-3.141	1.576	9.446	1504.762	1504.029	1511.355	-7.527	-0.611	8.290	-5.818	-0.306	8.421
59154.205	NaN	-3.152	1.576	9.457	1503.297	1504.029	1509.890	-7.496	-0.534	8.366	-5.818	-0.230	8.421
59155.182	NaN	-3.141	1.598	9.457	1506.227	1504.029	1509.890	-7.344	-0.427	8.275	-5.818	-0.153	8.498
59156.158	NaN	-3.141	1.598	9.467	1504.762	1504.029	1509.158	-7.359	-0.382	7.939	-5.971	-0.153	8.421
59157.135	NaN	-3.141	1.598	9.478	1504.029	1504.029	1509.158	-7.359	-0.458	8.000	-5.742	-0.306	8.344
59158.112	NaN	-3.163	1.587	9.489	1505.495	1504.029	1512.088	-7.405	-0.458	8.244	-5.895	-0.306	8.574
59159.088	NaN	-3.152	1.598	9.478	1506.227	1504.029	1509.890	-7.374	-0.534	8.275	-5.818	-0.306	8.344
59160.065	NaN	-3.152	1.587	9.478	1505.495	1503.297	1509.890	-7.206	-0.519	8.336	-5.971	-0.306	8.421
59161.041	NaN	-3.163	1.587	9.478	1504.762	1504.029	1509.890	-7.252	-0.534	8.336	-5.895	-0.306	8.344
59162.018	NaN	-3.152	1.587	9.489	1503.297	1503.297	1509.890	-7.298	-0.626	8.244	-5.818	-0.230	8.421
59162.994	NaN	-3.141	1.598	9.478	1505.495	1504.029	1509.890	-7.252	-0.748	8.275	-5.742	-0.306	8.498
59163.971	NaN	-3.152	1.598	9.467	1504.762	1503.297	1509.890	-7.344	-0.489	8.366	-5.742	-0.306	8.344
59164.948	NaN	-3.141	1.598	9.478	1505.495	1504.029	1510.623	-7.511	-0.244	8.305	-5.742	-0.230	8.421
59165.924	NaN	-3.141	1.609	9.467	1505.495	1503.297	1509.158	-7.557	-0.275	8.183	-5.895	-0.306	8.421
59166.901	NaN	-3.152	1.609	9.467	1504.029	1503.297	1509.158	-7.420	-0.382	8.122	-5.818	-0.153	8.421
59167.877	NaN	-3.130	1.598	9.457	1505.495	1502.564	1509.890	-7.389	-0.382	8.198	-5.895	-0.230	8.344
59168.854	NaN	-3.141	1.609	9.446	1505.495	1504.029	1510.623	-7.344	-0.412	8.412	-5.818	-0.230	8.268
59169.830	NaN	-3.152	1.598	9.446	1504.762	1503.297	1509.890	-7.328	-0.244	8.534	-5.818	-0.230	8.421
59170.807	NaN	-3.152	1.609	9.446	1505.495	1502.564	1509.158	-7.588	-0.321	8.366	-5.895	-0.230	8.421
59171.783	NaN	-3.152	1.609	9.467	1505.495	1504.029	1509.890	-7.649	-0.611	8.260	-5.742	-0.230	8.421
59173.737	NaN	-3.141	1.609	9.478	1504.762	1504.029	1510.623	-7.481	-0.473	8.489	-5.818	-0.230	8.421
59174.713	NaN	-3.141	1.609	9.478	1504.762	1504.029	1510.623	-7.588	-0.504	8.351	-5.895	-0.230	8.498
59175.690	NaN	-3.141	1.598	9.489	1504.762	1504.762	1509.158	-7.511	-0.611	8.290	-5.818	-0.306	8.268
59176.666	NaN	-3.130	1.598	9.489	1505.495	1504.029	1510.623	-7.511	-0.550	8.305	-5.818	-0.230	8.421
59177.643	NaN	-3.141	1.598	9.489	1505.495	1504.029	1510.623	-7.405	-0.458	8.229	-5.818	-0.230	8.421
59178.619	NaN	-3.152	1.598	9.478	1505.495	1504.029	1510.623	-7.374	-0.458	8.168	-5.818	-0.306	8.344
59179.596	NaN	-3.152	1.598	9.489	1505.495	1504.029	1510.623	-7.527	-0.580	8.153	-5.818	-0.459	8.421
59180.573	NaN	-3.152	1.598	9.467	1506.227	1503.297	1510.623	-7.588	-0.519	8.137	-5.895	-0.230	8.344
59181.549	NaN	-3.152	1.598	9.467	1505.495	1504.029	1512.088	-7.420	-0.473	8.244	-5.742	-0.383	8.421
59182.526	NaN	-3.163	1.587	9.467	1506.227	1504.029	1510.623	-7.374	-0.443	8.382	-5.742	-0.383	8.344
59183.502	NaN	-3.152	1.587	9.457	1505.495	1504.029	1510.623	-7.527	-0.351	8.473	-5.971	-0.383	8.268
59184.479	NaN	-3.152	1.587	9.457	1506.227	1504.029	1510.623	-7.603	-0.366	8.321	-5.818	-0.230	8.344
59185.455	NaN	-3.152	1.587	9.467	1504.029	1501.832	1509.158	-7.420	-0.458	8.214	-5.895	-0.230	8.344
59186.432	NaN	-3.152	1.609	9.478	1505.495	1502.564	1509.158	-7.389	-0.565	8.153	-5.818	-0.230	8.421
59187.408	3736847481.002	-3.152	1.609	9.489	1502.564	1504.762	1509.890	-7.389	-0.458	8.244	-5.818	-0.153	8.498
59188.385	NaN	-3.152	1.609	9.478	1506.227	1503.297	1510.623	-7.588	-0.198	8.198	-5.818	-0.230	8.344
59189.362	NaN	-3.152	1.587	9.478	1506.227	1504.029	1509.890	-7.786	-0.275	8.336	-5.818	-0.153	8.344
59190.338	NaN	-3.141	1.587	9.478	1505.495	1504.762	1509.890	-7.618	-0.427	8.489	-5.665	-0.383	8.344
59191.315	NaN	-3.141	1.576	9.489	1504.029	1503.297	1511.355	-7.389	-0.427	8.489	-5.818	-0.230	8.498
59192.291	NaN	-3.152	1.587	9.478	1504.762	1504.029	1510.623	-7.511	-0.336	8.244	-5.818	-0.230	8.421
59193.268	NaN	-3.152	1.587	9.478	1506.227	1503.297	1509.890	-7.573	-0.321	8.137	-5.895	-0.153	8.421
59194.244	NaN	-3.152	1.587	9.467	1506.227	1503.297	1510.623	-7.618	-0.336	8.122	-5.971	-0.230	8.344
59195.221	NaN	-3.152	1.587	9.478	1505.495	1504.029	1511.355	-7.664	-0.305	8.198	-5.895	-0.153	8.421
59196.198	NaN	-3.163	1.587	9.478	1504.762	1504.029	1510.623	-7.481	-0.427	8.366	-5.742	-0.306	8.421
59197.174	NaN	-3.163	1.587	9.467	1505.495	1504.029	1510.623	-7.450	-0.366	8.244	-5.818	-0.306	8.268
59198.151	NaN	-3.174	1.587	9.457	1506.227	1504.762	1509.158	-7.466	-0.321	8.366	-5.895	-0.153	8.498
59199.127	NaN	-3.163	1.587	9.467	1504.762	1504.762	1513.553	-7.252	-0.214	8.473	-5.895	-0.230	8.421
59200.104	NaN	-3.152	1.587	9.467	1506.227	1503.297	1509.890	-7.130	-0.260	8.397	-5.818	-0.230	8.421
59201.080	NaN	-3.152	1.576	9.478	1505.495	1504.029	1512.821	-7.420	-0.351	8.321	-5.971	-0.230	8.344
59202.057	NaN	-3.141	1.576	9.489	1504.762	1504.029	1510.623	-7.542	-0.489	8.458	-5.895	-0.383	8.421
59203.033	NaN	-3.163	1.576	9.478	1506.227	1504.762	1509.890	-7.573	-0.473	8.672	-5.818	-0.153	8.344
59204.010	NaN	-3.152	1.576	9.478	1505.495	1504.029	1510.623	-7.435	-0.427	8.687	-5.818	-0.306	8.344
59204.987	NaN	-3.163	1.576	9.478	1504.762	1504.029	1509.158	-7.527	-0.290	8.489	-5.818	-0.230	8.574
59205.963	NaN	-3.152	1.587	9.478	1504.762	1503.297	1510.623	-7.588	-0.351	8.351	-5.818	-0.153	8.344
59206.940	NaN	-3.163	1.576	9.467	1505.495	1504.029	1509.890	-7.557	-0.260	8.504	-5.895	-0.230	8.268
59207.916	NaN	-3.163	1.598	9.478	1506.227	1504.029	1509.158	-7.573	-0.336	8.473	-5.895	-0.306	8.421
59208.893	NaN	-3.163	1.598	9.478	1506.227	1504.029	1509.890	-7.466	-0.504	8.427	-5.895	-0.230	8.421
59209.869	NaN	-3.163	1.598	9.478	1506.960	1503.297	1511.355	-7.359	-0.611	8.382	-5.895	-0.230	8.498
59210.846	NaN	-3.163	1.587	9.489	1505.495	1504.029	1510.623	-7.481	-0.489	8.351	-5.818	-0.306	8.421
59211.823	NaN	-3.163	1.587	9.467	1503.297	1504.762	1509.890	-7.450	-0.427	8.397	-5.895	-0.230	8.421
59212.799	NaN	-3.152	1.598	9.467	1506.227	1504.029	1510.623	-7.435	-0.565	8.382	-5.818	-0.306	8.421
59213.776	NaN	-3.152	1.598	9.457	1505.495	1504.029	1509.158	-7.374	-0.473	8.412	-5.818	-0.153	8.421
59214.752	NaN	-3.152	1.598	9.457	1505.495	1504.762	1510.623	-7.328	-0.351	8.427	-5.742	-0.230	8.421
59215.729	NaN	-3.152	1.587	9.457	1505.495	1503.297	1509.890	-7.557	-0.290	8.458	-5.895	-0.306	8.268
59216.705	NaN	-3.152	1.587	9.457	1505.495	1504.029	1510.623	-7.511	-0.321	8.351	-5.742	-0.230	8.268
59217.682	NaN	-3.152	1.587	9.457	1505.495	1504.762	1509.890	-7.664	-0.458	8.229	-5.818	-0.153	8.498
59218.658	NaN	-3.141	1.587	9.457	1506.227	1503.297	1510.623	-7.466	-0.519	8.305	-5.818	-0.230	8.344
59219.635	NaN	-3.141	1.587	9.457	1505.495	1504.029	1510.623	-7.420	-0.443	8.443	-5.818	-0.306	8.498
59220.612	NaN	-3.163	1.587	9.446	1506.227	1504.029	1509.158	-7.542	-0.443	8.427	-5.895	-0.153	8.344
59221.588	NaN	-3.152	1.587	9.457	1506.227	1504.762	1510.623	-7.527	-0.412	8.198	-5.895	-0.230	8.268
59222.565	NaN	-3.163	1.576	9.457	1505.495	1504.029	1510.623	-7.511	-0.473	8.061	-5.895	-0.230	8.421
59223.541	NaN	-3.152	1.576	9.457	1505.495	1504.029	1509.890	-7.542	-0.366	8.229	-5.895	-0.153	8.344
59224.518	NaN	-3.141	1.576	9.467	1504.762	1504.029	1510.623	-7.511	-0.321	8.260	-5.895	-0.153	8.344
59225.494	NaN	-3.141	1.587	9.467	1506.227	1504.762	1511.355	-7.710	-0.427	8.244	-5.742	-0.153	8.421
59226.471	NaN	-3.152	1.587	9.478	1505.495	1504.029	1511.355	-7.573	-0.382	8.229	-5.818	-0.306	8.421
59227.448	NaN	-3.152	1.598	9.478	1505.495	1504.029	1510.623	-7.450	-0.168	8.305	-5.895	-0.230	8.344
59228.424	NaN	-3.152	1.598	9.467	1506.227	1504.029	1509.890	-7.573	-0.275	8.412	-5.895	-0.153	8.344
59229.401	NaN	-3.152	1.598	9.467	1503.297	1503.297	1510.623	-7.634	-0.504	8.427	-5.742	-0.230	8.574
59230.377	NaN	-3.130	1.598	9.467	1504.762	1505.495	1510.623	-7.740	-0.504	8.550	-5.895	-0.230	8.268
59231.354	NaN	-3.141	1.587	9.467	1504.762	1504.029	1509.158	-7.542	-0.244	8.504	-5.818	-0.306	8.421
59232.330	NaN	-3.152	1.587	9.467	1504.029	1504.029	1508.425	-7.344	-0.137	8.412	-5.895	-0.306	8.574
59233.307	NaN	-3.152	1.587	9.478	1504.762	1504.029	1509.890	-7.359	-0.290	8.443	-5.895	-0.306	8.421
59234.283	NaN	-3.152	1.587	9.457	1505.495	1503.297	1511.355	-7.282	-0.321	8.214	-5.742	-0.306	8.421
59235.260	NaN	-3.152	1.609	9.467	1505.495	1504.029	1512.088	-7.573	-0.397	8.290	-5.818	-0.230	8.191
59236.237	NaN	-3.163	1.587	9.457	1506.227	1504.029	1510.623	-7.603	-0.351	8.305	-5.895	-0.153	8.115
59237.213	NaN	-3.163	1.576	9.446	1504.762	1503.297	1509.890	-7.542	-0.366	8.443	-5.818	-0.230	8.344
59238.190	NaN	-3.152	1.565	9.467	1505.495	1504.029	1509.890	-7.618	-0.351	8.473	-5.818	-0.230	8.344
59239.166	NaN	-3.163	1.576	9.457	1504.762	1502.564	1509.158	-7.603	-0.336	8.305	-5.895	-0.230	8.421
59240.143	NaN	-3.163	1.587	9.457	1503.297	1502.564	1509.158	-7.313	-0.214	8.061	-5.895	-0.153	8.421
59241.119	NaN	-3.174	1.587	9.446	1505.495	1504.762	1509.890	-7.359	-0.397	8.153	-5.818	-0.230	8.421
59242.096	NaN	-3.163	1.576	9.446	1505.495	1503.297	1509.158	-7.328	-0.504	8.366	-5.818	-0.230	8.498
59243.073	NaN	-3.163	1.587	9.446	1504.762	1502.564	1508.425	-7.252	-0.550	8.443	-5.818	-0.383	8.421
59244.049	NaN	-3.141	1.598	9.457	1504.762	1504.029	1509.890	-7.282	-0.214	8.489	-5.971	-0.306	8.268
59245.026	NaN	-3.152	1.587	9.457	1505.495	1503.297	1509.890	-7.328	-0.229	8.702	-5.818	-0.153	8.344
59246.002	NaN	-3.152	1.587	9.467	1504.762	1503.297	1508.425	-7.557	-0.244	8.794	-5.895	-0.383	8.498
59246.979	NaN	-3.152	1.609	9.478	1504.029	1503.297	1509.158	-7.893	-0.321	8.611	-5.971	-0.230	8.421
59247.955	NaN	-3.141	1.609	9.467	1504.029	1504.762	1510.623	-7.939	-0.351	8.336	-5.742	-0.306	8.421
59248.932	NaN	-3.152	1.598	9.478	1506.227	1503.297	1509.158	-7.634	-0.397	8.275	-5.818	-0.306	8.421
59249.908	NaN	-3.130	1.598	9.489	1504.762	1504.762	1509.890	-7.466	-0.290	8.565	-5.818	-0.153	8.268
59250.885	NaN	-3.141	1.598	9.489	1506.227	1504.029	1510.623	-7.435	-0.229	8.504	-5.971	-0.153	8.421
59251.862	NaN	-3.141	1.587	9.478	1502.564	1504.762	1509.158	-7.389	-0.336	8.656	-5.665	-0.306	8.344
59252.838	NaN	-3.141	1.598	9.478	1505.495	1504.029	1510.623	-7.542	-0.443	8.565	-5.895	-0.306	8.421
59253.815	NaN	-3.141	1.587	9.489	1505.495	1504.029	1511.355	-7.725	-0.534	8.489	-5.818	-0.383	8.344
59254.791	NaN	-3.141	1.598	9.478	1506.227	1503.297	1509.890	-7.847	-0.473	8.519	-5.818	-0.306	8.498
59255.768	NaN	-3.141	1.576	9.478	1504.762	1504.029	1509.890	-7.756	-0.336	8.489	-5.742	-0.383	8.421
59256.744	NaN	-3.130	1.587	9.467	1506.960	1504.762	1509.890	-7.710	-0.214	8.290	-5.818	-0.153	8.421
59257.721	NaN	-3.141	1.576	9.457	1504.762	1504.029	1509.158	-7.695	-0.412	8.382	-5.818	-0.153	8.421
59258.698	NaN	-3.141	1.587	9.457	1505.495	1504.029	1509.158	-7.573	-0.366	8.641	-5.895	-0.230	8.344
59259.674	NaN	-3.141	1.587	9.446	1504.762	1504.029	1509.890	-7.420	-0.336	8.718	-5.818	-0.306	8.268
59260.651	NaN	-3.152	1.587	9.446	1506.227	1503.297	1511.355	-7.618	-0.382	8.534	-5.895	-0.230	8.498
59261.627	NaN	-3.152	1.587	9.457	1504.762	1504.762	1509.890	-7.771	-0.473	8.412	-5.665	-0.230	8.344
59262.604	NaN	-3.152	1.587	9.457	1506.960	1503.297	1509.158	-7.496	-0.443	8.443	-5.818	-0.306	8.344
59263.580	NaN	-3.163	1.565	9.467	1505.495	1503.297	1509.158	-7.344	-0.275	8.504	-5.971	-0.230	8.421
59264.557	NaN	-3.163	1.576	9.467	1505.495	1504.029	1509.890	-7.328	-0.031	8.260	-5.895	-0.230	8.344
59265.533	NaN	-3.152	1.576	9.457	1505.495	1504.762	1509.890	-7.450	0.000	8.305	-5.818	-0.306	8.421
59266.510	NaN	-3.141	1.587	9.467	1506.227	1503.297	1509.890	-7.771	-0.214	8.443	-5.818	-0.306	8.268
59267.487	NaN	-3.152	1.587	9.478	1506.227	1502.564	1511.355	-7.634	-0.351	8.519	-5.818	-0.230	8.421
59268.463	NaN	-3.152	1.598	9.478	1504.762	1504.029	1509.890	-7.481	-0.580	8.397	-5.742	-0.306	8.191
59269.440	NaN	-3.152	1.587	9.467	1505.495	1504.029	1509.890	-7.588	-0.595	8.565	-5.895	-0.230	8.574
59270.416	NaN	-3.152	1.587	9.478	1506.960	1504.762	1510.623	-7.466	-0.305	8.580	-5.742	-0.153	8.574
59271.393	NaN	-3.141	1.587	9.478	1504.762	1504.029	1509.890	-7.542	-0.198	8.733	-5.742	-0.230	8.344
59272.369	NaN	-3.141	1.576	9.467	1506.227	1503.297	1509.890	-7.695	-0.244	8.641	-5.818	-0.230	8.344
59273.346	NaN	-3.152	1.587	9.467	1504.762	1503.297	1510.623	-7.588	-0.244	8.443	-5.665	-0.230	8.421
59274.323	NaN	-3.152	1.576	9.457	1506.227	1504.762	1509.890	-7.527	-0.321	8.412	-5.818	-0.153	8.421
59275.299	NaN	-3.152	1.587	9.478	1505.495	1504.762	1509.890	-7.618	-0.427	8.305	-5.742	-0.306	8.344
59276.276	NaN	-3.152	1.587	9.478	1505.495	1504.029	1509.890	-7.450	-0.351	8.336	-5.818	-0.230	8.344
59277.252	NaN	-3.152	1.587	9.478	1504.762	1504.029	1511.355	-7.634	-0.183	8.458	-5.895	-0.306	8.498
59278.229	NaN	-3.152	1.587	9.478	1504.029	1504.029	1509.890	-7.664	-0.198	8.351	-5.742	-0.230	8.498
59279.205	NaN	-3.141	1.587	9.478	1506.227	1504.029	1511.355	-7.649	-0.260	8.427	-5.895	-0.230	8.344
59280.182	NaN	-3.141	1.587	9.478	1506.227	1503.297	1510.623	-7.618	-0.351	8.550	-5.818	-0.153	8.498
59281.158	NaN	-3.141	1.587	9.467	1506.960	1504.029	1510.623	-7.527	-0.366	8.656	-5.895	-0.306	8.421
59282.135	NaN	-3.141	1.576	9.478	1505.495	1503.297	1509.890	-7.603	-0.412	8.534	-5.895	-0.306	8.344
59283.112	NaN	-3.141	1.576	9.478	1505.495	1503.297	1509.158	-7.298	-0.489	8.458	-5.818	-0.230	8.421
59284.088	NaN	-3.141	1.587	9.489	1505.495	1504.762	1510.623	-7.252	-0.412	8.412	-5.742	-0.306	8.498
59285.065	NaN	-3.141	1.576	9.489	1504.762	1504.029	1509.890	-7.542	-0.275	8.611	-5.818	-0.153	8.421
59286.041	NaN	-3.163	1.576	9.489	1505.495	1503.297	1509.890	-7.542	-0.382	8.733	-5.742	-0.230	8.498
59287.018	NaN	-3.174	1.565	9.478	1505.495	1504.029	1510.623	-7.588	-0.290	8.656	-5.818	-0.306	8.344
59287.994	NaN	-3.174	1.554	9.489	1504.762	1503.297	1509.890	-7.603	-0.260	8.550	-5.818	-0.230	8.344
59288.971	NaN	-3.152	1.576	9.500	1504.762	1504.029	1507.692	-7.557	-0.244	8.427	-5.818	-0.230	8.421
59289.948	NaN	-3.152	1.576	9.489	1505.495	1504.029	1509.158	-7.618	-0.351	8.443	-5.895	-0.153	8.421
59290.924	NaN	-3.141	1.576	9.500	1504.762	1502.564	1509.158	-7.603	-0.351	8.473	-5.818	-0.306	8.344
59291.901	NaN	-3.141	1.576	9.489	1505.495	1504.762	1509.158	-7.588	-0.366	8.611	-5.742	-0.230	8.421
59292.877	NaN	-3.152	1.576	9.467	1504.029	1503.297	1508.425	-7.740	-0.382	8.733	-5.818	-0.153	8.421
59293.854	NaN	-3.141	1.587	9.467	1505.495	1503.297	1509.158	-7.634	-0.351	8.595	-5.742	-0.306	8.498
59294.830	NaN	-3.141	1.598	9.478	1505.495	1503.297	1509.890	-7.496	-0.275	8.412	-5.742	-0.306	8.421
59295.807	NaN	-3.152	1.587	9.467	1504.029	1503.297	1508.425	-7.511	-0.397	8.443	-5.818	-0.306	8.421
59296.783	NaN	-3.141	1.598	9.467	1505.495	1504.029	1510.623	-7.634	-0.458	8.458	-5.818	-0.306	8.498
59297.760	NaN	-3.152	1.587	9.446	1505.495	1502.564	1510.623	-7.603	-0.427	8.565	-5.742	-0.383	8.344
59298.737	NaN	-3.141	1.587	9.446	1504.029	1504.029	1509.890	-7.466	-0.351	8.427	-5.818	-0.230	8.421
59299.713	NaN	-3.152	1.587	9.446	1504.762	1504.762	1510.623	-7.618	-0.153	8.305	-5.818	-0.230	8.574
59300.690	NaN	-3.163	1.587	9.446	1505.495	1503.297	1508.425	-7.710	-0.092	8.336	-5.818	-0.230	8.421
59301.666	NaN	-3.152	1.598	9.457	1506.227	1504.029	1510.623	-7.802	-0.244	8.504	-5.742	-0.306	8.421
59302.643	NaN	-3.152	1.587	9.446	1504.762	1504.762	1508.425	-7.756	-0.321	8.595	-5.818	-0.383	8.498
59303.619	NaN	-3.141	1.598	9.457	1504.029	1502.564	1511.355	-7.756	-0.336	8.397	-5.818	-0.230	8.421
59304.596	NaN	-3.152	1.598	9.467	1504.762	1504.029	1509.890	-7.618	-0.229	8.427	-5.818	-0.230	8.344
59305.573	NaN	-3.163	1.598	9.467	1505.495	1503.297	1509.158	-7.481	-0.366	8.458	-5.895	-0.306	8.344
59306.549	NaN	-3.152	1.598	9.478	1506.227	1504.029	1510.623	-7.359	-0.458	8.473	-5.895	-0.306	8.421
59307.526	NaN	-3.163	1.598	9.467	1505.495	1503.297	1510.623	-7.435	-0.214	8.595	-5.895	-0.306	8.421
59308.502	NaN	-3.163	1.598	9.467	1504.762	1503.297	1509.890	-7.603	-0.183	8.580	-5.665	-0.230	8.344
59309.479	NaN	-3.152	1.598	9.467	1506.227	1503.297	1510.623	-7.710	-0.275	8.672	-5.895	-0.306	8.421
59310.455	NaN	-3.152	1.587	9.478	1504.762	1503.297	1509.158	-7.725	-0.519	8.702	-5.818	-0.230	8.574
59311.432	NaN	-3.130	1.587	9.478	1505.495	1503.297	1509.890	-7.603	-0.290	8.687	-5.742	-0.306	8.498
59312.408	NaN	-3.141	1.587	9.467	1506.227	1503.297	1509.890	-7.573	-0.168	8.687	-5.818	-0.153	8.268
59313.385	NaN	-3.152	1.576	9.478	1505.495	1502.564	1509.158	-7.573	-0.260	8.427	-5.895	-0.077	8.344
59314.362	NaN	-3.152	1.587	9.467	1506.227	1504.029	1510.623	-7.496	-0.290	8.443	-5.818	-0.153	8.344
59315.338	NaN	-3.152	1.587	9.478	1504.762	1502.564	1510.623	-7.557	-0.290	8.534	-5.818	-0.383	8.344
59316.315	NaN	-3.141	1.598	9.489	1504.762	1503.297	1509.158	-7.725	-0.336	8.611	-5.818	-0.230	8.421
59317.291	NaN	-3.141	1.587	9.478	1506.227	1503.297	1509.890	-7.557	-0.275	8.733	-5.665	-0.153	8.421
59318.268	NaN	-3.141	1.587	9.467	1504.762	1503.297	1509.890	-7.695	-0.244	8.489	-5.818	-0.230	8.498
59319.244	NaN	-3.130	1.587	9.467	1506.227	1504.762	1510.623	-7.786	-0.214	8.473	-5.895	-0.230	8.344
59320.221	NaN	-3.141	1.587	9.478	1504.762	1504.029	1509.158	-7.588	-0.260	8.504	-5.818	-0.306	8.344
59321.198	NaN	-3.152	1.576	9.478	1506.227	1503.297	1510.623	-7.466	-0.305	8.489	-5.818	-0.306	8.344
59322.174	NaN	-3.152	1.576	9.478	1506.227	1504.762	1509.890	-7.466	-0.260	8.504	-5.818	-0.230	8.498
59323.151	NaN	-3.152	1.576	9.489	1504.762	1502.564	1509.890	-7.573	-0.336	8.656	-5.895	-0.077	8.498
59324.127	NaN	-3.130	1.576	9.489	1505.495	1504.029	1510.623	-7.664	-0.397	8.779	-5.742	-0.383	8.344
59325.104	NaN	-3.141	1.587	9.478	1506.227	1503.297	1510.623	-7.664	-0.382	8.626	-5.742	-0.230	8.268
59326.080	NaN	-3.141	1.587	9.478	1505.495	1504.029	1509.890	-7.695	-0.260	8.672	-5.742	-0.153	8.498
59327.057	NaN	-3.152	1.587	9.467	1505.495	1504.029	1510.623	-7.649	-0.244	8.641	-5.742	-0.306	8.268
59328.033	NaN	-3.152	1.587	9.467	1505.495	1504.029	1509.158	-7.573	-0.214	8.565	-5.818	-0.230	8.344
59329.010	NaN	-3.152	1.587	9.467	1505.495	1504.762	1509.158	-7.527	-0.214	8.641	-5.742	-0.306	8.421
59329.987	NaN	-3.152	1.598	9.467	1505.495	1504.029	1511.355	-7.664	-0.382	8.656	-5.818	-0.153	8.498
59330.963	NaN	-3.141	1.598	9.467	1505.495	1504.029	1509.890	-7.710	-0.382	8.611	-5.818	-0.306	8.344
59331.940	NaN	-3.141	1.587	9.467	1506.227	1503.297	1509.890	-7.786	-0.382	8.534	-5.818	-0.383	8.421
59332.916	NaN	-3.152	1.587	9.467	1505.495	1504.029	1509.890	-7.603	-0.382	8.763	-5.818	-0.383	8.498
59333.893	NaN	-3.141	1.587	9.467	1504.762	1504.029	1510.623	-7.496	-0.260	8.794	-5.818	-0.153	8.421
59334.869	NaN	-3.141	1.576	9.457	1505.495	1504.029	1511.355	-7.573	-0.168	8.962	-5.818	-0.306	8.421
59335.846	NaN	-3.141	1.576	9.457	1506.227	1504.029	1509.890	-7.496	-0.214	8.763	-5.895	-0.230	8.421
59336.823	NaN	-3.141	1.576	9.467	1506.960	1504.029	1509.158	-7.374	-0.321	8.351	-5.818	-0.230	8.421
59337.799	NaN	-3.141	1.587	9.457	1504.762	1502.564	1509.158	-7.481	-0.290	8.504	-5.818	-0.230	8.344
59338.776	NaN	-3.130	1.587	9.467	1504.762	1503.297	1509.890	-7.679	-0.321	8.580	-5.895	-0.230	8.344
59339.752	NaN	-3.130	1.587	9.457	1505.495	1503.297	1510.623	-7.634	-0.244	8.641	-5.818	-0.230	8.191
59340.729	NaN	-3.152	1.576	9.446	1505.495	1504.029	1510.623	-7.786	-0.275	8.397	-5.742	-0.306	8.421
59341.705	NaN	-3.141	1.576	9.446	1504.762	1503.297	1509.890	-7.756	-0.275	8.443	-5.818	-0.230	8.498
59342.682	NaN	-3.141	1.587	9.457	1505.495	1504.029	1511.355	-7.573	-0.382	8.626	-5.895	-0.230	8.421
59343.658	NaN	-3.152	1.576	9.457	1506.227	1504.029	1509.158	-7.679	-0.275	8.656	-5.818	-0.230	8.344
59344.635	NaN	-3.163	1.576	9.467	1506.227	1504.029	1509.890	-7.756	-0.198	8.565	-5.742	-0.306	8.268
59345.612	NaN	-3.163	1.576	9.457	1504.762	1504.029	1512.088	-7.664	-0.153	8.595	-5.895	-0.230	8.268
59346.588	NaN	-3.152	1.598	9.457	1505.495	1504.029	1510.623	-7.557	-0.107	8.687	-5.895	-0.306	8.574
59347.565	NaN	-3.163	1.587	9.446	1506.227	1503.297	1512.088	-7.649	-0.260	8.626	-5.818	-0.153	8.421
59348.541	NaN	-3.141	1.598	9.457	1504.762	1503.297	1509.158	-7.771	-0.321	8.611	-5.818	-0.230	8.344
59349.518	NaN	-3.152	1.598	9.446	1504.029	1504.029	1509.890	-7.832	-0.458	8.489	-5.895	-0.230	8.421
59350.494	NaN	-3.141	1.598	9.435	1506.227	1503.297	1511.355	-7.771	-0.504	8.336	-5.818	-0.153	8.344
59351.471	NaN	-3.130	1.587	9.446	1505.495	1504.762	1510.623	-7.664	-0.412	8.595	-5.971	-0.153	8.344
59352.448	NaN	-3.141	1.598	9.446	1504.762	1504.029	1509.890	-7.557	-0.260	8.702	-5.895	-0.306	8.421
59353.424	NaN	-3.141	1.587	9.457	1504.762	1503.297	1509.890	-7.374	-0.366	8.794	-5.742	-0.306	8.344
59354.401	NaN	-3.152	1.576	9.457	1505.495	1503.297	1509.890	-7.527	-0.412	8.809	-5.971	-0.306	8.344
59355.377	NaN	-3.141	1.576	9.467	1506.227	1504.029	1509.158	-7.786	-0.290	8.672	-5.818	-0.230	8.421
59356.354	NaN	-3.141	1.587	9.467	1506.227	1504.762	1509.890	-7.832	-0.321	8.824	-5.895	-0.306	8.344
59357.330	NaN	-3.130	1.587	9.457	1505.495	1504.029	1510.623	-7.588	-0.351	8.824	-5.895	-0.230	8.421
59358.307	NaN	-3.141	1.587	9.467	1505.495	1504.029	1510.623	-7.786	-0.351	8.779	-5.742	-0.306	8.498
59359.283	NaN	-3.141	1.598	9.457	1506.227	1503.297	1510.623	-7.863	-0.275	8.718	-5.895	-0.230	8.344
59360.260	NaN	-3.141	1.609	9.457	1506.227	1504.029	1511.355	-7.634	-0.458	8.687	-5.895	-0.153	8.421
59361.237	NaN	-3.141	1.609	9.457	1504.762	1504.762	1509.158	-7.481	-0.336	8.733	-5.895	-0.153	8.651
59362.213	NaN	-3.141	1.598	9.446	1505.495	1504.029	1510.623	-7.374	-0.351	8.687	-5.818	-0.153	8.421
59363.190	NaN	-3.152	1.576	9.446	1505.495	1503.297	1509.158	-7.450	-0.305	8.687	-5.895	-0.306	8.421
59364.166	NaN	-3.141	1.587	9.457	1506.227	1504.762	1509.890	-7.588	-0.366	8.687	-5.971	-0.230	8.421
59365.143	NaN	-3.130	1.576	9.467	1506.227	1504.029	1511.355	-7.878	-0.366	8.550	-5.818	-0.306	8.421
59366.119	NaN	-3.130	1.576	9.467	1506.227	1504.029	1509.890	-8.031	-0.198	8.550	-5.895	-0.230	8.344
59367.096	NaN	-3.141	1.576	9.467	1505.495	1504.029	1510.623	-7.969	-0.107	8.595	-5.895	-0.230	8.268
59368.073	NaN	-3.152	1.598	9.467	1506.227	1504.029	1511.355	-7.679	-0.290	8.748	-5.818	-0.230	8.421
59369.049	NaN	-3.152	1.598	9.457	1505.495	1503.297	1509.890	-7.618	-0.458	8.748	-5.742	-0.383	8.498
59370.026	NaN	-3.141	1.609	9.467	1504.762	1503.297	1509.890	-7.664	-0.382	8.702	-5.895	-0.153	8.498
59371.002	NaN	-3.152	1.587	9.457	1505.495	1504.762	1509.890	-7.634	-0.351	8.611	-5.742	-0.306	8.344
59371.979	NaN	-3.163	1.587	9.446	1504.762	1502.564	1509.158	-7.618	-0.351	8.656	-5.895	-0.306	8.344
59372.955	NaN	-3.141	1.598	9.457	1504.762	1503.297	1509.890	-7.588	-0.473	8.763	-5.818	-0.230	8.344
59373.932	NaN	-3.141	1.587	9.446	1505.495	1502.564	1508.425	-7.679	-0.550	8.656	-5.971	-0.306	8.344
59374.908	3736847481.168	-3.141	1.587	9.446	1504.762	1502.564	1508.425	-7.817	-0.443	8.550	-5.818	-0.230	8.421
59375.885	NaN	-3.141	1.598	9.457	1506.227	1503.297	1508.425	-7.573	-0.321	8.656	-5.895	-0.230	8.498
59376.862	NaN	-3.163	1.587	9.467	1504.029	1502.564	1509.890	-7.511	-0.366	8.824	-5.818	-0.230	8.268
59377.838	NaN	-3.152	1.609	9.478	1504.762	1503.297	1509.158	-7.573	-0.275	8.763	-5.818	-0.153	8.421
59378.815	NaN	-3.163	1.598	9.467	1505.495	1503.297	1510.623	-7.634	-0.214	8.702	-5.818	-0.306	8.421
59379.791	NaN	-3.152	1.587	9.478	1504.762	1503.297	1510.623	-7.817	-0.290	8.733	-5.818	-0.306	8.421
59380.768	NaN	-3.163	1.587	9.478	1504.762	1502.564	1509.158	-7.725	-0.275	8.733	-5.818	-0.153	8.344
59381.744	NaN	-3.152	1.609	9.478	1506.960	1504.029	1510.623	-7.802	-0.244	8.580	-5.818	-0.306	8.268
59382.721	NaN	-3.163	1.587	9.478	1505.495	1503.297	1509.158	-7.496	-0.198	8.702	-5.742	-0.153	8.574
59383.698	NaN	-3.141	1.609	9.478	1505.495	1503.297	1510.623	-7.527	-0.168	8.855	-5.818	-0.153	8.421
59384.674	NaN	-3.163	1.598	9.467	1504.029	1503.297	1510.623	-7.740	-0.290	8.733	-5.895	-0.306	8.344
59385.651	NaN	-3.163	1.587	9.467	1504.762	1504.762	1509.890	-7.527	-0.305	8.809	-5.895	-0.230	8.498
59386.627	NaN	-3.141	1.576	9.478	1505.495	1504.762	1510.623	-7.405	-0.229	8.748	-5.895	-0.383	8.421
59387.604	NaN	-3.141	1.587	9.467	1506.227	1503.297	1510.623	-7.664	-0.122	8.672	-5.895	-0.230	8.421
59388.580	NaN	-3.141	1.576	9.467	1506.227	1504.762	1509.890	-7.634	-0.107	8.763	-5.742	-0.153	8.421
59389.557	NaN	-3.141	1.576	9.457	1504.762	1504.029	1509.890	-7.557	-0.092	8.702	-5.818	-0.230	8.421
59390.533	NaN	-3.152	1.587	9.446	1504.029	1504.029	1509.890	-7.695	-0.198	8.733	-5.895	-0.306	8.344
59391.510	NaN	-3.152	1.576	9.446	1505.495	1502.564	1509.158	-7.679	-0.305	8.931	-5.818	-0.230	8.421
59392.487	NaN	-3.141	1.587	9.457	1504.029	1503.297	1510.623	-7.603	-0.351	8.901	-5.895	-0.230	8.421
59393.463	NaN	-3.141	1.587	9.457	1505.495	1504.029	1509.158	-7.557	-0.366	8.824	-5.742	-0.153	8.268
59394.440	NaN	-3.141	1.576	9.446	1505.495	1503.297	1510.623	-7.542	-0.382	8.687	-5.895	-0.306	8.344
59395.416	NaN	-3.130	1.598	9.457	1506.227	1504.029	1509.890	-7.756	-0.397	8.656	-5.971	-0.306	8.421
59396.393	NaN	-3.141	1.576	9.446	1503.297	1503.297	1510.623	-7.817	-0.366	8.779	-5.742	-0.077	8.344
59397.369	NaN	-3.141	1.576	9.446	1504.029	1503.297	1509.158	-7.969	-0.351	8.748	-5.665	-0.230	8.344
59398.346	NaN	-3.130	1.587	9.446	1505.495	1503.297	1509.890	-7.878	-0.351	8.748	-5.971	-0.153	8.421
59399.323	NaN	-3.141	1.587	9.446	1504.762	1503.297	1509.158	-7.863	-0.336	8.885	-5.895	-0.230	8.344
59400.299	NaN	-3.130	1.598	9.457	1505.495	1504.029	1509.890	-7.786	-0.336	8.809	-5.895	-0.306	8.421
59401.276	NaN	-3.141	1.587	9.457	1506.227	1503.297	1509.158	-7.649	-0.321	8.702	-5.895	-0.306	8.268
59402.252	NaN	-3.141	1.576	9.467	1504.762	1504.029	1511.355	-7.695	-0.351	8.641	-5.895	-0.306	8.344
59403.229	NaN	-3.163	1.587	9.457	1506.227	1503.297	1509.890	-7.817	-0.275	8.855	-5.818	-0.153	8.498
59404.205	NaN	-3.152	1.598	9.457	1506.960	1504.029	1510.623	-7.695	-0.382	8.809	-5.895	-0.306	8.421
59405.182	NaN	-3.152	1.598	9.467	1505.495	1503.297	1510.623	-7.832	-0.336	8.580	-5.818	-0.383	8.344
59406.158	NaN	-3.152	1.598	9.467	1505.495	1504.029	1512.088	-8.107	-0.244	8.611	-5.818	-0.153	8.268
59407.135	NaN	-3.152	1.598	9.467	1504.762	1503.297	1510.623	-7.939	-0.275	8.809	-5.818	-0.230	8.421
59408.112	NaN	-3.163	1.598	9.457	1505.495	1504.762	1510.623	-7.466	-0.229	8.885	-5.818	-0.230	8.421
59409.088	NaN	-3.152	1.609	9.467	1505.495	1504.029	1510.623	-7.481	-0.275	8.855	-5.895	-0.306	8.268
59410.065	NaN	-3.163	1.598	9.467	1505.495	1504.029	1511.355	-7.466	-0.260	8.733	-5.818	-0.230	8.498
59411.041	NaN	-3.163	1.598	9.467	1505.495	1504.029	1511.355	-7.420	-0.107	8.733	-5.895	-0.153	8.421
59412.018	NaN	-3.174	1.587	9.467	1506.227	1503.297	1510.623	-7.664	0.015	8.870	-5.742	-0.306	8.421
59412.994	NaN	-3.174	1.587	9.457	1506.227	1504.762	1509.890	-7.695	-0.015	8.901	-5.818	-0.230	8.344
59413.971	NaN	-3.163	1.587	9.457	1505.495	1504.762	1511.355	-7.664	-0.275	8.901	-5.818	-0.153	8.421
59414.948	NaN	-3.174	1.576	9.457	1506.227	1504.762	1511.355	-7.557	-0.504	8.687	-5.818	-0.153	8.344
59415.924	NaN	-3.163	1.565	9.457	1504.029	1503.297	1509.158	-7.603	-0.504	8.519	-5.971	-0.230	8.191
59416.901	NaN	-3.163	1.576	9.467	1506.227	1503.297	1510.623	-7.878	-0.351	8.656	-5.742	-0.306	8.498
59417.877	NaN	-3.152	1.576	9.467	1506.227	1503.297	1509.890	-7.771	-0.260	8.779	-5.818	-0.306	8.344
59418.854	NaN	-3.152	1.576	9.467	1506.227	1503.297	1511.355	-7.771	-0.076	8.794	-5.895	-0.383	8.191
59419.830	NaN	-3.141	1.576	9.467	1505.495	1504.029	1509.890	-7.725	-0.137	8.885	-5.895	-0.230	8.344
59420.807	NaN	-3.152	1.576	9.467	1505.495	1503.297	1509.890	-7.557	-0.260	9.130	-5.818	-0.230	8.421
59421.783	NaN	-3.152	1.587	9.467	1504.029	1503.297	1509.158	-7.527	-0.351	9.053	-5.818	-0.230	8.498
59422.760	NaN	-3.141	1.598	9.467	1505.495	1504.029	1509.158	-7.527	-0.321	8.870	-5.742	-0.306	8.344
59423.737	NaN	-3.141	1.609	9.467	1506.227	1503.297	1509.158	-7.664	-0.244	8.763	-5.818	-0.230	8.421
59424.713	NaN	-3.152	1.609	9.467	1504.762	1503.297	1510.623	-7.740	-0.305	8.962	-5.742	-0.153	8.344
59425.690	NaN	-3.163	1.598	9.457	1506.227	1503.297	1510.623	-7.847	-0.321	8.947	-5.818	-0.153	8.421
59426.666	NaN	-3.152	1.609	9.457	1506.227	1503.297	1511.355	-7.802	-0.351	8.855	-5.818	-0.306	8.421
59427.643	NaN	-3.163	1.598	9.467	1505.495	1503.297	1509.890	-7.939	-0.305	8.962	-5.818	-0.306	8.268
59428.619	NaN	-3.163	1.598	9.457	1506.227	1502.564	1509.890	-8.000	-0.550	8.931	-5.742	-0.153	8.344
59429.596	NaN	-3.163	1.587	9.457	1504.762	1503.297	1509.158	-7.847	-0.565	8.840	-5.742	-0.306	8.344
59430.573	NaN	-3.174	1.587	9.467	1505.495	1504.029	1509.890	-7.649	-0.275	8.763	-5.818	-0.306	8.421
59431.549	NaN	-3.174	1.587	9.478	1504.762	1504.762	1509.158	-7.603	-0.260	8.763	-5.818	-0.153	8.421
59432.526	NaN	-3.185	1.587	9.467	1505.495	1503.297	1510.623	-7.832	-0.351	8.748	-5.742	-0.153	8.268
59433.502	NaN	-3.163	1.587	9.467	1505.495	1503.297	1510.623	-7.939	-0.275	8.611	-5.818	-0.153	8.344
59434.479	NaN	-3.163	1.598	9.467	1504.762	1503.297	1509.158	-7.954	-0.107	8.473	-5.895	-0.306	8.344
59435.455	NaN	-3.163	1.587	9.467	1503.297	1502.564	1509.158	-7.863	-0.137	8.672	-5.818	-0.230	8.574
59436.432	NaN	-3.152	1.609	9.467	1505.495	1504.029	1510.623	-7.893	-0.198	8.901	-5.971	-0.306	8.421
59437.408	NaN	-3.163	1.598	9.457	1506.227	1504.029	1512.088	-7.847	-0.229	8.962	-5.818	-0.306	8.421
59438.385	NaN	-3.152	1.587	9.446	1504.762	1504.029	1509.890	-7.924	-0.260	8.962	-5.971	-0.230	8.344
59439.362	NaN	-3.152	1.576	9.446	1505.495	1504.029	1510.623	-7.756	-0.336	8.901	-5.895	-0.230	8.421
59440.338	NaN	-3.152	1.587	9.457	1505.495	1504.029	1511.355	-7.740	-0.290	8.779	-5.742	-0.153	8.421
59441.315	NaN	-3.152	1.576	9.457	1504.029	1504.762	1509.890	-7.649	-0.336	8.702	-5.742	-0.230	8.498
59442.291	NaN	-3.141	1.598	9.457	1505.495	1504.029	1509.890	-7.679	-0.397	8.763	-5.818	-0.230	8.421
59443.268	NaN	-3.152	1.598	9.467	1505.495	1504.029	1509.890	-7.832	-0.366	8.885	-5.818	-0.383	8.498
59444.244	NaN	-3.141	1.598	9.457	1506.227	1504.762	1510.623	-7.771	-0.489	8.809	-5.742	-0.306	8.344
59445.221	NaN	-3.152	1.587	9.457	1504.762	1504.029	1510.623	-7.695	-0.366	8.718	-5.818	-0.153	8.421
59446.198	NaN	-3.152	1.587	9.457	1502.564	1503.297	1507.692	-7.435	-0.153	8.885	-5.742	-0.383	8.421
59447.174	NaN	-3.152	1.598	9.467	1504.762	1503.297	1509.890	-7.527	-0.183	8.840	-5.742	-0.230	8.421
59448.151	NaN	-3.152	1.587	9.467	1505.495	1504.029	1509.890	-7.954	-0.183	8.962	-5.895	-0.383	8.268
59449.127	NaN	-3.141	1.598	9.478	1505.495	1504.762	1510.623	-8.031	-0.092	9.023	-5.742	-0.306	8.421
59450.104	NaN	-3.141	1.598	9.478	1506.227	1504.029	1509.890	-7.939	-0.168	9.038	-5.895	-0.306	8.498
59451.080	NaN	-3.141	1.598	9.489	1504.029	1503.297	1509.890	-7.649	-0.137	8.885	-5.742	-0.306	8.421
59452.057	NaN	-3.152	1.587	9.500	1504.762	1504.762	1509.890	-7.679	-0.061	8.840	-5.818	-0.230	8.344
59453.033	NaN	-3.141	1.587	9.500	1506.227	1504.762	1510.623	-7.802	-0.198	8.794	-5.742	-0.230	8.498
59454.010	NaN	-3.130	1.587	9.500	1506.227	1504.029	1509.890	-7.740	-0.275	8.748	-5.895	-0.306	8.344
59454.987	NaN	-3.141	1.576	9.489	1505.495	1504.029	1511.355	-7.557	-0.198	8.763	-5.818	-0.153	8.344
59455.963	NaN	-3.141	1.576	9.489	1504.762	1504.029	1509.890	-7.603	-0.183	9.023	-5.818	-0.230	8.268
59456.940	NaN	-3.152	1.565	9.478	1505.495	1503.297	1509.890	-7.710	-0.092	9.084	-5.818	-0.230	8.344
59457.916	NaN	-3.152	1.576	9.489	1504.762	1504.762	1511.355	-7.924	-0.137	8.779	-5.818	-0.153	8.344
59458.893	NaN	-3.141	1.576	9.500	1505.495	1504.762	1511.355	-7.969	-0.076	8.595	-5.818	-0.230	8.344
59459.869	NaN	-3.141	1.587	9.489	1504.762	1504.029	1509.890	-7.634	-0.229	8.687	-5.742	-0.306	8.421
59460.846	NaN	-3.152	1.576	9.467	1504.029	1503.297	1509.890	-7.573	-0.305	8.962	-5.742	-0.230	8.421
59461.823	NaN	-3.130	1.598	9.478	1506.227	1503.297	1509.890	-7.695	-0.061	8.947	-5.818	-0.230	8.344
59462.799	NaN	-3.141	1.587	9.478	1504.762	1502.564	1509.158	-7.847	-0.198	8.809	-5.895	-0.230	8.421
59463.776	NaN	-3.120	1.598	9.500	1504.762	1503.297	1509.890	-7.924	-0.122	8.687	-5.818	-0.306	8.421
59464.752	NaN	-3.120	1.598	9.500	1504.762	1503.297	1509.890	-7.847	-0.107	8.641	-5.818	-0.230	8.421
59465.729	NaN	-3.141	1.587	9.489	1506.227	1504.029	1509.158	-7.634	-0.260	8.702	-5.818	-0.306	8.268
59466.705	NaN	-3.141	1.587	9.489	1504.762	1504.762	1510.623	-7.710	-0.275	8.870	-5.818	-0.230	8.344
59467.682	NaN	-3.152	1.587	9.489	1505.495	1503.297	1510.623	-7.634	-0.305	8.931	-5.818	-0.153	8.421
59468.658	NaN	-3.152	1.587	9.478	1506.227	1503.297	1510.623	-7.450	-0.443	9.191	-5.818	-0.153	8.344
59469.635	NaN	-3.163	1.598	9.478	1504.762	1504.029	1509.890	-7.740	-0.351	9.191	-5.895	-0.230	8.421
59470.612	NaN	-3.163	1.598	9.478	1504.029	1504.029	1510.623	-7.969	-0.198	8.992	-5.895	-0.383	8.498
59471.588	NaN	-3.152	1.598	9.467	1506.227	1503.297	1509.890	-7.756	-0.260	8.672	-5.818	-0.383	8.421
59472.565	NaN	-3.152	1.598	9.467	1504.762	1503.297	1509.158	-7.527	-0.198	8.748	-5.895	-0.230	8.421
59473.541	NaN	-3.163	1.609	9.467	1505.495	1504.029	1510.623	-7.695	-0.260	8.885	-5.895	-0.153	8.344
59474.518	NaN	-3.163	1.598	9.478	1505.495	1503.297	1509.158	-7.908	-0.534	8.870	-5.971	-0.153	8.498
59475.494	NaN	-3.152	1.598	9.478	1505.495	1504.029	1509.890	-7.985	-0.504	8.748	-5.971	-0.230	8.344
59476.471	NaN	-3.163	1.598	9.478	1506.227	1504.029	1510.623	-7.847	-0.351	8.687	-5.742	-0.306	8.344
59477.448	NaN	-3.163	1.587	9.478	1504.762	1504.029	1509.890	-7.756	-0.198	8.718	-5.895	-0.383	8.421
59478.424	NaN	-3.174	1.587	9.489	1504.762	1504.029	1509.890	-7.740	-0.275	8.947	-5.895	-0.306	8.421
59479.401	NaN	-3.174	1.587	9.478	1506.227	1504.029	1509.890	-7.954	-0.351	9.038	-5.971	-0.306	8.421
59480.377	NaN	-3.163	1.598	9.478	1506.227	1504.029	1510.623	-7.939	-0.290	8.977	-5.818	-0.383	8.268
59481.354	NaN	-3.152	1.598	9.478	1504.762	1504.762	1510.623	-7.893	-0.244	8.947	-5.971	-0.306	8.421
59482.330	NaN	-3.152	1.587	9.467	1505.495	1504.029	1509.890	-7.664	-0.168	8.962	-5.818	-0.383	8.344
59483.307	NaN	-3.152	1.587	9.478	1504.762	1503.297	1509.890	-7.618	-0.168	8.855	-5.742	-0.306	8.421
59484.283	NaN	-3.141	1.598	9.489	1506.227	1504.029	1509.890	-7.756	-0.031	8.794	-6.048	-0.230	8.421
59485.260	NaN	-3.152	1.587	9.489	1505.495	1504.029	1509.890	-7.786	0.046	8.794	-5.742	-0.306	8.344
59486.237	NaN	-3.152	1.587	9.489	1504.029	1504.029	1509.158	-7.817	-0.168	8.779	-5.818	-0.306	8.344
59487.213	NaN	-3.152	1.598	9.478	1506.227	1504.029	1509.158	-7.802	-0.336	8.885	-5.742	-0.230	8.344
59488.190	NaN	-3.152	1.576	9.478	1506.227	1502.564	1509.890	-7.939	-0.290	8.992	-5.818	-0.306	8.498
59489.166	NaN	-3.152	1.587	9.467	1504.029	1504.029	1509.890	-7.756	-0.229	8.962	-5.895	-0.230	8.498
59490.143	NaN	-3.141	1.587	9.467	1504.029	1504.029	1511.355	-7.771	-0.153	9.023	-5.895	-0.153	8.421
59491.119	NaN	-3.141	1.587	9.457	1506.227	1504.029	1509.158	-7.985	-0.153	8.916	-5.818	-0.306	8.421
59492.096	NaN	-3.152	1.576	9.467	1504.762	1503.297	1509.890	-8.000	-0.214	9.053	-5.818	-0.306	8.498
59493.073	3736847481.335	-3.141	1.587	9.457	1505.495	1504.029	1509.158	-7.817	-0.275	9.191	-5.818	-0.230	8.498
59494.049	NaN	-3.141	1.587	9.457	1505.495	1504.029	1511.355	-7.710	-0.122	9.160	-5.895	-0.230	8.344
59495.026	NaN	-3.141	1.598	9.457	1505.495	1504.029	1509.890	-7.618	-0.198	9.023	-5.895	-0.383	8.268
59496.002	NaN	-3.152	1.587	9.446	1504.762	1503.297	1509.890	-7.527	-0.290	8.840	-5.895	-0.230	8.344
59496.979	NaN	-3.141	1.598	9.446	1504.762	1503.297	1510.623	-7.618	-0.229	9.008	-5.818	-0.153	8.344
59497.955	NaN	-3.141	1.587	9.446	1506.227	1504.762	1510.623	-7.710	-0.168	9.023	-5.742	-0.153	8.421
59498.932	NaN	-3.141	1.598	9.457	1506.227	1504.029	1509.890	-7.817	-0.214	8.962	-5.818	-0.153	8.344
59499.908	NaN	-3.130	1.587	9.467	1506.227	1504.029	1511.355	-7.832	-0.168	8.840	-5.742	-0.230	8.421
59500.885	NaN	-3.141	1.598	9.467	1505.495	1503.297	1509.890	-7.924	-0.198	8.763	-5.895	-0.230	8.498
59501.862	NaN	-3.152	1.598	9.467	1505.495	1504.029	1510.623	-7.939	-0.351	8.901	-5.895	-0.230	8.421
59502.838	NaN	-3.163	1.598	9.457	1504.762	1503.297	1508.425	-7.847	-0.443	8.931	-5.895	-0.383	8.421
59503.815	NaN	-3.163	1.598	9.467	1504.029	1502.564	1509.158	-7.924	-0.229	8.916	-5.818	-0.306	8.268
59504.791	NaN	-3.163	1.598	9.467	1504.762	1504.029	1509.890	-8.000	-0.092	8.992	-5.818	-0.153	8.344
59505.768	NaN	-3.174	1.576	9.457	1504.762	1504.029	1509.890	-7.832	-0.244	9.069	-5.971	-0.230	8.498
59506.744	NaN	-3.152	1.587	9.446	1505.495	1504.029	1509.158	-7.725	-0.229	8.977	-5.742	-0.306	8.344
59507.721	NaN	-3.141	1.598	9.457	1504.762	1504.029	1509.890	-7.603	-0.290	8.885	-5.895	-0.230	8.498
59508.698	NaN	-3.152	1.598	9.467	1505.495	1504.029	1511.355	-7.603	-0.336	8.992	-5.818	-0.306	8.421
59509.674	NaN	-3.152	1.598	9.467	1504.762	1504.029	1509.158	-7.618	-0.229	9.053	-5.895	-0.383	8.421
59510.651	NaN	-3.141	1.598	9.457	1504.762	1504.029	1509.158	-7.542	-0.198	9.160	-5.895	-0.153	8.498
59511.627	NaN	-3.130	1.598	9.457	1505.495	1504.029	1510.623	-7.603	-0.275	9.038	-5.971	-0.230	8.421
59512.604	NaN	-3.141	1.598	9.467	1504.029	1504.029	1509.158	-7.908	-0.412	9.053	-5.895	-0.306	8.498
59513.580	NaN	-3.130	1.598	9.467	1505.495	1502.564	1509.158	-7.939	-0.351	9.084	-5.895	-0.230	8.344
59514.557	NaN	-3.141	1.598	9.467	1505.495	1504.029	1510.623	-7.618	-0.122	9.084	-5.818	-0.306	8.344
59515.533	NaN	-3.141	1.587	9.467	1506.227	1504.029	1509.890	-7.511	-0.122	9.084	-5.895	-0.306	8.421
59516.510	NaN	-3.141	1.576	9.467	1505.495	1504.762	1509.890	-7.679	-0.092	9.099	-5.895	-0.230	8.421
59517.487	NaN	-3.141	1.576	9.467	1506.227	1503.297	1509.890	-8.092	-0.260	8.962	-5.818	-0.306	8.344
59518.463	NaN	-3.141	1.576	9.457	1504.762	1504.029	1509.890	-7.908	-0.366	8.901	-5.818	-0.153	8.344
59519.440	NaN	-3.141	1.576	9.446	1505.495	1504.029	1509.890	-7.802	-0.244	8.992	-5.895	-0.230	8.344
59520.416	NaN	-3.120	1.587	9.457	1506.227	1504.029	1511.355	-7.771	-0.336	8.931	-5.818	-0.153	8.421
59521.393	NaN	-3.130	1.576	9.457	1505.495	1504.762	1512.088	-7.664	-0.366	9.053	-5.742	-0.306	8.421
59522.369	NaN	-3.130	1.576	9.457	1506.227	1504.029	1510.623	-7.878	-0.260	9.176	-5.971	-0.153	8.344
59523.346	NaN	-3.130	1.576	9.467	1504.029	1504.029	1509.890	-7.878	-0.183	9.160	-5.818	-0.306	8.421
59524.323	NaN	-3.152	1.587	9.467	1506.227	1504.029	1509.890	-7.924	-0.183	8.916	-5.818	-0.230	8.498
59525.299	NaN	-3.152	1.598	9.489	1506.227	1504.029	1510.623	-7.954	-0.168	8.885	-5.665	-0.230	8.421
59526.276	NaN	-3.152	1.598	9.478	1506.227	1504.029	1509.890	-7.847	-0.076	8.992	-5.742	-0.230	8.421
59527.252	NaN	-3.163	1.598	9.467	1504.762	1503.297	1510.623	-7.863	-0.260	8.901	-5.818	-0.306	8.421
59528.229	NaN	-3.163	1.609	9.478	1504.029	1502.564	1509.890	-7.802	-0.305	8.672	-5.742	-0.230	8.421
59529.205	NaN	-3.152	1.620	9.478	1505.495	1504.029	1509.890	-7.817	-0.153	8.626	-5.818	-0.306	8.421
59530.182	NaN	-3.163	1.598	9.478	1503.297	1504.029	1509.158	-7.924	-0.076	8.947	-5.742	-0.230	8.498
59531.158	NaN	-3.141	1.598	9.478	1505.495	1503.297	1509.890	-8.000	-0.061	9.206	-5.818	-0.230	8.421
59532.135	NaN	-3.141	1.587	9.467	1505.495	1504.029	1509.158	-7.969	-0.137	9.176	-5.895	-0.306	8.344
59533.112	NaN	-3.152	1.587	9.467	1506.227	1504.029	1509.158	-7.679	-0.321	9.130	-5.818	-0.306	8.498
59534.088	NaN	-3.152	1.587	9.478	1505.495	1503.297	1510.623	-7.802	-0.351	9.008	-5.818	-0.230	8.344
59535.065	NaN	-3.141	1.587	9.478	1505.495	1504.762	1512.821	-7.802	-0.198	8.916	-5.665	-0.230	8.268
59536.041	NaN	-3.141	1.587	9.478	1506.227	1503.297	1509.890	-8.061	-0.183	8.977	-5.818	-0.306	8.498
59537.018	NaN	-3.152	1.587	9.467	1503.297	1502.564	1510.623	-8.153	-0.244	8.840	-5.742	-0.383	8.574
59537.994	NaN	-3.141	1.598	9.467	1505.495	1504.029	1512.088	-7.649	-0.214	8.855	-5.818	-0.153	8.191
59538.971	NaN	-3.141	1.587	9.457	1504.762	1504.029	1509.890	-7.679	-0.168	9.038	-5.818	-0.230	8.344
59539.948	NaN	-3.152	1.587	9.467	1504.762	1503.297	1509.158	-7.863	-0.198	9.008	-5.742	-0.306	8.421
59540.924	NaN	-3.152	1.587	9.467	1505.495	1503.297	1509.158	-8.046	-0.229	9.008	-5.742	-0.306	8.344
59541.901	NaN	-3.163	1.587	9.467	1506.227	1504.029	1509.158	-8.137	-0.092	9.008	-5.818	-0.230	8.421
59542.877	NaN	-3.152	1.598	9.457	1505.495	1504.762	1510.623	-8.015	-0.229	9.069	-5.895	-0.230	8.344
59543.854	NaN	-3.152	1.598	9.457	1504.029	1504.762	1510.623	-7.847	-0.366	9.084	-5.895	-0.153	8.344
59544.830	NaN	-3.163	1.609	9.467	1504.762	1504.762	1508.425	-7.710	-0.305	9.221	-5.895	-0.306	8.268
59545.807	NaN	-3.174	1.598	9.478	1506.227	1504.029	1510.623	-7.969	-0.260	9.252	-5.742	-0.153	8.421
59546.783	NaN	-3.174	1.598	9.457	1505.495	1502.564	1509.158	-7.863	-0.244	9.145	-5.971	-0.153	8.344
59547.760	NaN	-3.152	1.609	9.457	1505.495	1503.297	1509.158	-7.679	-0.168	9.130	-5.818	-0.230	8.268
59548.737	NaN	-3.152	1.598	9.446	1504.762	1504.029	1509.890	-7.863	-0.229	9.160	-5.818	-0.306	8.344
59549.713	NaN	-3.163	1.598	9.446	1504.762	1504.762	1509.890	-7.832	-0.321	9.084	-5.742	-0.153	8.498
59550.690	NaN	-3.163	1.587	9.446	1505.495	1504.029	1511.355	-7.847	-0.351	9.069	-5.895	-0.230	8.344
59551.666	NaN	-3.152	1.598	9.457	1506.227	1503.297	1511.355	-7.725	-0.076	9.115	-5.971	-0.306	8.344
59552.643	NaN	-3.152	1.598	9.457	1505.495	1504.029	1511.355	-7.786	0.000	9.038	-5.971	-0.230	8.344
59553.619	NaN	-3.141	1.598	9.467	1505.495	1504.029	1509.158	-7.740	-0.122	8.962	-5.818	-0.230	8.421
59554.596	NaN	-3.152	1.587	9.478	1506.227	1504.762	1509.158	-7.634	-0.061	8.885	-5.742	-0.077	8.344
59555.573	NaN	-3.141	1.598	9.478	1505.495	1504.762	1511.355	-7.847	-0.046	9.053	-5.665	-0.230	8.344
59556.549	NaN	-3.141	1.587	9.478	1506.227	1504.029	1511.355	-7.969	-0.153	9.160	-5.818	-0.230	8.498
59557.526	NaN	-3.130	1.587	9.467	1504.762	1504.029	1510.623	-7.725	-0.153	9.038	-5.895	-0.230	8.421
59558.502	NaN	-3.130	1.598	9.467	1505.495	1503.297	1510.623	-7.695	-0.229	9.023	-5.818	-0.230	8.344
59559.479	NaN	-3.141	1.587	9.467	1504.762	1504.029	1509.158	-7.771	-0.214	9.084	-5.818	-0.153	8.421
59560.455	NaN	-3.141	1.609	9.467	1506.227	1504.029	1511.355	-7.847	-0.153	9.267	-5.665	-0.230	8.421
59561.432	NaN	-3.141	1.609	9.467	1505.495	1504.029	1509.890	-7.924	-0.214	9.237	-5.971	-0.153	8.421
59562.408	NaN	-3.152	1.598	9.457	1506.227	1504.029	1510.623	-8.031	-0.061	9.115	-5.742	-0.230	8.498
59563.385	NaN	-3.152	1.598	9.467	1505.495	1504.029	1509.158	-7.847	-0.092	9.069	-5.818	-0.230	8.421
59564.362	NaN	-3.163	1.598	9.457	1505.495	1504.762	1509.158	-7.771	-0.153	8.931	-5.818	-0.306	8.421
59565.338	NaN	-3.152	1.609	9.467	1506.227	1503.297	1509.890	-7.802	-0.290	8.962	-5.895	-0.230	8.498
59566.315	NaN	-3.152	1.609	9.489	1503.297	1504.029	1510.623	-7.756	-0.076	9.053	-5.895	-0.306	8.268
59567.291	NaN	-3.152	1.598	9.478	1504.029	1504.029	1512.088	-7.756	-0.061	9.069	-5.742	-0.306	8.268
59568.268	NaN	-3.163	1.598	9.467	1505.495	1503.297	1509.890	-7.924	-0.076	8.947	-5.818	-0.153	8.421
59569.244	NaN	-3.141	1.598	9.467	1505.495	1504.762	1509.890	-8.122	-0.290	8.977	-5.818	-0.153	8.421
59570.221	NaN	-3.141	1.609	9.457	1506.227	1504.762	1509.158	-8.031	-0.305	9.115	-5.895	-0.306	8.421
59571.198	NaN	-3.141	1.609	9.457	1505.495	1503.297	1509.158	-8.061	-0.137	9.130	-5.818	-0.153	8.268
59572.174	NaN	-3.152	1.609	9.457	1506.227	1503.297	1509.158	-7.954	-0.061	9.160	-5.818	-0.383	8.344
59573.151	NaN	-3.163	1.609	9.446	1506.227	1503.297	1510.623	-7.954	-0.061	9.176	-5.742	-0.383	8.498
59574.127	NaN	-3.163	1.609	9.457	1506.227	1504.029	1511.355	-7.710	-0.183	9.115	-5.665	-0.306	8.421
59575.104	NaN	-3.163	1.598	9.457	1504.029	1504.762	1510.623	-7.771	-0.092	9.206	-5.895	-0.230	8.268
59576.080	NaN	-3.163	1.609	9.467	1505.495	1504.762	1510.623	-8.244	-0.015	9.160	-5.895	-0.230	8.268
59577.057	NaN	-3.174	1.598	9.467	1506.227	1503.297	1511.355	-8.275	-0.137	9.084	-5.818	-0.306	8.421
59578.033	NaN	-3.163	1.598	9.457	1505.495	1504.762	1509.890	-8.076	-0.305	8.870	-5.895	-0.230	8.421
59579.010	NaN	-3.163	1.598	9.446	1505.495	1504.029	1510.623	-7.878	-0.366	8.992	-5.742	-0.230	8.344
59579.987	NaN	-3.152	1.598	9.457	1505.495	1503.297	1509.890	-7.939	-0.290	9.038	-5.895	-0.230	8.344
59580.963	NaN	-3.152	1.598	9.457	1505.495	1503.297	1511.355	-7.863	-0.260	9.038	-5.895	-0.306	8.421
59581.940	NaN	-3.163	1.598	9.457	1506.227	1504.029	1510.623	-7.847	-0.260	9.099	-5.895	-0.230	8.191
59582.916	NaN	-3.163	1.598	9.457	1505.495	1504.762	1511.355	-7.939	-0.153	9.191	-5.665	-0.306	8.498
59583.893	NaN	-3.152	1.609	9.446	1505.495	1504.029	1510.623	-8.031	-0.198	9.191	-5.818	-0.306	8.268
59584.869	NaN	-3.152	1.598	9.457	1505.495	1504.029	1510.623	-8.092	-0.183	9.237	-5.895	-0.230	8.344
59585.846	NaN	-3.152	1.587	9.457	1506.227	1503.297	1509.158	-8.000	-0.198	9.282	-5.818	-0.153	8.421
59586.823	NaN	-3.163	1.576	9.457	1505.495	1504.029	1510.623	-8.015	-0.183	9.206	-5.742	-0.383	8.344
59587.799	NaN	-3.152	1.587	9.478	1505.495	1504.029	1511.355	-8.122	-0.168	9.084	-5.742	-0.306	8.498
59588.776	NaN	-3.152	1.587	9.467	1505.495	1504.029	1509.890	-7.969	-0.168	8.931	-5.818	-0.383	8.421
59589.752	NaN	-3.163	1.587	9.467	1505.495	1503.297	1509.158	-7.786	-0.046	9.069	-5.818	-0.230	8.344
59590.729	NaN	-3.163	1.587	9.478	1505.495	1503.297	1509.890	-7.893	-0.031	9.160	-5.895	-0.153	8.498
59591.705	NaN	-3.163	1.587	9.467	1506.227	1504.029	1511.355	-8.153	-0.031	9.176	-5.895	-0.230	8.574
59592.682	NaN	-3.163	1.587	9.489	1505.495	1503.297	1510.623	-8.244	-0.076	9.206	-5.818	-0.230	8.498
59593.658	NaN	-3.152	1.598	9.489	1505.495	1504.762	1510.623	-8.107	-0.214	9.038	-5.895	-0.306	8.344
59594.635	NaN	-3.141	1.587	9.489	1505.495	1504.029	1509.890	-7.878	-0.198	8.840	-5.742	-0.383	8.421
59595.612	NaN	-3.152	1.587	9.489	1506.227	1504.029	1509.890	-7.847	-0.168	8.870	-5.895	-0.306	8.421
59596.588	NaN	-3.141	1.598	9.489	1505.495	1504.762	1510.623	-7.771	-0.183	8.962	-5.742	-0.230	8.344
