Timestamp	PC Timestamp	Low Noise Accelerometer X	Low Noise Accelerometer Y	Low Noise Accelerometer Z	Int A12	Int A13	Int A14	Gyroscope X	Gyroscope Y	Gyroscope Z	Wide Range Accelerometer X	Wide Range Accelerometer Y	Wide Range Accelerometer Z
78887.604	NaN	-3.304	1.185	9.304	1505.495	1504.762	1510.623	1.008	0.809	-5.542	-6.048	-0.766	8.268
78888.580	NaN	-3.293	1.185	9.304	1506.227	1503.297	1510.623	1.176	0.718	-5.573	-5.971	-0.766	8.344
78889.557	NaN	-3.304	1.174	9.304	1506.960	1504.029	1509.158	1.237	0.534	-5.557	-5.971	-0.612	8.191
78890.533	NaN	-3.304	1.185	9.315	1506.227	1503.297	1509.158	1.038	0.672	-5.481	-5.971	-0.612	8.191
78891.510	NaN	-3.293	1.185	9.315	1506.227	1504.029	1512.088	1.084	0.779	-5.573	-6.048	-0.612	8.268
78892.487	NaN	-3.293	1.196	9.326	1505.495	1504.762	1509.890	1.023	0.718	-5.603	-6.048	-0.766	8.191
78893.463	NaN	-3.293	1.185	9.315	1505.495	1504.762	1510.623	0.840	0.748	-5.511	-5.971	-0.612	8.115
78894.440	NaN	-3.283	1.207	9.326	1504.762	1502.564	1509.158	0.824	0.687	-5.359	-5.971	-0.766	8.268
78895.416	NaN	-3.304	1.196	9.315	1506.227	1503.297	1508.425	1.252	0.595	-5.435	-6.048	-0.536	8.191
78896.393	NaN	-3.293	1.196	9.315	1505.495	1504.762	1508.425	1.359	0.504	-5.542	-5.971	-0.459	8.344
78897.369	NaN	-3.293	1.185	9.304	1504.762	1504.029	1511.355	1.420	0.550	-5.695	-5.971	-0.766	8.268
78898.346	NaN	-3.293	1.207	9.304	1505.495	1504.029	1509.890	1.435	0.519	-5.695	-5.971	-0.612	8.115
78899.323	NaN	-3.293	1.185	9.304	1504.029	1504.029	1509.158	1.450	0.412	-5.389	-5.971	-0.689	8.268
78900.299	NaN	-3.293	1.196	9.304	1505.495	1504.762	1509.890	1.588	0.534	-5.176	-5.971	-0.612	8.344
78901.276	NaN	-3.293	1.207	9.315	1506.227	1504.029	1511.355	1.466	0.565	-5.344	-6.048	-0.612	8.268
78902.252	NaN	-3.304	1.207	9.304	1506.960	1504.762	1509.890	1.191	0.534	-5.420	-5.895	-0.689	8.344
78903.229	NaN	-3.293	1.196	9.315	1505.495	1503.297	1509.158	1.267	0.611	-5.481	-5.971	-0.766	8.344
78904.205	NaN	-3.304	1.185	9.315	1505.495	1504.029	1510.623	1.221	0.519	-5.588	-5.971	-0.612	8.344
78905.182	NaN	-3.304	1.207	9.326	1505.495	1504.029	1509.890	1.160	0.580	-5.481	-5.895	-0.842	8.344
78906.158	NaN	-3.293	1.207	9.326	1506.227	1504.762	1509.158	1.237	0.565	-5.496	-6.048	-0.536	8.268
78907.135	NaN	-3.315	1.185	9.326	1505.495	1504.762	1509.890	1.298	0.580	-5.450	-5.971	-0.612	8.344
78908.112	NaN	-3.326	1.185	9.337	1504.762	1504.029	1511.355	1.313	0.458	-5.237	-6.048	-0.612	8.115
78909.088	NaN	-3.315	1.185	9.348	1506.227	1504.029	1510.623	1.099	0.382	-5.176	-6.124	-0.612	8.344
78910.065	NaN	-3.315	1.196	9.359	1505.495	1504.029	1511.355	1.023	0.397	-5.511	-5.895	-0.536	8.191
78911.041	NaN	-3.304	1.185	9.359	1504.762	1504.029	1509.158	1.069	0.214	-5.634	-5.895	-0.689	8.268
78912.018	NaN	-3.315	1.185	9.359	1504.762	1504.029	1510.623	1.038	0.229	-5.511	-5.895	-0.689	8.191
78912.994	NaN	-3.315	1.185	9.370	1504.762	1503.297	1509.890	1.221	0.290	-5.557	-6.048	-0.766	8.344
78913.971	NaN	-3.304	1.196	9.380	1505.495	1504.029	1510.623	1.176	0.351	-5.374	-5.895	-0.612	8.344
78914.948	NaN	-3.315	1.185	9.370	1505.495	1503.297	1509.890	1.130	0.382	-5.374	-6.048	-0.612	8.268
78915.924	NaN	-3.304	1.196	9.380	1505.495	1504.029	1509.890	1.267	0.427	-5.573	-6.048	-0.689	8.344
78916.901	NaN	-3.304	1.174	9.370	1504.762	1503.297	1509.158	1.221	0.366	-5.618	-6.048	-0.766	8.344
78917.877	NaN	-3.304	1.185	9.359	1504.762	1504.029	1510.623	1.115	0.397	-5.557	-6.048	-0.766	8.268
78918.854	NaN	-3.293	1.185	9.359	1505.495	1504.029	1510.623	1.084	0.427	-5.603	-6.048	-0.689	8.115
78919.830	NaN	-3.293	1.185	9.348	1505.495	1504.029	1510.623	1.053	0.443	-5.496	-5.971	-0.612	8.268
78920.807	NaN	-3.304	1.185	9.359	1504.762	1504.762	1511.355	1.008	0.458	-5.359	-5.971	-0.842	8.268
78921.783	NaN	-3.326	1.185	9.359	1504.762	1503.297	1509.158	0.916	0.458	-5.267	-5.818	-0.689	8.344
78922.760	NaN	-3.326	1.196	9.359	1504.762	1504.762	1511.355	1.084	0.504	-5.450	-5.895	-0.689	8.268
78923.737	NaN	-3.315	1.196	9.359	1504.762	1504.762	1510.623	1.130	0.351	-5.634	-5.895	-0.536	8.421
78924.713	NaN	-3.315	1.185	9.380	1504.762	1504.762	1508.425	1.084	0.275	-5.542	-6.048	-0.689	8.268
78925.690	NaN	-3.326	1.185	9.391	1502.564	1504.029	1508.425	0.916	0.336	-5.450	-5.971	-0.842	8.344
78926.666	NaN	-3.326	1.185	9.380	1505.495	1503.297	1509.890	0.962	0.351	-5.527	-6.048	-0.689	8.268
78927.643	NaN	-3.304	1.196	9.380	1505.495	1504.029	1509.890	1.221	0.336	-5.481	-6.048	-0.689	8.344
78928.619	NaN	-3.315	1.185	9.380	1504.762	1504.762	1510.623	1.252	0.458	-5.450	-5.971	-0.689	8.268
78929.596	NaN	-3.315	1.196	9.380	1504.762	1503.297	1510.623	1.023	0.397	-5.511	-6.048	-0.689	8.191
78930.573	NaN	-3.326	1.185	9.380	1504.762	1503.297	1509.890	1.038	0.412	-5.527	-6.048	-0.689	8.268
78931.549	NaN	-3.326	1.196	9.370	1504.762	1505.495	1509.158	0.870	0.382	-5.435	-5.971	-0.689	8.268
78932.526	NaN	-3.326	1.185	9.380	1504.762	1502.564	1509.890	0.748	0.412	-5.359	-5.895	-0.689	8.268
78933.502	NaN	-3.315	1.185	9.380	1504.762	1504.762	1509.158	0.840	0.458	-5.374	-6.124	-0.842	8.191
78934.479	NaN	-3.315	1.185	9.380	1504.029	1503.297	1509.890	0.977	0.504	-5.282	-5.971	-0.689	8.344
78935.455	NaN	-3.326	1.196	9.380	1504.029	1504.029	1509.890	1.038	0.382	-5.405	-5.895	-0.689	8.421
78936.432	NaN	-3.304	1.217	9.380	1504.762	1504.762	1510.623	0.931	0.168	-5.267	-5.971	-0.689	8.191
78937.408	NaN	-3.304	1.207	9.370	1505.495	1503.297	1511.355	0.916	0.229	-5.115	-5.971	-0.536	8.421
78938.385	NaN	-3.315	1.207	9.370	1504.762	1504.762	1509.890	1.038	0.366	-5.344	-5.971	-0.689	8.344
78939.362	NaN	-3.326	1.207	9.370	1504.762	1503.297	1510.623	1.145	0.366	-5.634	-5.971	-0.689	8.268
78940.338	NaN	-3.326	1.207	9.370	1505.495	1504.762	1511.355	1.191	0.351	-5.817	-5.971	-0.689	8.421
78941.315	NaN	-3.315	1.207	9.370	1505.495	1504.029	1510.623	1.023	0.489	-5.634	-5.971	-0.536	8.344
78942.291	NaN	-3.326	1.207	9.370	1505.495	1504.029	1510.623	0.840	0.534	-5.542	-5.895	-0.536	8.268
78943.268	NaN	-3.315	1.207	9.370	1506.227	1503.297	1509.890	0.580	0.351	-5.450	-5.971	-0.612	8.344
78944.244	NaN	-3.326	1.185	9.370	1505.495	1503.297	1509.890	0.916	0.214	-5.756	-5.971	-0.689	8.115
78945.221	NaN	-3.326	1.196	9.359	1505.495	1504.029	1510.623	1.130	0.214	-5.664	-5.971	-0.766	8.115
78946.198	NaN	-3.326	1.185	9.359	1504.762	1504.029	1511.355	0.977	0.260	-5.374	-5.971	-0.689	8.268
78947.174	NaN	-3.326	1.185	9.359	1503.297	1503.297	1510.623	0.870	0.351	-5.389	-6.048	-0.612	8.344
78948.151	NaN	-3.326	1.185	9.359	1504.029	1505.495	1511.355	0.992	0.351	-5.511	-6.048	-0.612	8.115
78949.127	NaN	-3.315	1.185	9.348	1506.227	1504.762	1509.158	0.855	0.305	-5.557	-6.048	-0.766	8.344
78950.104	NaN	-3.315	1.185	9.359	1505.495	1504.029	1512.088	0.595	0.275	-5.573	-5.971	-0.689	8.191
78951.080	NaN	-3.326	1.207	9.348	1504.762	1504.762	1510.623	0.748	0.397	-5.496	-6.048	-0.689	8.344
78952.057	NaN	-3.326	1.207	9.348	1505.495	1502.564	1510.623	0.931	0.412	-5.450	-6.048	-0.612	8.344
78953.033	NaN	-3.326	1.207	9.348	1504.029	1504.762	1511.355	1.084	0.519	-5.359	-5.895	-0.689	8.268
78954.010	NaN	-3.315	1.207	9.359	1505.495	1504.029	1511.355	1.328	0.550	-5.511	-6.048	-0.612	8.191
78954.987	NaN	-3.315	1.196	9.359	1505.495	1504.029	1509.890	1.115	0.305	-5.527	-5.971	-0.612	8.344
78955.963	NaN	-3.326	1.185	9.359	1504.029	1504.762	1509.890	0.748	0.336	-5.527	-6.124	-0.689	8.191
78956.940	NaN	-3.315	1.185	9.348	1504.762	1504.029	1510.623	0.672	0.382	-5.389	-5.895	-0.612	8.191
78957.916	NaN	-3.315	1.185	9.348	1505.495	1504.029	1509.890	0.840	0.351	-5.389	-5.895	-0.612	8.344
78958.893	NaN	-3.304	1.196	9.348	1505.495	1505.495	1510.623	0.916	0.321	-5.466	-5.971	-0.612	8.191
78961.823	NaN	-3.293	1.185	9.337	1504.029	1503.297	1509.158	0.855	0.275	-5.527	-5.971	-0.612	8.268
78962.799	NaN	-3.283	1.185	9.337	1505.495	1504.029	1509.890	0.794	0.214	-5.389	-6.048	-0.689	8.268
78963.776	NaN	-3.283	1.185	9.337	1504.029	1504.029	1511.355	0.992	0.458	-5.527	-5.971	-0.766	8.268
78964.752	NaN	-3.283	1.185	9.326	1504.762	1504.029	1510.623	0.992	0.519	-5.710	-5.971	-0.689	8.191
78965.729	NaN	-3.283	1.163	9.315	1505.495	1504.029	1510.623	0.992	0.366	-5.679	-6.124	-0.766	8.344
78966.705	NaN	-3.283	1.174	9.304	1504.762	1503.297	1510.623	0.763	0.198	-5.450	-5.971	-0.689	8.344
78967.682	NaN	-3.272	1.163	9.315	1504.762	1503.297	1509.890	0.641	0.061	-5.313	-6.124	-0.689	8.268
78968.658	NaN	-3.283	1.185	9.326	1505.495	1504.029	1510.623	0.641	0.183	-5.374	-6.048	-0.766	8.115
78969.635	NaN	-3.272	1.174	9.326	1504.029	1504.029	1509.158	1.023	0.351	-5.588	-6.048	-0.689	8.344
78970.612	NaN	-3.261	1.163	9.337	1505.495	1504.029	1510.623	1.053	0.351	-5.573	-6.048	-0.612	8.344
78971.588	NaN	-3.283	1.163	9.337	1506.227	1503.297	1511.355	0.794	0.397	-5.588	-6.048	-0.766	8.344
78972.565	NaN	-3.272	1.163	9.337	1504.762	1504.762	1509.890	0.687	0.382	-5.664	-5.971	-0.689	8.191
78973.541	NaN	-3.283	1.163	9.337	1504.029	1503.297	1509.890	0.855	0.260	-5.511	-5.895	-0.612	8.268
78974.518	NaN	-3.293	1.163	9.326	1505.495	1504.029	1509.890	1.191	0.183	-5.450	-6.124	-0.689	8.268
78975.494	NaN	-3.283	1.163	9.326	1504.762	1503.297	1510.623	1.038	0.214	-5.328	-6.048	-0.689	8.115
78976.471	NaN	-3.261	1.185	9.315	1506.960	1503.297	1510.623	0.748	0.397	-5.542	-5.895	-0.612	8.268
78977.448	NaN	-3.272	1.185	9.315	1504.029	1504.029	1509.890	0.687	0.305	-5.573	-5.895	-0.612	8.268
78978.424	NaN	-3.283	1.185	9.326	1504.762	1503.297	1509.890	0.840	0.229	-5.740	-6.048	-0.842	8.191
78979.401	NaN	-3.272	1.185	9.315	1505.495	1504.029	1509.890	1.084	0.198	-5.588	-5.971	-0.612	8.115
78980.377	NaN	-3.293	1.196	9.304	1504.762	1504.029	1509.890	0.992	0.076	-5.374	-6.048	-0.689	8.115
78981.354	NaN	-3.293	1.185	9.315	1505.495	1504.762	1512.088	0.931	0.183	-5.389	-6.048	-0.842	8.038
78982.330	NaN	-3.293	1.185	9.315	1505.495	1504.029	1509.890	1.099	0.183	-5.603	-6.048	-0.612	8.268
78983.307	NaN	-3.304	1.185	9.315	1505.495	1502.564	1510.623	1.038	0.168	-5.634	-5.971	-0.612	8.038
78984.283	NaN	-3.315	1.174	9.315	1505.495	1504.029	1509.158	0.809	0.290	-5.298	-5.895	-0.689	8.191
78985.260	NaN	-3.293	1.185	9.315	1506.227	1504.762	1510.623	0.672	0.336	-5.282	-6.048	-0.689	8.191
78986.237	NaN	-3.283	1.196	9.326	1504.762	1504.029	1511.355	0.901	0.290	-5.313	-5.971	-0.689	8.344
78987.213	NaN	-3.283	1.207	9.326	1504.762	1504.029	1509.890	1.069	0.275	-5.481	-6.048	-0.612	8.268
78988.190	NaN	-3.293	1.196	9.326	1505.495	1504.762	1509.890	1.160	0.046	-5.435	-6.124	-0.689	8.115
78989.166	NaN	-3.315	1.185	9.304	1506.227	1503.297	1509.158	1.084	0.046	-5.466	-6.048	-0.766	8.268
78990.143	NaN	-3.293	1.185	9.315	1505.495	1504.762	1510.623	1.008	0.214	-5.313	-5.971	-0.612	8.191
78991.119	NaN	-3.283	1.185	9.315	1505.495	1504.029	1509.158	1.084	0.382	-5.176	-6.048	-0.536	8.115
78992.096	NaN	-3.293	1.185	9.315	1505.495	1504.029	1509.158	0.992	0.244	-5.313	-5.971	-0.612	8.115
78993.073	NaN	-3.293	1.174	9.304	1505.495	1504.762	1509.890	1.115	0.031	-5.466	-5.895	-0.689	8.421
78994.049	NaN	-3.293	1.185	9.304	1504.762	1504.762	1509.158	1.084	-0.046	-5.695	-5.971	-0.689	8.344
78995.026	NaN	-3.293	1.174	9.304	1506.227	1504.029	1510.623	1.145	-0.031	-5.679	-5.971	-0.612	8.268
78996.002	NaN	-3.293	1.185	9.304	1506.227	1504.029	1511.355	1.206	0.092	-5.313	-5.971	-0.689	8.344
78996.979	NaN	-3.283	1.185	9.315	1505.495	1504.029	1510.623	1.282	0.168	-5.389	-6.048	-0.612	8.268
78997.955	NaN	-3.283	1.185	9.304	1504.762	1504.029	1511.355	1.221	0.168	-5.435	-5.971	-0.536	8.268
78998.932	NaN	-3.272	1.185	9.315	1505.495	1504.029	1510.623	0.977	0.061	-5.328	-5.818	-0.689	8.191
78999.908	NaN	-3.283	1.185	9.326	1505.495	1504.029	1510.623	1.115	0.183	-5.237	-5.895	-0.689	8.191
79000.885	NaN	-3.293	1.174	9.348	1504.762	1504.029	1510.623	1.389	0.183	-5.313	-5.971	-0.612	8.191
79001.862	NaN	-3.293	1.174	9.348	1504.029	1503.297	1508.425	1.466	0.015	-5.450	-5.971	-0.766	8.191
79002.838	NaN	-3.283	1.174	9.337	1505.495	1504.029	1509.158	1.481	-0.122	-5.496	-5.971	-0.689	8.191
79003.815	NaN	-3.293	1.174	9.348	1504.029	1503.297	1508.425	1.450	-0.229	-5.420	-6.124	-0.612	8.268
79004.791	NaN	-3.293	1.174	9.337	1504.029	1503.297	1509.890	1.237	-0.122	-5.344	-5.971	-0.689	8.191
79005.768	NaN	-3.283	1.185	9.326	1504.762	1504.029	1509.890	1.160	-0.076	-5.374	-5.895	-0.689	8.191
79006.744	NaN	-3.293	1.174	9.315	1504.029	1502.564	1508.425	1.160	0.076	-5.466	-5.971	-0.612	8.268
79007.721	NaN	-3.293	1.174	9.337	1504.762	1503.297	1509.890	1.115	0.031	-5.450	-6.048	-0.919	8.268
79008.698	NaN	-3.293	1.174	9.337	1504.762	1503.297	1508.425	1.206	0.046	-5.328	-5.895	-0.612	8.191
79009.674	NaN	-3.293	1.185	9.348	1503.297	1504.029	1509.158	1.466	0.015	-5.313	-6.124	-0.689	8.268
79010.651	NaN	-3.304	1.174	9.337	1504.762	1504.762	1509.890	1.435	-0.015	-5.420	-6.048	-0.689	8.421
79011.627	NaN	-3.304	1.163	9.326	1505.495	1504.029	1509.890	1.374	-0.305	-5.496	-5.971	-0.689	8.268
79012.604	NaN	-3.293	1.174	9.326	1505.495	1501.832	1509.158	1.267	-0.214	-5.344	-6.048	-0.689	8.344
79013.580	NaN	-3.283	1.185	9.326	1504.762	1503.297	1509.158	1.267	-0.137	-5.359	-5.971	-0.689	8.191
79014.557	NaN	-3.283	1.185	9.326	1504.762	1504.029	1508.425	1.221	-0.046	-5.450	-6.048	-0.689	8.268
79015.533	NaN	-3.283	1.185	9.337	1504.762	1504.762	1509.158	1.328	0.031	-5.511	-6.048	-0.689	8.344
79016.510	NaN	-3.293	1.185	9.337	1504.029	1504.029	1509.158	1.237	-0.107	-5.588	-5.971	-0.689	8.344
79017.487	NaN	-3.293	1.185	9.337	1505.495	1504.029	1509.158	1.298	-0.229	-5.450	-6.048	-0.612	8.268
79018.463	NaN	-3.304	1.174	9.348	1504.029	1503.297	1510.623	1.420	-0.275	-5.450	-6.048	-0.766	8.268
79019.440	NaN	-3.315	1.174	9.348	1504.762	1502.564	1509.890	1.389	-0.305	-5.450	-6.048	-0.766	8.344
79020.416	NaN	-3.304	1.174	9.348	1505.495	1503.297	1511.355	1.450	-0.122	-5.267	-5.971	-0.689	8.115
79021.393	NaN	-3.304	1.185	9.348	1504.762	1503.297	1509.158	1.420	0.000	-5.542	-6.048	-0.689	8.344
79022.369	NaN	-3.283	1.185	9.370	1504.762	1503.297	1510.623	1.420	-0.092	-5.756	-5.971	-0.612	8.115
79023.346	NaN	-3.304	1.185	9.359	1505.495	1504.029	1511.355	1.359	-0.244	-5.588	-6.048	-0.612	8.268
79024.323	NaN	-3.315	1.174	9.348	1505.495	1503.297	1509.890	1.420	-0.321	-5.420	-5.971	-0.689	8.268
79025.299	NaN	-3.304	1.185	9.337	1504.762	1504.029	1511.355	1.420	-0.122	-5.466	-6.048	-0.766	8.191
79026.276	NaN	-3.304	1.185	9.348	1504.762	1504.762	1511.355	1.206	0.015	-5.618	-6.048	-0.689	8.268
79027.252	NaN	-3.293	1.196	9.337	1505.495	1504.029	1509.890	1.176	0.046	-5.374	-6.124	-0.766	8.344
79028.229	NaN	-3.293	1.185	9.348	1505.495	1504.029	1509.158	1.344	0.076	-5.267	-5.971	-0.766	8.344
79029.205	NaN	-3.304	1.196	9.348	1505.495	1504.029	1510.623	1.405	-0.031	-5.344	-6.124	-0.689	8.344
79030.182	NaN	-3.293	1.196	9.348	1505.495	1504.029	1510.623	1.374	-0.076	-5.481	-6.048	-0.689	8.268
79031.158	NaN	-3.315	1.185	9.348	1504.762	1503.297	1508.425	1.298	-0.015	-5.511	-6.124	-0.766	8.268
79032.135	NaN	-3.304	1.207	9.348	1504.762	1503.297	1509.158	1.374	-0.153	-5.466	-5.895	-0.689	8.191
79033.112	NaN	-3.315	1.207	9.348	1505.495	1503.297	1507.692	1.420	-0.031	-5.344	-5.971	-0.689	8.268
79034.088	NaN	-3.315	1.207	9.359	1504.762	1502.564	1508.425	1.496	0.122	-5.374	-5.895	-0.689	8.268
79035.065	NaN	-3.315	1.207	9.359	1504.762	1504.029	1510.623	1.328	0.122	-5.466	-5.971	-0.612	8.344
79036.041	NaN	-3.315	1.196	9.348	1505.495	1504.029	1510.623	1.084	-0.061	-5.466	-5.895	-0.689	8.344
79037.018	NaN	-3.326	1.185	9.359	1504.029	1502.564	1508.425	1.069	-0.229	-5.282	-5.971	-0.842	8.268
79037.994	NaN	-3.304	1.185	9.359	1505.495	1503.297	1509.890	1.450	-0.092	-5.389	-5.971	-0.536	8.191
79038.971	NaN	-3.304	1.185	9.370	1503.297	1504.029	1509.890	1.542	0.107	-5.466	-5.971	-0.612	8.268
79039.948	NaN	-3.304	1.185	9.370	1504.762	1503.297	1509.158	1.374	0.107	-5.573	-5.895	-0.766	8.421
79040.924	NaN	-3.304	1.196	9.380	1504.762	1504.762	1509.890	1.282	-0.015	-5.573	-5.895	-0.766	8.191
79041.901	NaN	-3.304	1.207	9.380	1504.762	1502.564	1508.425	1.328	-0.061	-5.573	-5.971	-0.612	8.268
79042.877	NaN	-3.315	1.185	9.370	1505.495	1504.029	1509.890	1.206	0.031	-5.542	-5.895	-0.766	8.344
79043.854	NaN	-3.304	1.185	9.370	1505.495	1504.762	1511.355	1.023	0.153	-5.756	-5.895	-0.766	8.268
79044.830	NaN	-3.304	1.185	9.370	1504.762	1503.297	1509.890	1.145	0.137	-5.634	-5.895	-0.689	8.268
79045.807	NaN	-3.293	1.185	9.370	1504.762	1504.029	1510.623	1.359	0.122	-5.328	-6.124	-0.689	8.344
79046.783	NaN	-3.293	1.185	9.370	1506.227	1503.297	1509.158	1.221	0.229	-5.176	-6.048	-0.689	8.268
79047.760	NaN	-3.304	1.185	9.370	1504.762	1504.029	1508.425	1.084	0.260	-5.237	-5.971	-0.689	8.115
79048.737	NaN	-3.293	1.196	9.370	1505.495	1504.029	1509.890	1.328	0.153	-5.481	-5.971	-0.612	8.421
79049.713	NaN	-3.304	1.185	9.359	1504.762	1504.029	1509.158	1.267	0.183	-5.557	-5.971	-0.766	8.191
79050.690	NaN	-3.293	1.185	9.359	1504.762	1503.297	1508.425	1.084	0.214	-5.573	-6.048	-0.766	8.344
79051.666	NaN	-3.304	1.174	9.348	1506.227	1503.297	1509.890	1.221	0.046	-5.466	-5.971	-0.766	8.191
79052.643	NaN	-3.304	1.163	9.359	1504.762	1503.297	1509.158	1.344	-0.031	-5.282	-5.971	-0.766	8.268
79053.619	NaN	-3.293	1.185	9.370	1506.227	1503.297	1510.623	1.374	0.183	-5.359	-6.048	-0.689	8.191
79054.596	NaN	-3.293	1.185	9.370	1504.029	1503.297	1510.623	1.221	0.290	-5.466	-5.971	-0.689	8.191
79055.573	NaN	-3.304	1.174	9.370	1504.762	1503.297	1510.623	1.374	0.198	-5.542	-5.895	-0.689	8.268
79056.549	NaN	-3.283	1.185	9.370	1506.227	1504.029	1509.890	1.267	0.031	-5.511	-6.048	-0.766	8.421
79057.526	NaN	-3.272	1.174	9.370	1505.495	1503.297	1510.623	1.344	0.031	-5.649	-5.971	-0.842	8.191
79058.502	NaN	-3.272	1.185	9.370	1505.495	1503.297	1509.890	1.359	0.275	-5.496	-5.895	-0.766	8.268
79059.479	NaN	-3.272	1.185	9.359	1504.762	1503.297	1511.355	1.115	0.275	-5.466	-6.048	-0.842	8.421
79060.455	NaN	-3.283	1.174	9.359	1504.762	1504.029	1508.425	0.992	0.122	-5.466	-6.048	-0.842	8.344
79061.432	NaN	-3.293	1.207	9.359	1505.495	1504.762	1511.355	1.282	0.275	-5.481	-6.048	-0.766	8.268
79062.408	NaN	-3.283	1.196	9.359	1505.495	1504.762	1510.623	1.191	0.198	-5.359	-6.124	-0.689	8.268
79063.385	NaN	-3.283	1.207	9.348	1505.495	1504.762	1509.158	0.840	0.229	-5.313	-6.124	-0.689	8.268
79064.362	NaN	-3.293	1.196	9.348	1506.227	1503.297	1509.158	0.947	0.198	-5.328	-5.971	-0.612	8.421
79065.338	NaN	-3.304	1.196	9.337	1505.495	1504.762	1509.158	1.252	0.153	-5.450	-6.048	-0.612	8.268
79066.315	NaN	-3.293	1.196	9.348	1505.495	1504.029	1509.890	1.435	0.290	-5.328	-6.048	-0.766	8.268
79067.291	NaN	-3.283	1.185	9.359	1504.762	1504.029	1510.623	1.450	0.260	-5.298	-6.048	-0.536	8.115
79068.268	NaN	-3.283	1.185	9.370	1507.692	1503.297	1509.158	1.282	0.046	-5.282	-5.818	-0.689	8.115
79069.244	NaN	-3.283	1.174	9.348	1506.227	1503.297	1510.623	1.038	0.260	-5.374	-6.048	-0.766	8.191
79070.221	NaN	-3.272	1.196	9.337	1506.227	1504.762	1510.623	1.069	0.229	-5.496	-6.048	-0.689	8.191
79071.198	NaN	-3.272	1.185	9.348	1506.227	1504.762	1509.158	1.405	0.183	-5.344	-6.048	-0.842	8.268
79072.174	NaN	-3.272	1.185	9.337	1505.495	1504.029	1509.890	1.435	0.153	-5.282	-6.048	-0.689	8.498
79073.151	NaN	-3.272	1.163	9.337	1504.029	1503.297	1509.890	1.420	0.168	-5.405	-5.971	-0.689	8.191
79074.127	NaN	-3.283	1.163	9.337	1504.762	1502.564	1507.692	1.313	0.290	-5.557	-5.895	-0.689	8.115
79075.104	NaN	-3.272	1.174	9.348	1505.495	1503.297	1511.355	1.435	0.260	-5.405	-6.048	-0.689	8.115
79076.080	NaN	-3.283	1.174	9.337	1506.227	1503.297	1510.623	1.267	0.198	-5.160	-5.971	-0.612	8.268
79077.057	NaN	-3.272	1.174	9.337	1505.495	1503.297	1510.623	1.130	0.275	-5.389	-5.895	-0.766	8.268
79078.033	NaN	-3.283	1.174	9.326	1504.762	1503.297	1508.425	1.252	0.275	-5.481	-6.048	-0.689	8.268
79079.010	NaN	-3.272	1.174	9.326	1505.495	1504.762	1509.890	1.374	0.351	-5.435	-6.048	-0.612	8.191
79079.987	NaN	-3.272	1.185	9.326	1506.227	1504.029	1509.158	1.267	0.412	-5.405	-5.895	-0.766	8.191
79080.963	NaN	-3.272	1.185	9.326	1505.495	1504.029	1509.158	1.160	0.305	-5.191	-6.048	-0.689	8.421
79081.940	NaN	-3.272	1.185	9.326	1505.495	1504.029	1510.623	1.206	0.031	-5.313	-5.971	-0.689	8.191
79082.916	NaN	-3.283	1.174	9.326	1505.495	1504.762	1509.158	1.069	0.061	-5.481	-5.895	-0.689	8.191
79083.893	NaN	-3.272	1.185	9.326	1505.495	1504.029	1510.623	0.992	0.229	-5.282	-5.895	-0.766	8.115
79084.869	NaN	-3.272	1.174	9.326	1505.495	1504.029	1509.890	0.977	0.122	-5.191	-6.124	-0.689	8.344
79085.846	NaN	-3.283	1.174	9.315	1506.227	1503.297	1510.623	1.298	0.183	-5.466	-5.971	-0.612	8.344
79086.823	NaN	-3.283	1.174	9.304	1504.762	1504.029	1510.623	1.328	0.275	-5.527	-5.895	-0.612	8.268
79087.799	NaN	-3.272	1.174	9.304	1506.227	1504.762	1509.890	1.313	0.443	-5.435	-5.818	-0.689	8.268
79088.776	NaN	-3.272	1.163	9.304	1504.029	1504.029	1508.425	1.298	0.351	-5.084	-6.048	-0.766	8.191
79089.752	NaN	-3.283	1.174	9.304	1504.029	1503.297	1508.425	1.481	0.168	-4.977	-5.971	-0.689	8.344
79090.729	NaN	-3.272	1.185	9.304	1505.495	1504.029	1509.158	1.588	0.122	-5.145	-5.818	-0.536	8.191
79091.705	NaN	-3.283	1.174	9.315	1504.762	1502.564	1509.890	1.557	0.336	-5.389	-5.971	-0.689	8.268
79092.682	NaN	-3.272	1.185	9.304	1505.495	1504.762	1509.890	1.389	0.382	-5.298	-6.048	-0.766	8.115
79093.658	NaN	-3.283	1.185	9.304	1504.029	1504.029	1508.425	1.557	0.290	-5.374	-6.048	-0.612	8.191
79094.635	NaN	-3.272	1.174	9.304	1504.029	1503.297	1509.890	1.664	0.122	-5.206	-5.971	-0.766	8.191
79095.612	NaN	-3.272	1.185	9.304	1504.029	1503.297	1509.890	1.405	0.061	-5.282	-5.971	-0.689	8.268
79096.588	NaN	-3.261	1.185	9.304	1504.762	1504.029	1510.623	1.420	0.061	-5.298	-5.895	-0.689	8.268
79097.565	NaN	-3.272	1.174	9.304	1504.762	1503.297	1509.890	1.374	0.153	-5.084	-6.048	-0.612	8.191
79098.541	NaN	-3.250	1.185	9.304	1504.762	1503.297	1510.623	1.435	0.198	-5.282	-5.895	-0.689	8.191
79099.518	NaN	-3.261	1.174	9.293	1505.495	1504.029	1509.890	1.695	0.351	-5.344	-5.818	-0.689	8.268
79100.494	NaN	-3.272	1.163	9.304	1504.029	1502.564	1509.158	1.695	0.305	-5.344	-5.971	-0.842	8.268
79101.471	NaN	-3.250	1.185	9.315	1505.495	1504.762	1511.355	1.573	0.260	-5.145	-5.971	-0.689	8.268
79102.448	NaN	-3.239	1.174	9.326	1504.762	1504.762	1510.623	1.542	0.275	-5.115	-5.971	-0.689	8.344
79103.424	NaN	-3.250	1.174	9.326	1504.762	1504.029	1509.158	1.313	0.351	-5.069	-5.971	-0.842	8.191
79104.401	NaN	-3.250	1.163	9.326	1504.029	1503.297	1509.158	1.435	0.290	-5.099	-5.895	-0.766	8.344
79105.377	NaN	-3.261	1.163	9.315	1504.762	1504.762	1509.890	1.573	0.260	-5.237	-6.048	-0.689	8.115
79106.354	NaN	-3.272	1.163	9.315	1504.029	1504.029	1510.623	1.664	0.412	-5.328	-5.818	-0.689	8.344
79107.330	NaN	-3.261	1.185	9.326	1504.762	1504.029	1509.890	1.496	0.412	-5.176	-5.818	-0.842	8.191
79108.307	NaN	-3.261	1.174	9.326	1505.495	1503.297	1512.088	1.542	0.504	-5.099	-5.971	-0.689	8.191
79109.283	NaN	-3.272	1.185	9.315	1504.762	1504.029	1510.623	1.588	0.366	-5.206	-5.971	-0.689	8.344
79110.260	NaN	-3.272	1.185	9.304	1505.495	1504.762	1510.623	1.618	0.214	-5.221	-5.895	-0.689	8.115
79111.237	NaN	-3.272	1.185	9.326	1505.495	1503.297	1509.158	1.756	0.229	-5.099	-5.971	-0.766	8.268
79112.213	NaN	-3.272	1.185	9.315	1504.029	1503.297	1509.158	1.939	0.336	-4.992	-5.971	-0.689	8.344
79113.190	NaN	-3.272	1.185	9.315	1506.227	1503.297	1509.890	1.664	0.260	-5.115	-5.971	-0.689	8.191
79114.166	NaN	-3.283	1.185	9.304	1505.495	1504.029	1509.158	1.618	0.107	-5.237	-5.971	-0.689	8.268
79115.143	NaN	-3.261	1.196	9.304	1504.762	1504.029	1509.890	1.679	0.061	-5.267	-6.048	-0.766	8.268
79116.119	NaN	-3.283	1.185	9.293	1504.762	1503.297	1509.890	1.740	0.076	-5.344	-5.895	-0.689	8.268
79117.096	NaN	-3.272	1.185	9.293	1504.762	1502.564	1508.425	1.664	0.153	-5.344	-6.048	-0.689	8.191
79118.073	NaN	-3.272	1.174	9.304	1504.762	1503.297	1510.623	1.725	0.290	-5.130	-5.971	-0.612	8.268
79119.049	NaN	-3.272	1.185	9.315	1506.227	1504.762	1509.890	2.046	0.351	-5.130	-5.971	-0.689	8.344
79120.026	NaN	-3.293	1.174	9.304	1504.762	1504.029	1510.623	1.924	0.137	-5.374	-6.048	-0.689	8.344
79121.002	NaN	-3.272	1.196	9.315	1504.762	1504.029	1507.692	1.725	0.168	-5.496	-5.971	-0.689	8.421
79121.979	NaN	-3.283	1.207	9.315	1504.029	1503.297	1510.623	1.695	0.198	-5.328	-5.971	-0.689	8.191
79122.955	NaN	-3.283	1.185	9.315	1506.227	1503.297	1508.425	1.725	0.214	-5.130	-5.895	-0.689	8.421
79123.932	NaN	-3.283	1.185	9.326	1504.762	1504.029	1510.623	1.756	0.351	-5.359	-6.048	-0.612	8.268
79124.908	NaN	-3.283	1.174	9.337	1504.762	1503.297	1510.623	1.954	0.244	-5.389	-6.048	-0.536	8.421
79125.885	NaN	-3.272	1.174	9.337	1506.227	1504.029	1510.623	2.092	0.198	-5.298	-5.895	-0.689	8.038
79126.862	NaN	-3.283	1.174	9.348	1504.762	1503.297	1509.890	1.847	0.275	-5.206	-6.124	-0.766	8.191
79127.838	NaN	-3.293	1.163	9.348	1505.495	1502.564	1508.425	1.756	0.382	-5.191	-5.895	-0.612	8.268
79128.815	NaN	-3.293	1.185	9.359	1505.495	1504.029	1509.890	1.679	0.443	-5.221	-5.971	-0.842	8.268
79129.791	NaN	-3.304	1.174	9.348	1505.495	1503.297	1510.623	1.664	0.366	-5.069	-5.971	-0.689	8.115
79130.768	NaN	-3.304	1.185	9.359	1504.762	1503.297	1509.890	1.863	0.198	-5.038	-5.971	-0.766	8.344
79131.744	NaN	-3.293	1.196	9.348	1504.762	1503.297	1510.623	1.878	0.336	-5.115	-5.971	-0.766	8.268
79132.721	NaN	-3.293	1.207	9.348	1505.495	1503.297	1509.890	1.985	0.305	-5.145	-5.971	-0.689	8.268
79133.698	NaN	-3.293	1.185	9.348	1505.495	1503.297	1511.355	2.076	0.412	-5.176	-5.971	-0.766	8.191
79134.674	NaN	-3.283	1.185	9.348	1506.227	1503.297	1511.355	1.969	0.351	-5.420	-5.895	-0.612	8.268
79135.651	NaN	-3.283	1.174	9.348	1504.762	1503.297	1509.158	1.832	0.412	-5.405	-5.895	-0.612	8.498
79136.627	NaN	-3.293	1.185	9.348	1506.227	1504.029	1509.890	1.863	0.214	-5.221	-5.971	-0.689	8.268
79137.604	NaN	-3.293	1.185	9.348	1505.495	1504.029	1509.890	1.786	0.214	-5.176	-6.048	-0.689	8.268
79138.580	NaN	-3.283	1.207	9.348	1505.495	1504.029	1509.890	1.786	0.397	-5.420	-5.895	-0.689	8.115
79139.557	NaN	-3.293	1.196	9.359	1504.029	1504.762	1509.890	1.740	0.412	-5.282	-6.048	-0.766	8.344
79140.533	NaN	-3.304	1.185	9.370	1504.029	1504.029	1510.623	1.725	0.458	-5.221	-6.048	-0.689	8.344
79141.510	NaN	-3.293	1.196	9.359	1506.227	1504.029	1511.355	1.725	0.427	-5.298	-5.818	-0.689	8.344
79142.487	NaN	-3.293	1.185	9.370	1505.495	1504.029	1510.623	1.725	0.473	-5.282	-6.048	-0.689	8.191
79143.463	NaN	-3.293	1.185	9.359	1505.495	1504.029	1510.623	1.832	0.443	-5.313	-5.895	-0.766	8.191
79144.440	NaN	-3.304	1.185	9.370	1506.227	1504.029	1509.890	1.679	0.229	-5.313	-6.124	-0.766	8.268
79145.416	NaN	-3.304	1.185	9.370	1504.762	1502.564	1508.425	1.435	0.305	-5.267	-5.971	-0.689	8.268
79146.393	NaN	-3.315	1.185	9.370	1502.564	1502.564	1509.158	1.756	0.473	-5.145	-6.048	-0.612	8.268
79147.369	NaN	-3.315	1.196	9.359	1504.762	1503.297	1509.890	1.802	0.550	-5.282	-5.971	-0.689	8.268
79148.346	NaN	-3.315	1.196	9.359	1504.762	1504.029	1509.890	1.954	0.504	-5.374	-6.048	-0.766	8.191
79149.323	NaN	-3.326	1.185	9.359	1505.495	1502.564	1509.158	2.046	0.504	-5.405	-5.971	-0.766	8.115
79150.299	NaN	-3.315	1.196	9.359	1505.495	1504.029	1510.623	1.847	0.473	-5.481	-5.895	-0.612	8.268
79151.276	NaN	-3.304	1.185	9.359	1505.495	1504.029	1511.355	1.634	0.489	-5.557	-6.124	-0.689	8.191
79152.252	NaN	-3.304	1.174	9.359	1505.495	1504.029	1510.623	1.725	0.595	-5.389	-6.048	-0.612	8.344
79153.229	NaN	-3.304	1.174	9.359	1503.297	1503.297	1509.890	1.786	0.733	-5.374	-5.971	-0.612	8.115
79154.205	NaN	-3.304	1.174	9.359	1504.762	1504.029	1509.890	1.679	0.504	-5.420	-6.048	-0.612	8.191
79155.182	NaN	-3.293	1.174	9.370	1504.762	1504.029	1510.623	1.664	0.473	-5.313	-5.971	-0.612	8.191
79156.158	NaN	-3.293	1.174	9.370	1505.495	1503.297	1509.158	1.710	0.504	-5.176	-5.818	-0.689	8.268
79157.135	NaN	-3.283	1.185	9.380	1505.495	1503.297	1509.158	1.664	0.504	-5.221	-5.971	-0.689	8.268
79158.112	NaN	-3.304	1.185	9.370	1505.495	1504.029	1510.623	1.588	0.626	-5.191	-5.971	-0.689	8.268
79159.088	NaN	-3.315	1.185	9.370	1505.495	1504.762	1510.623	1.679	0.550	-5.206	-6.048	-0.689	8.344
79160.065	NaN	-3.315	1.185	9.370	1506.227	1504.029	1509.890	1.664	0.672	-5.298	-5.971	-0.612	8.268
79161.041	NaN	-3.315	1.185	9.380	1505.495	1503.297	1509.158	1.557	0.733	-5.344	-6.048	-0.612	8.344
79162.018	NaN	-3.315	1.174	9.370	1504.762	1504.029	1509.158	1.405	0.779	-5.389	-6.048	-0.766	8.268
79162.994	NaN	-3.315	1.174	9.359	1505.495	1503.297	1511.355	1.435	0.687	-5.496	-5.895	-0.689	8.191
79163.971	NaN	-3.283	1.185	9.370	1506.227	1504.029	1511.355	1.618	0.641	-5.725	-5.895	-0.766	8.344
79164.948	NaN	-3.272	1.185	9.359	1506.227	1504.029	1511.355	1.695	0.702	-5.496	-5.895	-0.612	8.344
79165.924	NaN	-3.283	1.196	9.359	1505.495	1504.762	1510.623	1.420	0.702	-5.160	-5.895	-0.612	8.268
79166.901	3736848012.955	-3.293	1.185	9.359	1503.297	1504.029	1509.158	1.374	0.733	-4.977	-5.895	-0.766	8.268
79167.877	NaN	-3.304	1.196	9.359	1505.495	1504.762	1509.890	1.450	0.656	-5.008	-5.971	-0.766	8.191
79168.854	NaN	-3.304	1.196	9.359	1504.762	1504.762	1510.623	1.832	0.656	-5.344	-5.971	-0.612	8.268
79169.830	NaN	-3.315	1.196	9.370	1506.227	1504.029	1509.890	1.786	0.626	-5.466	-5.971	-0.766	8.344
79170.807	NaN	-3.315	1.185	9.359	1504.762	1504.762	1509.890	1.649	0.702	-5.237	-5.895	-0.459	8.191
79171.783	NaN	-3.315	1.196	9.348	1504.762	1503.297	1509.158	1.420	0.702	-5.282	-5.818	-0.689	8.344
79172.760	NaN	-3.304	1.196	9.348	1504.029	1504.029	1509.890	1.359	0.763	-5.618	-5.971	-0.612	8.115
79173.737	NaN	-3.293	1.207	9.348	1505.495	1504.029	1510.623	1.573	0.733	-5.618	-5.971	-0.612	8.344
79174.713	NaN	-3.293	1.196	9.337	1505.495	1503.297	1510.623	1.740	0.702	-5.527	-5.895	-0.689	8.115
79175.690	NaN	-3.293	1.196	9.348	1506.227	1504.029	1509.890	1.603	0.794	-5.481	-6.048	-0.536	8.191
79176.666	NaN	-3.293	1.196	9.337	1504.762	1503.297	1509.158	1.466	0.977	-5.389	-5.895	-0.612	8.191
79177.643	NaN	-3.283	1.196	9.348	1505.495	1503.297	1509.890	1.649	1.038	-5.389	-5.895	-0.689	8.191
79178.619	NaN	-3.283	1.185	9.337	1504.029	1503.297	1510.623	1.893	0.885	-5.405	-5.895	-0.612	8.191
79179.596	NaN	-3.293	1.185	9.348	1504.762	1503.297	1508.425	1.740	0.947	-5.252	-5.971	-0.612	8.268
79180.573	NaN	-3.293	1.185	9.348	1504.762	1503.297	1510.623	1.481	1.023	-5.374	-5.971	-0.689	8.268
79181.549	NaN	-3.283	1.185	9.348	1504.029	1503.297	1507.692	1.389	1.023	-5.298	-5.895	-0.689	8.268
79182.526	NaN	-3.272	1.207	9.359	1504.762	1502.564	1510.623	1.603	0.870	-5.206	-5.895	-0.766	8.268
79183.502	NaN	-3.283	1.185	9.348	1504.762	1504.029	1508.425	1.740	0.809	-5.282	-5.895	-0.766	8.191
79184.479	NaN	-3.283	1.185	9.359	1504.029	1503.297	1509.890	1.511	0.885	-5.374	-5.971	-0.689	8.268
79185.455	NaN	-3.293	1.174	9.359	1503.297	1504.762	1509.890	1.511	1.038	-5.359	-6.048	-0.766	8.268
79186.432	NaN	-3.293	1.174	9.359	1504.762	1503.297	1509.890	1.450	1.053	-5.328	-5.971	-0.612	8.191
79187.408	NaN	-3.283	1.185	9.359	1504.762	1504.029	1509.890	1.374	0.779	-5.527	-6.048	-0.689	8.268
79188.385	NaN	-3.304	1.185	9.337	1505.495	1504.029	1510.623	1.618	0.779	-5.511	-5.895	-0.766	8.268
79189.362	NaN	-3.293	1.185	9.337	1504.762	1503.297	1509.158	1.634	0.840	-5.298	-6.124	-0.766	8.191
79190.338	NaN	-3.293	1.196	9.337	1506.960	1503.297	1509.890	1.557	0.718	-5.267	-5.971	-0.689	8.344
79191.315	NaN	-3.272	1.196	9.337	1504.762	1504.762	1509.890	1.344	0.840	-5.435	-6.048	-0.766	8.268
79192.291	NaN	-3.272	1.196	9.326	1506.227	1504.029	1509.890	1.176	0.931	-5.542	-5.895	-0.689	8.115
79193.268	NaN	-3.272	1.196	9.315	1505.495	1504.762	1509.158	1.374	1.069	-5.466	-5.895	-0.612	8.344
79194.244	NaN	-3.293	1.185	9.304	1506.227	1503.297	1510.623	1.664	0.885	-5.298	-5.895	-0.689	8.421
79195.221	NaN	-3.283	1.185	9.304	1505.495	1503.297	1509.890	1.771	0.855	-5.191	-5.971	-0.689	8.191
79196.198	NaN	-3.261	1.185	9.315	1504.762	1504.029	1511.355	1.603	0.901	-5.237	-5.895	-0.689	8.191
79197.174	NaN	-3.261	1.185	9.315	1505.495	1504.029	1510.623	1.466	0.916	-5.374	-6.048	-0.612	8.268
79198.151	NaN	-3.261	1.185	9.326	1504.762	1504.762	1509.890	1.450	0.885	-5.313	-5.971	-0.766	8.421
79199.127	NaN	-3.272	1.185	9.326	1504.029	1504.762	1509.890	1.573	0.947	-5.359	-6.048	-0.689	8.191
79200.104	NaN	-3.272	1.185	9.326	1502.564	1504.029	1509.158	1.634	0.947	-5.435	-5.818	-0.689	8.421
79201.080	NaN	-3.272	1.196	9.326	1504.762	1504.762	1510.623	1.695	0.931	-5.466	-5.895	-0.612	8.268
79202.057	NaN	-3.272	1.185	9.326	1504.762	1504.029	1511.355	1.863	0.824	-5.450	-5.971	-0.766	8.344
79203.033	NaN	-3.293	1.185	9.326	1504.762	1504.029	1509.158	1.771	0.824	-5.450	-5.971	-0.689	8.421
79204.010	NaN	-3.283	1.196	9.326	1504.029	1505.495	1509.890	1.542	0.763	-5.405	-5.971	-0.689	8.191
79204.987	NaN	-3.283	1.196	9.337	1504.762	1504.029	1510.623	1.237	0.809	-5.450	-5.971	-0.612	8.268
79205.963	NaN	-3.272	1.196	9.326	1504.029	1504.762	1509.158	1.313	0.763	-5.221	-5.971	-0.689	8.268
79206.940	NaN	-3.272	1.196	9.326	1506.227	1504.029	1509.158	1.557	0.763	-5.160	-5.971	-0.766	8.268
79207.916	NaN	-3.272	1.185	9.315	1505.495	1504.029	1510.623	1.649	0.748	-5.282	-5.971	-0.766	8.268
79208.893	NaN	-3.272	1.185	9.326	1505.495	1504.029	1510.623	1.557	0.840	-5.344	-6.048	-0.536	8.268
79209.869	NaN	-3.272	1.174	9.315	1505.495	1503.297	1509.890	1.435	0.931	-5.359	-5.971	-0.766	8.344
79210.846	NaN	-3.272	1.174	9.315	1505.495	1504.762	1509.158	1.634	1.084	-5.252	-6.048	-0.766	8.268
79211.823	NaN	-3.272	1.174	9.304	1504.762	1504.029	1510.623	1.618	1.084	-5.176	-5.895	-0.536	8.191
79212.799	NaN	-3.261	1.185	9.293	1505.495	1504.762	1510.623	1.511	0.962	-5.221	-5.971	-0.612	8.115
79213.776	NaN	-3.261	1.174	9.293	1504.029	1504.029	1509.158	1.496	0.916	-5.267	-5.971	-0.612	8.268
79214.752	NaN	-3.261	1.185	9.304	1504.762	1503.297	1509.890	1.313	0.916	-5.359	-5.895	-0.612	8.268
79215.729	NaN	-3.261	1.185	9.315	1504.762	1504.029	1509.158	1.573	1.023	-5.527	-5.971	-0.689	8.191
79216.705	NaN	-3.272	1.185	9.315	1504.029	1502.564	1507.692	1.634	1.099	-5.450	-5.895	-0.689	8.191
79217.682	NaN	-3.261	1.185	9.315	1506.227	1504.762	1509.890	1.786	1.145	-5.206	-5.971	-0.689	8.344
79218.658	NaN	-3.272	1.185	9.304	1504.762	1504.762	1509.890	1.924	1.053	-5.160	-5.971	-0.612	8.268
79219.635	NaN	-3.250	1.196	9.315	1506.227	1503.297	1510.623	2.214	0.794	-5.344	-5.971	-0.766	8.115
79220.612	NaN	-3.272	1.185	9.315	1504.762	1504.029	1509.890	1.847	0.611	-5.481	-5.895	-0.612	8.268
79221.588	NaN	-3.283	1.185	9.315	1504.762	1504.029	1510.623	1.557	0.748	-5.527	-5.818	-0.689	8.344
79222.565	NaN	-3.283	1.185	9.326	1503.297	1503.297	1509.158	1.618	0.931	-5.420	-5.895	-0.612	8.268
79223.541	NaN	-3.272	1.185	9.337	1504.029	1503.297	1509.158	1.710	0.977	-5.328	-6.048	-0.612	8.191
79224.518	NaN	-3.283	1.196	9.348	1506.227	1504.029	1509.158	1.725	0.779	-5.420	-5.971	-0.766	8.268
79225.494	NaN	-3.283	1.185	9.337	1504.029	1503.297	1509.890	1.878	0.763	-5.389	-5.971	-0.689	8.421
79226.471	NaN	-3.283	1.196	9.337	1506.227	1504.029	1510.623	1.908	0.779	-5.405	-5.895	-0.536	8.344
79227.448	NaN	-3.283	1.185	9.326	1504.762	1504.762	1510.623	1.863	0.901	-5.344	-5.971	-0.766	8.498
79228.424	NaN	-3.283	1.185	9.337	1504.762	1503.297	1510.623	1.908	0.901	-5.252	-6.048	-0.689	8.344
79229.401	NaN	-3.283	1.185	9.337	1504.762	1503.297	1509.890	1.786	0.748	-5.405	-6.048	-0.766	8.421
79230.377	NaN	-3.293	1.185	9.326	1505.495	1504.029	1509.890	1.679	0.763	-5.374	-6.124	-0.689	8.268
79231.354	NaN	-3.293	1.174	9.315	1504.029	1503.297	1510.623	1.634	0.809	-5.389	-5.971	-0.842	8.191
79232.330	NaN	-3.283	1.185	9.326	1504.762	1504.762	1512.088	1.771	0.840	-5.542	-6.048	-0.689	8.115
79233.307	NaN	-3.283	1.174	9.326	1505.495	1504.029	1509.890	1.710	0.779	-5.557	-6.048	-0.612	8.191
79234.283	NaN	-3.304	1.174	9.326	1506.227	1503.297	1510.623	1.771	0.641	-5.466	-5.971	-0.612	8.191
79235.260	NaN	-3.304	1.174	9.315	1504.029	1502.564	1508.425	1.939	0.824	-5.267	-6.124	-0.689	8.115
79236.237	NaN	-3.293	1.196	9.337	1504.762	1504.029	1509.890	1.863	0.718	-5.313	-5.971	-0.766	8.268
79237.213	NaN	-3.304	1.185	9.348	1505.495	1504.762	1509.890	1.695	0.763	-5.359	-6.048	-0.766	8.344
79238.190	NaN	-3.293	1.185	9.337	1505.495	1503.297	1509.158	1.756	1.038	-5.511	-5.895	-0.689	8.344
79239.166	NaN	-3.315	1.185	9.337	1506.227	1504.029	1509.890	1.939	1.130	-5.573	-5.971	-0.689	8.038
79240.143	NaN	-3.315	1.185	9.326	1505.495	1504.029	1511.355	1.725	0.809	-5.466	-6.048	-0.612	8.191
79241.119	NaN	-3.304	1.185	9.337	1504.762	1504.762	1509.890	1.649	0.855	-5.313	-6.048	-0.689	8.115
79242.096	NaN	-3.293	1.185	9.348	1505.495	1503.297	1509.158	1.618	1.099	-5.405	-5.971	-0.612	8.421
79243.073	NaN	-3.315	1.185	9.359	1504.762	1504.029	1509.890	1.725	0.962	-5.496	-5.818	-0.612	8.268
79244.049	NaN	-3.304	1.196	9.348	1506.227	1504.762	1510.623	1.634	0.977	-5.634	-5.971	-0.689	8.115
79245.026	NaN	-3.283	1.185	9.348	1504.762	1504.029	1509.890	1.817	0.947	-5.664	-6.048	-0.689	8.268
79246.002	NaN	-3.283	1.185	9.348	1504.762	1503.297	1509.158	1.817	0.824	-5.496	-5.971	-0.612	8.268
79246.979	NaN	-3.283	1.185	9.337	1506.227	1504.029	1509.890	1.725	0.687	-5.420	-6.048	-0.766	8.421
79247.955	NaN	-3.293	1.196	9.326	1506.227	1503.297	1509.158	1.618	0.718	-5.481	-6.124	-0.612	8.268
79248.932	NaN	-3.283	1.207	9.337	1505.495	1504.762	1510.623	1.618	0.885	-5.389	-6.048	-0.766	8.268
79249.908	NaN	-3.304	1.196	9.326	1506.227	1504.029	1510.623	1.557	0.885	-5.557	-6.048	-0.766	8.191
79250.885	NaN	-3.293	1.196	9.337	1504.029	1503.297	1510.623	1.618	0.947	-5.420	-5.971	-0.766	8.344
79251.862	NaN	-3.293	1.185	9.348	1505.495	1503.297	1509.158	1.679	0.916	-5.252	-5.971	-0.612	8.344
79252.838	NaN	-3.293	1.185	9.348	1506.227	1504.029	1510.623	1.634	1.084	-5.435	-6.048	-0.689	8.191
79253.815	NaN	-3.293	1.174	9.348	1504.762	1503.297	1509.890	1.573	0.931	-5.573	-6.048	-0.689	8.344
79254.791	NaN	-3.293	1.185	9.348	1504.029	1503.297	1509.890	1.649	0.916	-5.634	-5.971	-0.689	8.191
79255.768	NaN	-3.293	1.185	9.348	1504.762	1503.297	1510.623	1.618	0.779	-5.573	-6.048	-0.689	8.268
79256.744	NaN	-3.315	1.174	9.348	1504.762	1503.297	1510.623	1.679	0.748	-5.481	-5.971	-0.612	8.344
79257.721	NaN	-3.304	1.185	9.348	1505.495	1504.029	1511.355	1.573	0.702	-5.481	-5.818	-0.689	8.115
79258.698	NaN	-3.304	1.196	9.348	1505.495	1504.762	1509.890	1.466	0.656	-5.573	-5.971	-0.689	8.344
79259.674	NaN	-3.304	1.196	9.359	1505.495	1504.762	1509.158	1.725	0.565	-5.618	-5.895	-0.689	8.268
79260.651	NaN	-3.315	1.185	9.348	1504.029	1504.029	1509.158	1.740	0.840	-5.435	-6.048	-0.612	8.268
79261.627	NaN	-3.315	1.185	9.337	1506.227	1504.029	1509.158	1.878	1.099	-5.176	-5.971	-0.612	8.191
79262.604	NaN	-3.315	1.185	9.337	1504.762	1504.029	1510.623	1.832	1.130	-5.389	-5.971	-0.689	8.344
79263.580	NaN	-3.315	1.185	9.326	1505.495	1504.762	1509.158	1.603	0.931	-5.557	-5.895	-0.842	8.268
79264.557	NaN	-3.304	1.185	9.348	1504.029	1503.297	1509.158	1.557	0.870	-5.527	-5.971	-0.689	8.421
79265.533	NaN	-3.304	1.196	9.348	1505.495	1503.297	1509.890	1.710	1.023	-5.435	-5.971	-0.689	8.191
79266.510	NaN	-3.304	1.207	9.348	1506.227	1504.762	1510.623	1.786	0.931	-5.359	-6.124	-0.612	8.268
79267.487	NaN	-3.304	1.207	9.370	1505.495	1503.297	1510.623	1.557	0.702	-5.511	-5.971	-0.689	8.191
79268.463	NaN	-3.304	1.207	9.380	1505.495	1504.029	1509.890	1.450	0.611	-5.679	-6.048	-0.612	8.421
79269.440	NaN	-3.315	1.207	9.370	1505.495	1503.297	1509.890	1.344	0.672	-5.786	-5.971	-0.689	8.344
79270.416	NaN	-3.326	1.196	9.370	1505.495	1504.029	1509.158	1.389	0.748	-5.649	-5.971	-0.689	8.344
79271.393	NaN	-3.315	1.207	9.370	1505.495	1503.297	1510.623	1.542	0.855	-5.527	-6.124	-0.612	8.191
79272.369	NaN	-3.315	1.185	9.359	1505.495	1504.029	1509.890	1.618	0.824	-5.328	-5.971	-0.536	8.268
79273.346	NaN	-3.315	1.185	9.359	1505.495	1504.029	1509.890	1.450	0.733	-5.313	-5.895	-0.612	8.344
79274.323	NaN	-3.326	1.185	9.370	1504.762	1503.297	1510.623	1.298	0.809	-5.649	-6.048	-0.612	8.115
79275.299	NaN	-3.315	1.196	9.370	1504.029	1504.762	1509.158	1.130	0.824	-5.710	-5.895	-0.612	8.268
79276.276	NaN	-3.326	1.185	9.359	1504.029	1504.029	1509.158	1.084	0.885	-5.710	-6.124	-0.689	8.191
79277.252	NaN	-3.304	1.207	9.370	1505.495	1503.297	1509.890	1.298	0.885	-5.725	-6.048	-0.689	8.344
79278.229	NaN	-3.304	1.196	9.370	1505.495	1504.762	1510.623	1.435	0.748	-5.695	-6.048	-0.689	8.344
79279.205	NaN	-3.315	1.196	9.359	1504.762	1504.029	1509.158	1.328	0.885	-5.603	-5.971	-0.689	8.268
79280.182	NaN	-3.315	1.185	9.370	1502.564	1504.029	1511.355	1.435	1.053	-5.634	-5.895	-0.536	8.268
79281.158	NaN	-3.315	1.185	9.359	1504.762	1504.762	1509.890	1.466	0.962	-5.603	-5.971	-0.689	8.268
79282.135	NaN	-3.304	1.185	9.359	1505.495	1504.029	1510.623	1.374	0.916	-5.496	-5.971	-0.689	8.268
79283.112	NaN	-3.304	1.185	9.359	1505.495	1504.029	1510.623	1.389	1.069	-5.496	-6.048	-0.689	8.268
79284.088	NaN	-3.304	1.185	9.359	1505.495	1503.297	1509.158	1.099	1.176	-5.603	-5.971	-0.766	8.344
79285.065	NaN	-3.304	1.196	9.359	1504.762	1504.029	1509.158	1.053	0.901	-5.389	-5.895	-0.689	8.498
79286.041	NaN	-3.315	1.185	9.359	1505.495	1504.029	1509.890	1.298	0.672	-5.527	-6.048	-0.766	8.268
79287.018	NaN	-3.326	1.174	9.359	1504.029	1503.297	1509.158	1.481	0.748	-5.695	-5.971	-0.689	8.268
79287.994	NaN	-3.326	1.185	9.348	1504.762	1503.297	1509.158	1.573	0.809	-5.710	-6.048	-0.612	8.268
79288.971	NaN	-3.315	1.185	9.337	1505.495	1504.029	1510.623	1.527	0.794	-5.618	-5.971	-0.612	8.268
79289.948	NaN	-3.304	1.196	9.337	1504.762	1503.297	1509.890	1.588	0.733	-5.603	-6.048	-0.689	8.268
79290.924	NaN	-3.304	1.174	9.337	1505.495	1503.297	1510.623	1.466	0.763	-5.634	-5.971	-0.689	8.344
79291.901	NaN	-3.304	1.163	9.326	1505.495	1503.297	1509.158	1.450	0.641	-5.527	-5.971	-0.766	8.191
79292.877	NaN	-3.304	1.152	9.315	1504.762	1503.297	1509.890	1.481	0.748	-5.405	-5.971	-0.689	8.268
79293.854	NaN	-3.293	1.174	9.326	1505.495	1504.029	1509.890	1.542	0.992	-5.466	-5.895	-0.612	8.421
79294.830	NaN	-3.304	1.174	9.326	1505.495	1504.029	1510.623	1.389	1.008	-5.359	-5.971	-0.536	8.344
79295.807	NaN	-3.304	1.174	9.348	1504.029	1504.029	1509.890	1.313	0.779	-5.405	-6.124	-0.689	8.191
79296.783	NaN	-3.304	1.152	9.348	1505.495	1504.029	1511.355	1.313	0.687	-5.573	-6.048	-0.612	8.268
79297.760	NaN	-3.283	1.174	9.326	1506.227	1504.762	1510.623	1.313	0.672	-5.649	-5.971	-0.689	8.344
79298.737	NaN	-3.283	1.174	9.326	1505.495	1503.297	1510.623	1.237	0.687	-5.511	-6.048	-0.612	8.344
79299.713	3736848013.106	-3.283	1.185	9.326	1506.227	1503.297	1509.890	1.069	0.748	-5.557	-5.971	-0.612	8.344
79300.690	NaN	-3.283	1.185	9.337	1505.495	1503.297	1509.890	1.252	0.947	-5.847	-5.895	-0.766	8.191
79301.666	NaN	-3.293	1.185	9.337	1506.227	1504.762	1509.890	1.542	0.855	-5.557	-5.895	-0.766	8.268
79302.643	NaN	-3.283	1.185	9.348	1505.495	1504.029	1510.623	1.496	0.611	-5.420	-6.124	-0.689	8.268
79303.619	NaN	-3.293	1.185	9.348	1506.227	1504.029	1509.890	1.298	0.641	-5.496	-6.124	-0.766	8.268
79304.596	NaN	-3.293	1.174	9.348	1505.495	1504.029	1509.890	1.313	0.885	-5.603	-6.124	-0.689	8.191
79305.573	NaN	-3.293	1.174	9.348	1504.029	1503.297	1510.623	1.374	0.733	-5.695	-6.201	-0.689	8.191
79306.549	NaN	-3.293	1.174	9.326	1505.495	1504.762	1509.890	1.328	0.718	-5.832	-6.048	-0.689	8.191
79307.526	NaN	-3.293	1.174	9.326	1505.495	1503.297	1512.088	1.237	0.641	-5.832	-5.971	-0.766	8.268
79308.502	NaN	-3.304	1.174	9.315	1504.762	1503.297	1510.623	1.298	0.611	-5.649	-5.971	-0.766	8.268
79309.479	NaN	-3.304	1.185	9.315	1505.495	1504.029	1510.623	1.282	0.733	-5.511	-6.048	-0.689	8.344
79310.455	NaN	-3.315	1.163	9.315	1504.762	1503.297	1509.890	1.328	0.840	-5.527	-5.895	-0.689	8.191
79311.432	NaN	-3.304	1.174	9.315	1506.227	1504.762	1510.623	1.206	0.824	-5.466	-5.971	-0.612	8.191
79312.408	NaN	-3.304	1.174	9.315	1504.762	1504.762	1511.355	1.252	0.702	-5.405	-6.124	-0.689	8.191
79313.385	NaN	-3.293	1.174	9.337	1504.762	1503.297	1509.890	1.573	0.779	-5.405	-6.048	-0.612	8.191
79314.362	NaN	-3.293	1.163	9.326	1504.029	1504.762	1509.890	1.496	0.916	-5.511	-5.971	-0.612	8.115
79315.338	NaN	-3.293	1.185	9.326	1506.227	1504.762	1511.355	1.282	0.733	-5.603	-6.048	-0.689	8.574
79316.315	NaN	-3.283	1.185	9.326	1506.227	1504.029	1509.158	1.359	0.748	-5.740	-5.895	-0.612	8.115
79317.291	NaN	-3.283	1.185	9.337	1504.762	1505.495	1509.158	1.618	0.855	-5.710	-5.971	-0.766	8.191
79318.268	NaN	-3.283	1.185	9.337	1504.029	1504.029	1509.890	1.573	0.702	-5.588	-5.971	-0.766	8.344
79319.244	NaN	-3.293	1.185	9.337	1506.227	1501.832	1509.890	1.237	0.565	-5.542	-5.971	-0.612	8.191
79320.221	NaN	-3.283	1.185	9.337	1504.762	1504.762	1510.623	1.115	0.763	-5.634	-5.895	-0.536	8.191
79321.198	NaN	-3.293	1.174	9.337	1505.495	1504.762	1511.355	1.191	0.672	-5.802	-5.971	-0.689	8.115
79322.174	NaN	-3.293	1.163	9.326	1504.762	1503.297	1509.890	1.450	0.611	-5.710	-6.201	-0.612	8.191
79323.151	NaN	-3.283	1.185	9.326	1505.495	1504.029	1509.890	1.511	0.641	-5.588	-5.971	-0.689	8.115
79324.127	NaN	-3.283	1.185	9.315	1505.495	1504.029	1509.890	1.405	0.702	-5.695	-6.048	-0.766	8.268
79325.104	NaN	-3.283	1.185	9.315	1504.762	1504.029	1509.890	1.389	0.595	-5.802	-5.895	-0.689	8.344
79326.080	NaN	-3.293	1.185	9.304	1505.495	1504.762	1510.623	1.481	0.702	-5.756	-5.971	-0.689	8.191
79327.057	NaN	-3.304	1.174	9.315	1504.762	1504.029	1509.890	1.481	0.565	-5.664	-6.124	-0.612	8.268
79328.033	NaN	-3.304	1.174	9.315	1505.495	1502.564	1510.623	1.298	0.519	-5.725	-5.895	-0.536	8.191
79329.010	NaN	-3.293	1.185	9.315	1505.495	1504.762	1509.890	1.282	0.565	-5.725	-5.895	-0.612	8.115
79329.987	NaN	-3.283	1.185	9.326	1505.495	1504.029	1511.355	1.359	0.519	-5.634	-5.971	-0.689	8.268
79330.963	NaN	-3.272	1.196	9.315	1505.495	1504.029	1509.890	1.527	0.458	-5.649	-6.124	-0.689	8.344
79331.940	NaN	-3.283	1.185	9.315	1504.762	1504.029	1509.890	1.405	0.534	-5.588	-5.818	-0.689	8.191
79332.916	NaN	-3.304	1.185	9.304	1506.227	1504.029	1509.890	1.374	0.412	-5.679	-6.048	-0.689	8.268
79333.893	NaN	-3.293	1.196	9.315	1504.029	1504.029	1511.355	1.496	0.198	-5.664	-5.895	-0.689	8.191
79334.869	NaN	-3.293	1.196	9.315	1506.227	1503.297	1509.890	1.542	0.198	-5.634	-6.048	-0.612	8.191
79335.846	NaN	-3.283	1.185	9.315	1504.762	1504.762	1512.088	1.573	0.489	-5.649	-6.048	-0.766	8.268
79336.823	NaN	-3.293	1.185	9.315	1504.762	1503.297	1509.890	1.557	0.412	-5.664	-5.895	-0.612	8.268
79337.799	NaN	-3.304	1.185	9.304	1505.495	1504.029	1511.355	1.420	0.382	-5.603	-5.971	-0.689	8.344
79338.776	NaN	-3.304	1.185	9.315	1505.495	1504.762	1509.890	1.176	0.260	-5.588	-6.048	-0.689	8.344
79339.752	NaN	-3.293	1.174	9.326	1505.495	1503.297	1510.623	1.084	0.519	-5.542	-6.048	-0.689	8.268
79340.729	NaN	-3.304	1.174	9.326	1505.495	1504.029	1509.890	1.160	0.611	-5.603	-6.124	-0.689	8.344
79341.705	NaN	-3.304	1.163	9.326	1505.495	1504.762	1509.890	1.496	0.473	-5.511	-5.895	-0.689	8.268
79342.682	NaN	-3.293	1.163	9.326	1504.762	1503.297	1509.890	1.847	0.305	-5.374	-6.124	-0.766	8.191
79343.658	NaN	-3.283	1.163	9.315	1504.762	1504.029	1509.890	1.832	0.260	-5.450	-5.818	-0.612	8.344
79344.635	NaN	-3.283	1.174	9.315	1505.495	1503.297	1509.158	1.588	0.412	-5.695	-5.971	-0.612	8.268
79345.612	NaN	-3.293	1.163	9.315	1504.762	1503.297	1510.623	1.466	0.489	-5.847	-5.895	-0.612	8.344
79346.588	NaN	-3.293	1.174	9.326	1505.495	1504.029	1509.890	1.634	0.534	-5.725	-6.124	-0.612	8.268
79347.565	NaN	-3.283	1.174	9.337	1505.495	1504.029	1509.890	1.588	0.382	-5.542	-5.971	-0.612	8.421
79348.541	NaN	-3.272	1.185	9.348	1506.227	1504.762	1510.623	1.420	0.351	-5.588	-5.895	-0.766	8.191
79349.518	NaN	-3.272	1.185	9.337	1505.495	1504.029	1510.623	1.420	0.321	-5.573	-6.124	-0.689	8.115
79350.494	NaN	-3.293	1.185	9.337	1503.297	1503.297	1509.890	1.649	0.366	-5.649	-6.048	-0.612	8.191
79351.471	NaN	-3.293	1.185	9.348	1505.495	1504.762	1509.890	1.740	0.443	-5.878	-6.124	-0.612	8.268
79352.448	NaN	-3.293	1.185	9.337	1504.762	1504.029	1511.355	1.496	0.336	-5.832	-6.048	-0.612	8.344
79353.424	NaN	-3.293	1.185	9.337	1504.762	1504.029	1509.890	1.374	0.260	-5.771	-6.048	-0.459	8.268
79354.401	NaN	-3.293	1.174	9.348	1505.495	1504.029	1510.623	1.374	0.244	-5.725	-6.048	-0.689	8.191
79355.377	NaN	-3.315	1.174	9.348	1504.762	1503.297	1509.158	1.588	0.382	-5.695	-5.971	-0.842	8.191
79356.354	NaN	-3.304	1.185	9.359	1505.495	1504.762	1510.623	1.679	0.321	-5.710	-6.124	-0.766	8.344
79357.330	NaN	-3.304	1.185	9.348	1504.762	1504.762	1510.623	1.603	0.366	-5.527	-6.124	-0.766	8.268
79358.307	NaN	-3.315	1.196	9.348	1505.495	1504.029	1511.355	1.618	0.321	-5.634	-6.048	-0.612	8.268
79359.283	NaN	-3.326	1.185	9.337	1504.762	1503.297	1509.890	1.649	0.214	-5.878	-5.895	-0.689	8.115
79360.260	NaN	-3.304	1.196	9.348	1505.495	1504.029	1509.890	1.603	0.092	-5.725	-5.895	-0.689	8.115
79361.237	NaN	-3.304	1.185	9.348	1505.495	1504.762	1509.890	1.420	0.137	-5.695	-5.971	-0.689	8.115
79362.213	NaN	-3.304	1.185	9.337	1504.762	1504.762	1509.890	1.359	0.031	-5.710	-5.895	-0.689	8.344
79363.190	NaN	-3.304	1.185	9.337	1505.495	1504.762	1509.158	1.466	0.061	-5.649	-6.048	-0.536	8.344
79364.166	NaN	-3.326	1.185	9.337	1505.495	1504.029	1509.890	1.649	0.122	-5.511	-6.201	-0.689	8.191
79365.143	NaN	-3.315	1.185	9.337	1505.495	1504.029	1509.890	1.542	0.229	-5.710	-6.048	-0.536	8.421
79366.119	NaN	-3.326	1.185	9.337	1506.227	1503.297	1510.623	1.206	0.137	-5.664	-5.971	-0.689	8.421
79367.096	NaN	-3.326	1.185	9.337	1505.495	1504.029	1509.890	1.374	0.168	-5.725	-6.124	-0.689	8.344
79368.073	NaN	-3.315	1.185	9.348	1503.297	1503.297	1509.890	1.557	0.229	-5.695	-6.048	-0.612	8.191
79369.049	NaN	-3.304	1.185	9.348	1505.495	1504.762	1509.158	1.603	0.275	-5.649	-5.818	-0.766	8.268
79370.026	NaN	-3.304	1.196	9.359	1505.495	1504.029	1509.890	1.542	0.336	-5.435	-6.124	-0.536	8.268
79371.002	NaN	-3.315	1.196	9.348	1505.495	1504.029	1510.623	1.542	0.107	-5.389	-5.971	-0.536	8.344
79371.979	NaN	-3.315	1.185	9.348	1505.495	1504.029	1509.890	1.450	0.046	-5.466	-5.971	-0.766	8.344
79372.955	NaN	-3.326	1.174	9.348	1505.495	1503.297	1507.692	1.420	0.198	-5.634	-5.971	-0.689	8.268
79373.932	NaN	-3.326	1.174	9.348	1505.495	1504.762	1511.355	1.374	0.214	-5.725	-6.048	-0.612	8.191
79374.908	NaN	-3.315	1.174	9.337	1505.495	1504.029	1510.623	1.557	0.229	-5.817	-5.895	-0.612	8.191
79375.885	NaN	-3.304	1.174	9.337	1505.495	1504.029	1509.890	1.527	0.244	-5.954	-5.971	-0.766	8.421
79376.862	NaN	-3.326	1.185	9.348	1504.762	1504.029	1510.623	1.511	0.076	-5.771	-5.971	-0.689	8.268
79377.838	NaN	-3.326	1.185	9.337	1506.227	1504.762	1510.623	1.130	0.107	-5.588	-6.048	-0.612	8.268
79378.815	NaN	-3.315	1.185	9.337	1505.495	1504.762	1509.890	1.313	0.061	-5.511	-6.124	-0.689	8.344
79379.791	NaN	-3.304	1.185	9.348	1504.762	1504.029	1509.890	1.618	0.229	-5.481	-6.048	-0.612	8.115
79380.768	NaN	-3.293	1.185	9.348	1505.495	1504.029	1510.623	1.481	0.321	-5.588	-6.124	-0.689	8.268
79381.744	NaN	-3.315	1.174	9.337	1506.227	1503.297	1509.158	1.313	0.275	-5.679	-6.048	-0.689	8.191
79382.721	NaN	-3.315	1.185	9.337	1506.227	1504.029	1509.890	1.145	0.198	-5.710	-5.971	-0.842	8.344
79383.698	NaN	-3.315	1.185	9.348	1505.495	1504.029	1509.890	1.160	0.168	-5.786	-6.124	-0.612	8.344
79384.674	NaN	-3.315	1.174	9.348	1505.495	1504.762	1509.890	1.435	0.076	-5.740	-5.818	-0.766	8.344
79385.651	NaN	-3.315	1.174	9.337	1505.495	1503.297	1509.890	1.634	0.214	-5.679	-5.971	-0.612	8.268
79386.627	NaN	-3.326	1.174	9.326	1504.762	1504.762	1510.623	1.435	0.153	-5.725	-5.971	-0.689	8.421
79387.604	NaN	-3.326	1.185	9.315	1505.495	1504.029	1510.623	1.328	0.168	-5.573	-6.048	-0.689	8.191
79388.580	NaN	-3.315	1.196	9.315	1506.227	1504.029	1510.623	1.527	0.260	-5.588	-5.971	-0.766	8.344
79389.557	NaN	-3.326	1.196	9.337	1504.762	1503.297	1510.623	1.389	0.321	-5.466	-5.895	-0.612	8.421
79390.533	NaN	-3.326	1.185	9.337	1504.762	1504.762	1510.623	1.344	0.168	-5.450	-6.048	-0.766	8.191
79391.510	NaN	-3.326	1.185	9.337	1506.227	1504.029	1509.890	1.344	0.214	-5.573	-5.971	-0.766	8.268
79392.487	NaN	-3.326	1.174	9.337	1505.495	1503.297	1509.890	1.252	0.214	-5.634	-5.895	-0.766	8.268
79393.463	NaN	-3.326	1.185	9.337	1504.762	1503.297	1509.158	1.298	0.260	-5.664	-5.895	-0.612	8.191
79394.440	NaN	-3.315	1.185	9.337	1504.762	1504.029	1510.623	1.145	0.366	-5.511	-6.048	-0.766	8.344
79395.416	NaN	-3.326	1.185	9.348	1505.495	1504.029	1510.623	1.176	0.198	-5.328	-5.971	-0.689	8.268
79396.393	NaN	-3.304	1.185	9.370	1505.495	1504.029	1508.425	1.420	0.031	-5.405	-6.048	-0.612	8.268
79397.369	NaN	-3.304	1.185	9.370	1506.227	1504.029	1509.158	1.389	-0.031	-5.664	-5.971	-0.612	8.268
79398.346	NaN	-3.315	1.185	9.359	1504.029	1504.762	1510.623	1.115	-0.031	-5.954	-6.048	-0.842	8.191
79399.323	NaN	-3.304	1.174	9.359	1504.762	1504.029	1511.355	1.344	-0.031	-6.000	-5.971	-0.766	8.191
79400.299	NaN	-3.293	1.185	9.348	1505.495	1504.029	1510.623	1.802	0.107	-5.893	-6.048	-0.842	8.268
79401.276	NaN	-3.293	1.185	9.348	1505.495	1504.029	1510.623	1.649	0.260	-5.893	-6.048	-0.766	8.115
79402.252	NaN	-3.293	1.185	9.337	1505.495	1503.297	1510.623	1.298	0.153	-5.695	-6.048	-0.842	8.421
79403.229	NaN	-3.293	1.196	9.337	1506.227	1503.297	1509.158	1.206	-0.031	-5.649	-6.048	-0.689	8.344
79404.205	NaN	-3.304	1.185	9.337	1504.762	1504.029	1509.158	1.252	-0.137	-5.679	-6.048	-0.766	8.191
79405.182	NaN	-3.293	1.185	9.337	1505.495	1504.029	1510.623	1.420	-0.107	-5.725	-6.124	-0.612	8.268
79406.158	NaN	-3.304	1.174	9.326	1504.762	1503.297	1509.158	1.664	0.076	-5.679	-6.124	-0.842	8.268
79407.135	NaN	-3.293	1.185	9.337	1504.762	1504.029	1509.890	1.405	0.137	-5.557	-5.895	-0.689	8.115
79408.112	NaN	-3.293	1.185	9.326	1504.762	1504.029	1510.623	1.176	0.198	-5.695	-6.048	-0.766	8.344
79409.088	NaN	-3.304	1.174	9.326	1504.762	1503.297	1510.623	1.282	0.107	-5.847	-5.971	-0.612	8.191
79410.065	NaN	-3.304	1.185	9.348	1505.495	1504.029	1510.623	1.237	0.031	-5.649	-5.971	-0.612	8.268
79411.041	NaN	-3.315	1.185	9.348	1504.029	1504.029	1508.425	1.267	0.122	-5.588	-5.971	-0.612	8.498
79412.018	NaN	-3.304	1.185	9.337	1505.495	1503.297	1510.623	1.527	0.031	-5.710	-6.124	-0.612	8.268
79412.994	NaN	-3.304	1.185	9.337	1506.227	1504.029	1509.158	1.374	0.000	-5.557	-6.048	-0.689	8.191
79413.971	NaN	-3.315	1.185	9.326	1504.029	1503.297	1509.158	1.237	0.015	-5.496	-5.895	-0.536	8.344
79414.948	NaN	-3.293	1.196	9.337	1505.495	1504.029	1510.623	1.237	-0.076	-5.725	-5.818	-0.689	8.268
79415.924	NaN	-3.315	1.185	9.348	1505.495	1503.297	1510.623	1.267	0.046	-5.878	-6.048	-0.612	8.344
79416.901	NaN	-3.315	1.185	9.348	1504.762	1503.297	1509.158	1.298	0.061	-5.756	-6.048	-0.766	8.421
79417.877	NaN	-3.304	1.196	9.359	1504.762	1504.029	1509.890	1.252	0.031	-5.588	-5.971	-0.612	8.268
79418.854	NaN	-3.304	1.185	9.359	1503.297	1503.297	1509.158	1.511	-0.031	-5.557	-5.971	-0.612	8.191
79419.830	NaN	-3.283	1.185	9.359	1505.495	1504.029	1510.623	1.634	-0.153	-5.618	-6.048	-0.536	8.344
79420.807	NaN	-3.304	1.185	9.337	1504.762	1503.297	1509.158	1.527	-0.153	-5.588	-6.048	-0.766	8.268
79421.783	3736848013.229	-3.293	1.185	9.337	1504.762	1502.564	1509.158	1.313	0.061	-5.573	-5.895	-0.612	8.344
79422.760	NaN	-3.283	1.196	9.337	1505.495	1504.762	1512.088	1.298	0.275	-5.634	-6.124	-0.766	8.344
79423.737	NaN	-3.293	1.185	9.337	1504.762	1503.297	1510.623	1.405	0.214	-5.573	-5.971	-0.689	8.191
79424.713	NaN	-3.293	1.185	9.337	1504.029	1502.564	1509.158	1.374	-0.107	-5.603	-5.818	-0.766	8.191
79425.690	NaN	-3.283	1.174	9.337	1504.762	1503.297	1509.890	1.496	-0.122	-5.557	-5.971	-0.766	8.191
79426.666	NaN	-3.293	1.174	9.326	1504.762	1503.297	1507.692	1.618	-0.122	-5.649	-5.971	-0.689	8.191
79427.643	NaN	-3.293	1.185	9.326	1504.762	1504.029	1510.623	1.450	-0.153	-5.847	-5.971	-0.612	8.268
79428.619	NaN	-3.304	1.185	9.315	1505.495	1504.029	1510.623	1.359	0.107	-5.710	-5.971	-0.612	8.268
79429.596	NaN	-3.293	1.185	9.326	1504.762	1504.029	1510.623	1.191	0.168	-5.649	-5.971	-0.689	8.191
79430.573	NaN	-3.304	1.196	9.326	1505.495	1504.029	1509.890	1.344	0.076	-5.649	-5.971	-0.689	8.268
79431.549	NaN	-3.293	1.196	9.326	1506.227	1504.029	1511.355	1.618	0.107	-5.573	-5.971	-0.689	8.421
79432.526	NaN	-3.293	1.196	9.315	1505.495	1504.029	1510.623	1.771	0.183	-5.389	-5.971	-0.612	8.268
79433.502	NaN	-3.293	1.185	9.315	1505.495	1504.029	1509.890	1.878	0.092	-5.420	-5.971	-0.689	8.344
79434.479	NaN	-3.293	1.196	9.326	1504.029	1503.297	1509.158	1.634	0.061	-5.573	-5.895	-0.689	8.268
79435.455	NaN	-3.304	1.185	9.326	1504.762	1504.762	1510.623	1.405	0.046	-5.756	-6.048	-0.766	8.344
79436.432	NaN	-3.304	1.185	9.326	1505.495	1504.029	1509.890	1.466	0.229	-5.893	-5.971	-0.689	8.268
79437.408	NaN	-3.293	1.185	9.326	1505.495	1504.029	1510.623	1.420	-0.046	-5.771	-6.048	-0.766	8.191
79438.385	NaN	-3.293	1.185	9.315	1504.762	1504.029	1510.623	1.344	-0.076	-5.679	-6.048	-0.766	8.191
79439.362	NaN	-3.293	1.185	9.315	1504.762	1504.029	1509.158	1.466	0.046	-5.664	-6.048	-0.766	8.115
79440.338	NaN	-3.304	1.185	9.304	1505.495	1505.495	1511.355	1.466	-0.061	-5.664	-5.971	-0.612	8.268
79441.315	NaN	-3.304	1.174	9.304	1504.029	1504.029	1510.623	1.481	-0.076	-5.649	-5.971	-0.766	8.268
79442.291	NaN	-3.304	1.185	9.315	1506.227	1503.297	1509.890	1.969	-0.092	-5.603	-5.895	-0.842	8.268
79443.268	NaN	-3.304	1.163	9.315	1504.762	1503.297	1510.623	2.137	-0.046	-5.664	-6.048	-0.766	8.344
79444.244	NaN	-3.293	1.174	9.315	1504.762	1503.297	1510.623	1.985	-0.015	-5.618	-6.048	-0.766	8.268
79445.221	NaN	-3.283	1.174	9.326	1506.227	1504.762	1511.355	1.725	-0.031	-5.557	-5.971	-0.766	8.268
79446.198	NaN	-3.293	1.152	9.326	1505.495	1503.297	1509.158	1.573	-0.122	-5.542	-5.971	-0.689	8.191
79447.174	NaN	-3.293	1.163	9.337	1505.495	1504.029	1510.623	1.649	-0.137	-5.634	-6.048	-0.842	8.268
79448.151	NaN	-3.293	1.163	9.337	1504.762	1504.029	1510.623	1.756	-0.031	-5.481	-6.048	-0.689	8.268
79449.127	NaN	-3.293	1.185	9.326	1504.762	1503.297	1508.425	1.863	-0.214	-5.511	-5.971	-0.536	8.268
79450.104	NaN	-3.283	1.196	9.326	1505.495	1504.029	1511.355	1.649	-0.321	-5.496	-6.048	-0.689	8.191
79451.080	NaN	-3.293	1.185	9.315	1506.227	1503.297	1510.623	1.374	-0.153	-5.481	-5.971	-0.766	8.344
79452.057	NaN	-3.272	1.185	9.337	1504.762	1504.029	1509.890	1.481	0.046	-5.603	-5.895	-0.612	8.191
79453.033	NaN	-3.293	1.174	9.326	1505.495	1504.029	1511.355	1.542	0.000	-5.557	-6.048	-0.689	8.191
79454.010	NaN	-3.283	1.174	9.337	1504.029	1504.029	1509.158	1.588	-0.061	-5.496	-5.971	-0.766	8.268
79454.987	NaN	-3.272	1.185	9.326	1504.029	1503.297	1509.158	1.725	-0.061	-5.511	-5.971	-0.612	8.115
79455.963	NaN	-3.272	1.185	9.337	1504.762	1504.762	1510.623	1.695	-0.183	-5.359	-5.971	-0.689	8.115
79456.940	NaN	-3.272	1.174	9.337	1504.029	1503.297	1510.623	1.878	-0.305	-5.710	-6.048	-0.536	8.191
79457.916	NaN	-3.272	1.174	9.326	1505.495	1504.029	1509.158	1.634	-0.168	-5.954	-6.124	-0.689	8.498
79458.893	NaN	-3.272	1.174	9.326	1505.495	1504.029	1509.890	1.649	-0.076	-5.893	-6.048	-0.842	8.268
79459.869	NaN	-3.283	1.185	9.315	1505.495	1504.029	1510.623	1.756	-0.061	-5.756	-6.048	-0.536	8.344
79460.846	NaN	-3.283	1.185	9.326	1504.762	1504.762	1509.890	1.740	-0.198	-5.695	-5.895	-0.612	8.191
79461.823	NaN	-3.293	1.185	9.326	1505.495	1503.297	1509.158	1.878	-0.183	-5.649	-5.971	-0.766	8.344
79462.799	NaN	-3.293	1.174	9.326	1505.495	1505.495	1509.890	1.710	-0.198	-5.649	-5.895	-0.689	8.268
79463.776	NaN	-3.283	1.185	9.326	1504.762	1505.495	1509.890	1.695	-0.137	-5.496	-5.971	-0.689	8.344
79464.752	NaN	-3.283	1.174	9.326	1504.762	1504.762	1509.890	1.817	-0.031	-5.511	-5.971	-0.689	8.344
79465.729	NaN	-3.304	1.185	9.337	1504.762	1503.297	1509.890	1.847	-0.214	-5.542	-5.895	-0.689	8.191
79466.705	NaN	-3.315	1.174	9.348	1505.495	1503.297	1509.890	1.985	-0.168	-5.557	-5.971	-0.689	8.268
79467.682	NaN	-3.304	1.174	9.359	1503.297	1503.297	1509.890	1.847	-0.061	-5.603	-5.971	-0.766	8.421
79468.658	NaN	-3.315	1.163	9.348	1505.495	1504.029	1509.158	1.603	0.000	-5.588	-5.971	-0.612	8.344
79469.635	NaN	-3.293	1.185	9.348	1504.762	1504.762	1509.158	1.573	-0.076	-5.710	-5.971	-0.766	8.191
79470.612	NaN	-3.304	1.174	9.337	1505.495	1503.297	1509.890	1.893	-0.198	-5.679	-5.971	-0.842	8.421
79471.588	NaN	-3.315	1.185	9.337	1506.227	1504.029	1510.623	1.969	-0.473	-5.618	-6.048	-0.766	8.268
79472.565	NaN	-3.304	1.174	9.348	1506.227	1504.029	1510.623	1.588	-0.397	-5.603	-5.971	-0.689	8.344
79473.541	NaN	-3.304	1.174	9.348	1504.762	1504.029	1511.355	1.603	-0.137	-5.573	-5.895	-0.689	8.191
79474.518	NaN	-3.304	1.174	9.337	1505.495	1504.029	1510.623	1.802	-0.122	-5.435	-5.971	-0.612	8.191
79475.494	NaN	-3.304	1.174	9.326	1504.762	1504.029	1510.623	1.802	-0.244	-5.267	-5.895	-0.689	8.421
79476.471	NaN	-3.293	1.185	9.326	1505.495	1503.297	1511.355	1.756	-0.183	-5.237	-6.124	-0.766	8.344
79477.448	NaN	-3.304	1.185	9.326	1504.762	1503.297	1509.890	1.710	-0.046	-5.435	-6.048	-0.612	8.191
79478.424	NaN	-3.283	1.174	9.337	1504.762	1501.832	1508.425	1.588	-0.153	-5.481	-5.895	-0.689	8.268
79479.401	NaN	-3.283	1.174	9.337	1504.762	1504.029	1509.890	1.740	-0.153	-5.542	-5.971	-0.689	8.191
79480.377	NaN	-3.283	1.174	9.326	1505.495	1504.029	1509.890	1.771	-0.137	-5.618	-5.818	-0.612	8.344
79481.354	NaN	-3.283	1.174	9.337	1504.762	1503.297	1509.890	1.863	-0.122	-5.557	-5.971	-0.536	8.191
79482.330	NaN	-3.272	1.174	9.337	1505.495	1504.029	1510.623	1.802	-0.061	-5.588	-5.895	-0.766	8.344
79483.307	NaN	-3.283	1.174	9.337	1503.297	1504.029	1510.623	1.618	-0.153	-5.649	-5.971	-0.689	8.344
79484.283	NaN	-3.283	1.163	9.337	1504.762	1503.297	1509.890	1.573	-0.168	-5.771	-5.895	-0.766	8.344
79485.260	NaN	-3.283	1.174	9.348	1505.495	1504.029	1509.890	1.771	0.000	-5.756	-5.895	-0.612	8.268
79486.237	NaN	-3.283	1.185	9.348	1504.762	1504.029	1512.088	1.939	0.183	-5.496	-5.971	-0.689	8.268
79487.213	NaN	-3.283	1.185	9.359	1505.495	1504.762	1510.623	1.893	0.046	-5.282	-5.971	-0.612	8.344
79488.190	NaN	-3.293	1.174	9.359	1504.762	1503.297	1509.890	1.786	-0.122	-5.298	-5.895	-0.766	8.268
79489.166	NaN	-3.293	1.174	9.359	1505.495	1504.029	1509.158	1.557	-0.015	-5.450	-6.048	-0.689	8.191
79490.143	NaN	-3.283	1.185	9.359	1504.762	1504.029	1512.088	1.573	-0.046	-5.618	-5.818	-0.689	8.268
79491.119	NaN	-3.283	1.185	9.359	1505.495	1504.029	1510.623	1.603	0.015	-5.786	-6.048	-0.766	8.115
79492.096	NaN	-3.304	1.174	9.348	1505.495	1503.297	1509.158	1.695	0.031	-5.878	-5.971	-0.612	8.191
79493.073	NaN	-3.304	1.174	9.359	1505.495	1504.029	1509.890	1.863	-0.183	-5.634	-5.971	-0.689	8.344
79494.049	NaN	-3.293	1.174	9.348	1505.495	1504.029	1510.623	1.771	-0.122	-5.359	-6.124	-0.689	8.191
79495.026	NaN	-3.293	1.174	9.348	1505.495	1504.029	1509.890	1.740	-0.015	-5.344	-5.971	-0.612	8.268
79496.002	NaN	-3.293	1.163	9.337	1505.495	1504.029	1509.890	1.527	-0.015	-5.282	-6.048	-0.612	8.344
79498.932	NaN	-3.283	1.163	9.337	1504.762	1504.762	1510.623	2.000	-0.076	-5.573	-5.971	-0.689	8.268
79499.908	NaN	-3.283	1.174	9.337	1504.762	1504.029	1509.890	1.908	0.000	-5.481	-5.895	-0.689	8.421
79500.885	NaN	-3.283	1.185	9.337	1505.495	1504.029	1511.355	1.985	0.092	-5.618	-5.971	-0.536	8.421
79501.862	NaN	-3.293	1.185	9.348	1504.029	1504.762	1509.890	1.893	0.092	-5.557	-5.971	-0.689	8.268
79502.838	NaN	-3.283	1.185	9.337	1505.495	1504.029	1510.623	1.679	-0.107	-5.237	-5.895	-0.612	8.268
79503.815	NaN	-3.293	1.196	9.348	1505.495	1504.029	1510.623	1.710	-0.031	-5.405	-6.124	-0.612	8.268
79504.791	NaN	-3.293	1.185	9.359	1505.495	1503.297	1509.890	1.603	0.153	-5.664	-5.895	-0.766	8.268
79505.768	NaN	-3.293	1.185	9.348	1502.564	1503.297	1509.158	1.725	0.244	-5.511	-6.124	-0.766	8.344
79506.744	NaN	-3.304	1.174	9.337	1505.495	1504.029	1511.355	1.679	0.260	-5.389	-5.818	-0.766	8.268
79507.721	NaN	-3.293	1.185	9.337	1505.495	1504.762	1510.623	1.863	-0.015	-5.496	-6.124	-0.689	8.344
79508.698	NaN	-3.283	1.185	9.348	1503.297	1504.029	1511.355	1.954	-0.107	-5.527	-6.048	-0.842	8.268
79509.674	NaN	-3.293	1.185	9.337	1505.495	1503.297	1512.088	1.817	-0.015	-5.496	-5.895	-0.612	8.344
79510.651	NaN	-3.293	1.174	9.337	1505.495	1504.029	1509.158	1.786	0.046	-5.481	-6.048	-0.689	8.344
79511.627	NaN	-3.283	1.174	9.337	1504.762	1503.297	1508.425	1.924	0.076	-5.420	-5.895	-0.689	8.268
79512.604	NaN	-3.283	1.185	9.337	1504.762	1504.762	1510.623	1.893	0.015	-5.328	-5.971	-0.766	8.191
79513.580	NaN	-3.283	1.174	9.337	1505.495	1504.029	1509.158	1.756	0.092	-5.481	-6.048	-0.536	8.344
79514.557	NaN	-3.293	1.174	9.337	1504.762	1504.762	1509.158	1.664	0.092	-5.679	-6.048	-0.689	8.191
79515.533	NaN	-3.283	1.174	9.337	1505.495	1504.029	1509.890	1.450	0.061	-5.771	-6.048	-0.612	8.344
79516.510	NaN	-3.283	1.174	9.348	1505.495	1503.297	1510.623	1.542	0.076	-5.679	-5.971	-0.612	8.344
79517.487	NaN	-3.283	1.163	9.348	1504.762	1503.297	1510.623	1.557	0.168	-5.527	-5.971	-0.766	8.191
79518.463	NaN	-3.304	1.152	9.348	1502.564	1503.297	1510.623	1.832	0.244	-5.344	-5.971	-0.612	8.191
79519.440	NaN	-3.304	1.163	9.337	1506.227	1503.297	1509.890	1.954	0.275	-5.466	-6.048	-0.766	8.268
79520.416	NaN	-3.304	1.163	9.326	1504.762	1503.297	1509.890	1.863	0.244	-5.511	-5.971	-0.689	8.498
79521.393	NaN	-3.293	1.174	9.326	1504.762	1504.029	1510.623	1.878	0.046	-5.496	-5.971	-0.689	8.191
79522.369	NaN	-3.283	1.174	9.337	1504.762	1504.029	1510.623	1.802	0.122	-5.618	-5.895	-0.689	8.268
79523.346	NaN	-3.293	1.163	9.348	1505.495	1502.564	1509.890	1.618	0.198	-5.634	-6.124	-0.766	8.344
79524.323	NaN	-3.293	1.163	9.348	1504.762	1503.297	1509.158	1.603	0.275	-5.557	-5.971	-0.766	8.115
79525.299	NaN	-3.293	1.174	9.337	1504.029	1504.762	1509.890	1.817	0.061	-5.725	-5.971	-0.689	8.344
79526.276	NaN	-3.283	1.174	9.337	1505.495	1503.297	1512.088	1.740	0.046	-5.679	-6.048	-0.612	8.191
79527.252	NaN	-3.272	1.174	9.337	1504.029	1504.029	1509.890	1.695	0.015	-5.634	-6.124	-0.689	8.191
79528.229	NaN	-3.283	1.163	9.337	1505.495	1503.297	1510.623	1.756	0.061	-5.542	-5.895	-0.689	8.115
79535.065	NaN	-3.293	1.174	9.326	1503.297	1504.029	1509.158	1.908	0.305	-5.481	-5.971	-0.766	7.962
79536.041	NaN	-3.293	1.174	9.326	1504.762	1503.297	1509.158	1.863	0.321	-5.496	-5.895	-0.689	8.268
79537.018	NaN	-3.293	1.174	9.326	1504.762	1504.029	1509.158	2.092	0.244	-5.603	-5.971	-0.536	8.038
79537.994	NaN	-3.293	1.174	9.315	1504.029	1502.564	1509.890	2.046	0.153	-5.634	-5.895	-0.689	8.344
79538.971	NaN	-3.272	1.185	9.315	1505.495	1504.029	1511.355	1.939	0.153	-5.679	-6.048	-0.842	8.344
79539.948	NaN	-3.283	1.174	9.315	1505.495	1504.029	1509.890	1.939	0.000	-5.511	-6.048	-0.612	8.268
79540.924	NaN	-3.272	1.174	9.315	1503.297	1504.029	1509.158	2.031	0.031	-5.328	-6.048	-0.766	8.344
79541.901	NaN	-3.272	1.185	9.326	1505.495	1504.029	1509.890	1.969	0.290	-5.359	-5.971	-0.766	8.344
79542.877	NaN	-3.261	1.185	9.315	1504.762	1504.029	1512.821	1.710	0.351	-5.557	-5.895	-0.689	8.268
79543.854	NaN	-3.250	1.196	9.326	1505.495	1504.029	1510.623	1.863	0.351	-5.756	-5.895	-0.766	8.268
79544.830	NaN	-3.250	1.174	9.326	1505.495	1503.297	1509.158	1.878	0.305	-5.618	-5.971	-0.689	8.344
79545.807	NaN	-3.250	1.174	9.337	1504.762	1503.297	1510.623	1.908	0.397	-5.298	-5.895	-0.689	8.344
79546.783	NaN	-3.272	1.163	9.348	1504.029	1503.297	1510.623	1.847	0.290	-5.252	-6.048	-0.612	8.191
79547.760	NaN	-3.283	1.163	9.348	1504.029	1504.029	1509.158	1.802	0.122	-5.496	-6.048	-0.689	8.191
79548.737	NaN	-3.283	1.185	9.337	1503.297	1503.297	1509.890	1.802	0.198	-5.603	-5.971	-0.612	8.115
79549.713	NaN	-3.272	1.196	9.337	1505.495	1504.029	1510.623	1.863	0.214	-5.573	-5.895	-0.689	8.344
79550.690	NaN	-3.283	1.185	9.337	1504.762	1504.029	1509.890	1.985	0.260	-5.389	-5.895	-0.689	8.191
79551.666	NaN	-3.293	1.185	9.326	1505.495	1504.029	1509.890	1.985	0.290	-5.313	-5.971	-0.612	8.421
79553.619	NaN	-3.283	1.185	9.337	1505.495	1503.297	1511.355	2.229	0.290	-5.389	-6.048	-0.689	8.344
79554.596	NaN	-3.272	1.196	9.326	1506.227	1503.297	1510.623	2.397	0.336	-5.359	-6.048	-0.689	8.191
79555.573	NaN	-3.283	1.185	9.326	1504.762	1503.297	1509.158	2.168	0.397	-5.344	-5.971	-0.766	8.421
79556.549	NaN	-3.283	1.185	9.326	1505.495	1504.762	1509.890	1.771	0.382	-5.313	-6.048	-0.689	8.115
79557.526	NaN	-3.283	1.185	9.326	1505.495	1504.029	1510.623	1.832	0.351	-5.466	-5.895	-0.766	8.191
79558.502	NaN	-3.283	1.185	9.326	1505.495	1503.297	1510.623	2.214	0.244	-5.618	-5.818	-0.766	8.268
79559.479	NaN	-3.283	1.185	9.326	1505.495	1504.029	1509.158	2.321	0.580	-5.450	-5.971	-0.612	8.191
79560.455	NaN	-3.293	1.185	9.315	1506.227	1502.564	1509.890	2.412	0.473	-5.313	-5.971	-0.842	8.268
79561.432	NaN	-3.283	1.185	9.315	1504.762	1504.762	1511.355	2.305	0.244	-5.313	-5.971	-0.689	8.191
79562.408	NaN	-3.272	1.185	9.315	1505.495	1504.029	1509.158	2.168	0.168	-5.328	-5.971	-0.612	8.344
79563.385	NaN	-3.272	1.174	9.326	1504.029	1504.762	1510.623	2.031	0.244	-5.298	-6.048	-0.689	8.268
79564.362	NaN	-3.283	1.174	9.315	1504.762	1504.029	1510.623	2.092	0.489	-5.328	-6.048	-0.612	8.191
79565.338	NaN	-3.283	1.185	9.315	1505.495	1504.762	1509.158	2.076	0.611	-5.282	-5.971	-0.689	8.115
79566.315	NaN	-3.283	1.196	9.315	1502.564	1504.029	1511.355	2.198	0.489	-5.328	-5.895	-0.766	8.344
79567.291	NaN	-3.283	1.196	9.315	1505.495	1503.297	1510.623	2.031	0.580	-5.328	-5.971	-0.689	8.191
79568.268	NaN	-3.293	1.196	9.315	1504.762	1503.297	1509.890	2.153	0.397	-5.252	-5.971	-0.766	8.268
79569.244	NaN	-3.304	1.185	9.304	1504.762	1504.762	1508.425	1.878	0.305	-5.298	-6.048	-0.766	8.268
79570.221	NaN	-3.293	1.196	9.315	1506.960	1504.762	1511.355	2.031	0.336	-5.420	-5.971	-0.459	8.344
79571.198	NaN	-3.293	1.196	9.315	1504.762	1504.762	1509.158	2.137	0.489	-5.389	-5.818	-0.689	8.268
79572.174	NaN	-3.293	1.207	9.315	1504.762	1504.029	1510.623	2.061	0.443	-5.435	-5.818	-0.689	8.191
79573.151	NaN	-3.293	1.207	9.326	1504.029	1504.029	1510.623	2.244	0.214	-5.542	-5.971	-0.766	8.191
79574.127	NaN	-3.283	1.207	9.315	1504.762	1504.029	1510.623	2.351	0.198	-5.405	-5.895	-0.766	8.191
79575.104	NaN	-3.283	1.185	9.304	1505.495	1503.297	1510.623	2.336	0.351	-5.328	-6.048	-0.689	8.344
79576.080	NaN	-3.272	1.185	9.304	1505.495	1504.029	1509.890	2.000	0.229	-5.389	-5.818	-0.766	8.268
79577.057	NaN	-3.272	1.174	9.304	1505.495	1503.297	1509.158	1.908	0.275	-5.527	-6.048	-0.766	8.191
79578.033	NaN	-3.272	1.185	9.315	1504.762	1503.297	1509.158	2.000	0.427	-5.420	-5.742	-0.612	8.268
79579.010	NaN	-3.272	1.185	9.315	1506.960	1504.029	1511.355	2.061	0.275	-5.405	-6.048	-0.689	8.268
79579.987	NaN	-3.283	1.174	9.315	1504.762	1503.297	1509.890	2.214	0.275	-5.450	-5.971	-0.766	8.115
79580.963	NaN	-3.272	1.163	9.315	1504.762	1503.297	1509.158	2.137	0.397	-5.374	-5.971	-0.689	8.191
79581.940	NaN	-3.261	1.174	9.315	1504.762	1504.029	1510.623	2.046	0.382	-5.420	-5.971	-0.689	8.268
79582.916	NaN	-3.272	1.163	9.304	1504.762	1502.564	1510.623	1.985	0.351	-5.420	-6.048	-0.766	8.421
79583.893	NaN	-3.272	1.185	9.304	1504.029	1502.564	1508.425	2.061	0.473	-5.328	-5.971	-0.612	8.268
79584.869	NaN	-3.272	1.185	9.304	1504.762	1504.029	1509.890	2.244	0.611	-5.435	-5.971	-0.612	8.344
79585.846	NaN	-3.272	1.196	9.326	1505.495	1504.762	1509.158	2.015	0.519	-5.511	-5.895	-0.766	8.191
79586.823	NaN	-3.283	1.185	9.326	1503.297	1504.029	1509.890	1.954	0.443	-5.374	-6.048	-0.689	8.191
79587.799	NaN	-3.293	1.185	9.326	1505.495	1504.762	1511.355	2.244	0.534	-5.405	-5.971	-0.842	8.115
79588.776	NaN	-3.283	1.185	9.337	1504.762	1504.029	1510.623	2.275	0.382	-5.664	-6.048	-0.459	8.191
79589.752	NaN	-3.293	1.185	9.337	1505.495	1504.029	1509.890	2.122	0.412	-5.557	-5.895	-0.766	8.115
79590.729	NaN	-3.283	1.174	9.337	1504.762	1503.297	1509.890	2.168	0.397	-5.252	-5.971	-0.612	8.268
79591.705	NaN	-3.283	1.174	9.348	1504.762	1504.029	1509.158	2.015	0.504	-5.206	-6.048	-0.612	8.498
79592.682	NaN	-3.283	1.174	9.348	1504.762	1504.762	1511.355	2.031	0.504	-5.450	-6.048	-0.766	8.268
79593.658	NaN	-3.283	1.185	9.348	1506.227	1504.029	1509.158	2.107	0.489	-5.634	-5.971	-0.689	8.268
79594.635	NaN	-3.283	1.185	9.348	1505.495	1504.762	1509.158	2.137	0.565	-5.511	-5.895	-0.689	8.268
79595.612	NaN	-3.283	1.185	9.337	1505.495	1504.029	1509.890	2.229	0.534	-5.328	-5.971	-0.612	8.268
79596.588	NaN	-3.283	1.185	9.326	1505.495	1504.029	1509.158	2.214	0.611	-5.252	-5.971	-0.689	8.268
79597.565	NaN	-3.283	1.185	9.337	1505.495	1504.029	1509.890	2.260	0.718	-5.176	-5.895	-0.689	8.344
79598.541	NaN	-3.293	1.185	9.337	1506.227	1504.029	1510.623	2.000	0.641	-5.389	-5.971	-0.689	8.421
79599.518	NaN	-3.293	1.174	9.337	1504.762	1503.297	1509.158	2.015	0.748	-5.527	-6.048	-0.766	8.268
79600.494	NaN	-3.293	1.174	9.348	1504.029	1502.564	1509.890	2.015	0.824	-5.573	-5.971	-0.689	8.268
79601.471	NaN	-3.293	1.174	9.348	1505.495	1503.297	1508.425	1.771	0.504	-5.435	-6.124	-0.689	8.268
79602.448	NaN	-3.293	1.185	9.348	1505.495	1504.029	1509.890	1.832	0.458	-5.511	-5.971	-0.766	8.191
79603.424	NaN	-3.293	1.196	9.348	1504.762	1504.029	1509.158	1.954	0.611	-5.511	-5.895	-0.689	8.191
79604.401	NaN	-3.293	1.185	9.359	1505.495	1504.029	1509.158	2.107	0.611	-5.527	-5.895	-0.842	8.191
79605.377	NaN	-3.304	1.196	9.348	1505.495	1502.564	1509.158	2.061	0.427	-5.557	-6.048	-0.612	8.344
79606.354	NaN	-3.283	1.185	9.359	1503.297	1504.029	1510.623	2.122	0.534	-5.389	-5.971	-0.612	8.268
79607.330	NaN	-3.283	1.185	9.348	1505.495	1502.564	1509.890	2.229	0.794	-5.313	-5.971	-0.689	8.344
79608.307	NaN	-3.272	1.185	9.348	1505.495	1503.297	1511.355	2.443	0.809	-5.298	-5.971	-0.612	8.344
79609.283	NaN	-3.304	1.163	9.337	1504.762	1503.297	1510.623	2.305	1.008	-5.359	-5.971	-0.766	8.344
79610.260	NaN	-3.293	1.163	9.337	1506.227	1504.762	1512.821	2.137	0.794	-5.481	-5.971	-0.766	8.344
79611.237	NaN	-3.293	1.163	9.326	1504.762	1504.029	1511.355	2.031	0.580	-5.313	-5.895	-0.689	8.115
79612.213	3736848013.397	-3.293	1.152	9.326	1506.227	1503.297	1509.890	1.832	0.550	-5.267	-5.971	-0.689	8.344
79613.190	NaN	-3.293	1.163	9.337	1506.227	1504.029	1509.158	1.847	0.733	-5.527	-5.895	-0.766	8.268
79614.166	NaN	-3.293	1.163	9.326	1505.495	1504.029	1510.623	1.954	0.809	-5.817	-5.971	-0.766	8.268
79615.143	NaN	-3.293	1.163	9.326	1504.029	1503.297	1509.158	1.985	0.794	-5.771	-5.818	-0.612	8.344
79616.119	NaN	-3.283	1.163	9.326	1505.495	1504.029	1510.623	1.939	0.687	-5.664	-6.048	-0.689	8.268
79617.096	NaN	-3.283	1.163	9.326	1504.762	1503.297	1510.623	1.725	0.702	-5.496	-5.818	-0.766	8.268
79618.073	NaN	-3.283	1.163	9.337	1504.762	1504.029	1509.158	1.740	0.687	-5.496	-5.818	-0.689	8.115
79619.049	NaN	-3.283	1.185	9.337	1506.227	1504.762	1510.623	1.847	0.733	-5.649	-5.895	-0.689	8.421
79620.026	NaN	-3.272	1.185	9.348	1504.029	1504.029	1510.623	2.031	0.794	-5.389	-5.895	-0.689	8.344
79621.002	NaN	-3.283	1.196	9.348	1504.762	1504.762	1509.158	2.275	0.763	-5.450	-5.971	-0.689	8.344
79621.979	NaN	-3.283	1.196	9.359	1504.029	1503.297	1509.890	2.244	0.687	-5.557	-6.048	-0.689	8.191
79622.955	NaN	-3.272	1.196	9.359	1506.227	1504.029	1510.623	1.924	0.779	-5.588	-5.971	-0.689	8.268
79623.932	NaN	-3.272	1.196	9.370	1505.495	1504.762	1509.890	2.122	0.702	-5.511	-5.971	-0.536	8.268
79624.908	NaN	-3.283	1.196	9.370	1504.762	1503.297	1509.158	2.229	0.626	-5.344	-5.971	-0.612	8.421
79625.885	NaN	-3.272	1.207	9.370	1505.495	1504.029	1510.623	2.153	0.855	-5.252	-5.971	-0.689	8.268
79626.862	NaN	-3.283	1.196	9.359	1501.099	1506.227	1509.890	2.000	0.931	-5.298	-5.895	-0.766	8.344
79627.838	NaN	-3.272	1.185	9.348	1504.762	1502.564	1509.890	2.198	0.947	-5.466	-5.895	-0.689	8.268
79628.815	NaN	-3.283	1.196	9.348	1505.495	1503.297	1509.158	2.321	0.901	-5.573	-5.971	-0.689	8.191
79629.791	NaN	-3.283	1.185	9.337	1505.495	1504.029	1510.623	2.122	0.809	-5.603	-5.818	-0.689	8.268
79630.768	NaN	-3.283	1.196	9.348	1505.495	1503.297	1509.158	2.092	0.870	-5.511	-5.971	-0.766	8.268
79631.744	NaN	-3.283	1.185	9.326	1504.029	1504.029	1509.158	1.893	0.855	-5.435	-5.971	-0.766	8.344
79632.721	NaN	-3.283	1.185	9.326	1505.495	1504.029	1511.355	1.985	0.870	-5.481	-6.124	-0.689	8.191
79633.698	NaN	-3.283	1.185	9.326	1505.495	1504.029	1511.355	2.198	0.748	-5.511	-5.971	-0.766	8.191
79634.674	NaN	-3.283	1.185	9.326	1506.227	1504.029	1510.623	2.046	0.840	-5.511	-5.971	-0.689	8.268
79635.651	NaN	-3.283	1.174	9.326	1505.495	1504.029	1510.623	2.031	0.855	-5.313	-5.895	-0.766	8.115
79636.627	NaN	-3.293	1.174	9.337	1505.495	1504.762	1510.623	1.954	0.702	-5.267	-5.895	-0.919	8.191
79637.604	NaN	-3.293	1.163	9.337	1502.564	1504.029	1510.623	1.908	0.870	-5.511	-5.971	-0.689	8.268
79638.580	NaN	-3.293	1.152	9.326	1504.762	1503.297	1509.890	1.969	1.008	-5.634	-5.971	-0.612	8.115
79639.557	NaN	-3.283	1.163	9.326	1505.495	1504.029	1509.158	2.015	0.916	-5.542	-5.971	-0.536	8.191
79640.533	NaN	-3.293	1.163	9.326	1504.762	1503.297	1509.890	2.061	0.809	-5.466	-5.895	-0.612	8.268
79641.510	NaN	-3.293	1.174	9.337	1504.762	1503.297	1508.425	2.000	0.824	-5.603	-5.895	-0.612	8.191
79642.487	NaN	-3.293	1.174	9.337	1504.762	1502.564	1509.158	2.000	0.763	-5.695	-5.895	-0.689	8.268
79643.463	NaN	-3.283	1.174	9.326	1504.029	1503.297	1509.158	2.183	0.870	-5.740	-5.971	-0.612	8.344
79644.440	NaN	-3.293	1.174	9.337	1504.762	1504.029	1509.158	2.260	0.733	-5.344	-6.048	-0.612	8.268
79645.416	NaN	-3.293	1.174	9.337	1505.495	1504.029	1509.890	1.863	0.779	-5.466	-5.895	-0.612	8.421
79646.393	NaN	-3.283	1.185	9.348	1505.495	1504.029	1511.355	1.771	0.855	-5.817	-6.048	-0.612	8.268
79647.369	NaN	-3.293	1.174	9.348	1505.495	1503.297	1509.890	1.969	0.931	-5.740	-5.971	-0.766	8.191
79648.346	NaN	-3.293	1.185	9.348	1504.762	1504.762	1509.890	2.244	0.947	-5.557	-6.124	-0.689	8.498
79649.323	NaN	-3.293	1.185	9.337	1505.495	1504.029	1509.890	2.153	0.977	-5.588	-5.895	-0.842	8.421
79650.299	NaN	-3.283	1.196	9.348	1506.227	1504.029	1510.623	1.893	0.809	-5.634	-6.048	-0.612	8.191
79651.276	NaN	-3.272	1.185	9.337	1504.762	1504.762	1507.692	2.107	0.702	-5.527	-5.895	-0.766	8.268
79652.252	NaN	-3.272	1.196	9.337	1506.227	1504.029	1509.890	2.244	0.840	-5.344	-5.971	-0.689	8.191
79653.229	NaN	-3.283	1.196	9.326	1504.762	1504.029	1509.890	2.153	0.824	-5.435	-6.048	-0.689	8.191
79654.205	NaN	-3.293	1.174	9.315	1504.762	1503.297	1509.158	2.122	0.687	-5.420	-5.971	-0.689	8.191
79655.182	NaN	-3.283	1.185	9.315	1504.762	1504.029	1509.890	2.137	0.824	-5.313	-6.048	-0.689	8.268
79656.158	NaN	-3.293	1.185	9.326	1505.495	1504.029	1511.355	2.168	0.840	-5.420	-5.895	-0.689	8.344
79657.135	NaN	-3.293	1.185	9.326	1504.762	1504.029	1509.890	2.168	0.916	-5.573	-6.048	-0.689	8.344
79658.112	NaN	-3.283	1.185	9.326	1505.495	1504.029	1509.158	2.092	0.916	-5.603	-6.048	-0.766	8.268
79659.088	NaN	-3.283	1.185	9.326	1505.495	1504.762	1509.890	2.107	0.962	-5.496	-6.048	-0.689	8.268
79660.065	NaN	-3.272	1.185	9.326	1504.762	1503.297	1510.623	2.107	0.824	-5.481	-5.895	-0.612	8.191
79661.041	NaN	-3.283	1.185	9.337	1505.495	1504.762	1510.623	2.229	0.794	-5.435	-6.048	-0.766	8.268
79662.018	NaN	-3.283	1.185	9.326	1505.495	1503.297	1509.890	2.321	0.962	-5.282	-5.895	-0.612	8.115
79662.994	NaN	-3.283	1.163	9.326	1504.762	1504.029	1509.158	2.351	0.824	-5.344	-5.895	-0.689	8.038
79663.971	NaN	-3.293	1.185	9.337	1505.495	1503.297	1510.623	2.351	0.763	-5.496	-5.895	-0.612	8.268
79664.948	NaN	-3.304	1.174	9.337	1502.564	1504.029	1509.158	2.427	0.885	-5.557	-6.124	-0.766	8.191
79665.924	NaN	-3.293	1.185	9.326	1503.297	1502.564	1509.158	2.198	0.809	-5.634	-6.048	-0.689	8.191
79666.901	NaN	-3.293	1.174	9.326	1505.495	1503.297	1510.623	2.183	0.702	-5.725	-5.971	-0.689	8.191
79667.877	NaN	-3.293	1.185	9.326	1505.495	1504.762	1511.355	2.275	0.626	-5.710	-5.971	-0.612	8.268
79668.854	NaN	-3.283	1.174	9.337	1504.762	1504.029	1510.623	2.336	0.718	-5.695	-5.971	-0.689	8.268
79669.830	NaN	-3.293	1.174	9.337	1505.495	1504.029	1510.623	2.092	0.916	-5.679	-5.895	-0.766	8.344
79670.807	NaN	-3.283	1.174	9.337	1504.762	1504.029	1509.890	2.183	0.885	-5.618	-6.124	-0.689	8.268
79671.783	NaN	-3.304	1.185	9.337	1504.762	1502.564	1509.158	2.412	0.794	-5.481	-5.971	-0.612	8.115
79672.760	NaN	-3.293	1.185	9.348	1506.227	1504.029	1510.623	2.580	0.962	-5.481	-5.895	-0.766	8.115
79673.737	NaN	-3.293	1.185	9.337	1505.495	1503.297	1510.623	2.565	0.931	-5.496	-6.124	-0.612	8.191
79674.713	NaN	-3.293	1.185	9.326	1505.495	1504.029	1510.623	2.260	0.824	-5.710	-5.971	-0.612	8.268
79675.690	NaN	-3.293	1.185	9.337	1505.495	1503.297	1508.425	2.397	0.824	-5.649	-5.818	-0.766	8.421
79676.666	NaN	-3.283	1.185	9.326	1505.495	1503.297	1509.890	2.366	0.840	-5.481	-5.971	-0.689	8.191
79677.643	NaN	-3.293	1.196	9.326	1504.762	1504.029	1508.425	2.198	0.733	-5.496	-6.048	-0.689	8.268
79678.619	NaN	-3.272	1.207	9.337	1504.762	1504.029	1510.623	2.076	0.718	-5.420	-5.895	-0.612	8.191
79679.596	NaN	-3.283	1.196	9.326	1505.495	1504.762	1510.623	2.092	0.763	-5.344	-5.895	-0.689	8.344
79680.573	NaN	-3.283	1.196	9.326	1504.762	1503.297	1509.158	2.061	0.809	-5.481	-5.895	-0.536	8.421
79681.549	NaN	-3.272	1.196	9.337	1505.495	1504.029	1509.158	1.954	0.840	-5.618	-5.971	-0.689	8.191
79682.526	NaN	-3.293	1.196	9.326	1505.495	1503.297	1509.158	2.153	0.855	-5.756	-5.971	-0.689	8.268
79683.502	NaN	-3.283	1.196	9.326	1504.029	1504.029	1509.158	2.153	0.779	-5.695	-5.971	-0.612	8.344
79684.479	NaN	-3.272	1.185	9.315	1504.762	1504.029	1509.890	2.107	0.779	-5.450	-5.971	-0.689	8.115
79685.455	NaN	-3.283	1.185	9.304	1504.762	1504.762	1509.890	2.076	0.870	-5.649	-5.971	-0.612	8.191
79686.432	NaN	-3.283	1.185	9.326	1505.495	1504.762	1510.623	2.321	0.885	-5.878	-5.971	-0.766	8.268
79687.408	NaN	-3.293	1.185	9.315	1504.762	1504.029	1509.890	2.260	0.855	-5.908	-6.048	-0.612	8.268
79688.385	NaN	-3.304	1.196	9.315	1505.495	1504.762	1510.623	2.229	0.748	-5.679	-5.895	-0.612	8.191
79689.362	NaN	-3.315	1.174	9.315	1504.029	1503.297	1510.623	2.290	0.656	-5.496	-5.818	-0.689	8.268
79690.338	NaN	-3.315	1.196	9.304	1505.495	1504.762	1509.890	2.107	0.794	-5.542	-5.971	-0.612	8.268
79691.315	NaN	-3.304	1.196	9.304	1505.495	1504.029	1510.623	2.107	1.099	-5.466	-6.048	-0.612	8.268
79692.291	NaN	-3.304	1.196	9.315	1506.227	1503.297	1509.890	2.275	1.084	-5.511	-6.048	-0.766	8.191
79693.268	NaN	-3.293	1.196	9.304	1505.495	1504.029	1510.623	2.076	0.779	-5.618	-6.048	-0.766	8.344
79694.244	NaN	-3.304	1.185	9.304	1506.227	1504.029	1511.355	1.954	0.611	-5.511	-5.971	-0.689	8.115
79695.221	NaN	-3.304	1.185	9.326	1504.762	1504.762	1509.890	2.015	0.794	-5.603	-5.895	-0.689	8.344
79696.198	NaN	-3.293	1.185	9.315	1506.227	1504.029	1511.355	2.122	0.779	-5.634	-5.971	-0.766	8.421
79697.174	NaN	-3.283	1.185	9.315	1505.495	1504.029	1509.890	2.122	0.687	-5.634	-6.048	-0.612	8.268
79698.151	NaN	-3.283	1.174	9.304	1504.762	1504.762	1509.890	2.076	0.901	-5.695	-6.048	-0.766	8.344
79699.127	NaN	-3.283	1.174	9.304	1506.960	1504.762	1509.890	2.122	0.901	-5.786	-5.971	-0.689	8.344
79700.104	NaN	-3.293	1.185	9.315	1505.495	1504.029	1510.623	2.168	0.855	-5.603	-5.971	-0.689	8.344
79701.080	NaN	-3.293	1.185	9.315	1504.762	1504.029	1509.890	2.107	0.687	-5.313	-5.971	-0.689	8.191
79702.057	NaN	-3.293	1.185	9.326	1506.227	1504.029	1509.158	2.107	0.580	-5.298	-5.971	-0.766	8.344
79703.033	NaN	-3.304	1.185	9.337	1504.762	1504.029	1509.890	1.985	0.550	-5.557	-5.971	-0.766	8.115
79704.010	NaN	-3.304	1.185	9.359	1505.495	1504.029	1510.623	2.046	0.534	-5.695	-6.048	-0.766	8.115
79704.987	NaN	-3.293	1.185	9.359	1505.495	1504.029	1510.623	2.137	0.702	-5.710	-5.971	-0.689	8.268
79705.963	NaN	-3.304	1.185	9.348	1506.227	1504.029	1509.890	1.588	0.519	-5.542	-5.895	-0.689	8.344
79706.940	NaN	-3.304	1.185	9.348	1505.495	1503.297	1509.158	1.649	0.489	-5.603	-6.048	-0.536	8.268
79707.916	NaN	-3.315	1.174	9.348	1506.227	1503.297	1509.890	1.893	0.656	-5.527	-6.124	-0.689	8.191
79708.893	NaN	-3.304	1.185	9.359	1505.495	1504.029	1510.623	2.000	0.687	-5.588	-5.971	-0.689	8.344
79709.869	NaN	-3.293	1.185	9.359	1504.762	1504.029	1511.355	2.137	0.656	-5.710	-6.124	-0.612	8.191
79710.846	NaN	-3.304	1.185	9.370	1505.495	1503.297	1511.355	1.985	0.550	-5.756	-5.971	-0.536	8.268
79711.823	NaN	-3.304	1.174	9.359	1505.495	1503.297	1509.890	1.908	0.489	-5.710	-5.895	-0.536	8.268
79712.799	NaN	-3.293	1.174	9.359	1506.227	1503.297	1509.890	2.015	0.733	-5.679	-5.971	-0.689	8.191
79713.776	NaN	-3.293	1.185	9.348	1506.227	1504.762	1509.890	1.969	0.718	-5.695	-6.124	-0.536	8.268
79714.752	NaN	-3.293	1.185	9.370	1504.762	1503.297	1511.355	2.015	0.672	-5.603	-5.971	-0.689	8.191
79715.729	NaN	-3.293	1.185	9.391	1504.762	1504.029	1510.623	2.183	0.641	-5.725	-5.895	-0.612	8.191
79716.705	NaN	-3.293	1.185	9.380	1505.495	1503.297	1510.623	2.290	0.687	-5.817	-6.124	-0.689	8.115
79717.682	NaN	-3.272	1.185	9.380	1504.762	1504.762	1510.623	2.107	0.656	-5.603	-6.048	-0.612	8.344
79718.658	NaN	-3.272	1.174	9.370	1506.227	1504.029	1509.158	2.000	0.626	-5.496	-5.895	-0.766	8.268
79719.635	NaN	-3.272	1.174	9.359	1505.495	1504.762	1510.623	1.649	0.611	-5.542	-5.971	-0.612	8.115
79720.612	NaN	-3.283	1.163	9.370	1504.762	1503.297	1509.890	1.603	0.595	-5.511	-5.971	-0.689	8.191
79721.588	NaN	-3.293	1.174	9.359	1506.227	1504.762	1510.623	1.771	0.611	-5.695	-6.048	-0.536	8.268
79722.565	NaN	-3.283	1.174	9.359	1505.495	1504.029	1510.623	2.153	0.595	-5.985	-5.895	-0.689	8.344
79723.541	NaN	-3.293	1.185	9.359	1504.762	1503.297	1509.890	2.183	0.519	-5.954	-6.124	-0.766	8.268
79724.518	NaN	-3.304	1.185	9.359	1505.495	1504.029	1510.623	1.985	0.550	-5.557	-5.895	-0.689	8.344
79725.494	NaN	-3.315	1.174	9.359	1504.762	1504.762	1509.890	1.954	0.748	-5.298	-5.971	-0.689	8.268
79726.471	NaN	-3.304	1.185	9.359	1504.762	1504.762	1510.623	1.893	0.656	-5.573	-6.048	-0.766	8.344
79727.448	NaN	-3.315	1.196	9.359	1506.227	1504.029	1510.623	1.908	0.855	-5.847	-6.048	-0.766	8.268
79728.424	NaN	-3.315	1.196	9.359	1505.495	1503.297	1509.890	2.031	0.931	-5.664	-5.895	-0.536	8.191
79729.401	NaN	-3.315	1.185	9.348	1504.029	1504.762	1510.623	1.939	0.718	-5.557	-5.971	-0.689	8.268
79730.377	NaN	-3.326	1.196	9.337	1505.495	1505.495	1509.158	1.969	0.641	-5.573	-5.971	-0.766	8.268
79731.354	NaN	-3.315	1.196	9.337	1506.227	1504.762	1510.623	1.893	0.779	-5.710	-6.048	-0.766	8.268
79732.330	NaN	-3.315	1.185	9.348	1504.762	1504.762	1509.890	1.954	0.916	-5.679	-6.048	-0.536	8.268
79733.307	NaN	-3.315	1.185	9.337	1504.029	1504.029	1511.355	1.969	0.794	-5.664	-5.971	-0.612	8.268
79734.283	NaN	-3.315	1.185	9.326	1504.762	1504.029	1509.890	1.878	0.565	-5.679	-5.971	-0.689	8.191
79735.260	NaN	-3.315	1.185	9.348	1503.297	1504.029	1511.355	1.893	0.489	-5.634	-5.895	-0.612	8.191
79736.237	NaN	-3.304	1.196	9.348	1504.762	1503.297	1509.890	1.878	0.504	-5.573	-6.048	-0.689	8.344
79737.213	NaN	-3.315	1.196	9.337	1505.495	1504.029	1509.158	1.924	0.565	-5.695	-5.971	-0.689	8.191
79738.190	NaN	-3.304	1.207	9.337	1504.029	1503.297	1508.425	1.969	0.580	-5.878	-5.895	-0.766	8.344
79739.166	NaN	-3.304	1.207	9.337	1505.495	1504.762	1510.623	1.908	0.580	-5.756	-6.048	-0.689	8.268
79740.143	NaN	-3.304	1.185	9.337	1505.495	1503.297	1509.890	2.031	0.687	-5.588	-6.048	-0.689	8.268
79741.119	NaN	-3.304	1.185	9.348	1503.297	1503.297	1510.623	2.153	0.824	-5.603	-5.895	-0.612	8.191
79742.096	NaN	-3.293	1.185	9.348	1504.762	1504.762	1509.890	2.137	0.550	-5.740	-6.048	-0.766	8.191
79743.073	NaN	-3.293	1.196	9.348	1504.762	1503.297	1510.623	2.031	0.550	-5.863	-5.971	-0.689	8.344
79744.049	NaN	-3.283	1.196	9.348	1504.762	1504.029	1509.890	2.153	0.489	-6.046	-5.971	-0.766	8.268
79745.026	NaN	-3.304	1.196	9.337	1504.762	1504.029	1509.890	2.092	0.489	-5.954	-5.971	-0.689	8.191
79746.002	NaN	-3.304	1.196	9.337	1504.029	1503.297	1509.158	1.939	0.473	-5.664	-5.895	-0.766	8.344
79746.979	NaN	-3.304	1.207	9.337	1504.029	1504.762	1510.623	1.878	0.397	-5.481	-5.971	-0.766	8.268
79747.955	NaN	-3.304	1.185	9.326	1504.762	1503.297	1508.425	1.863	0.382	-5.496	-5.971	-0.689	8.268
79748.932	NaN	-3.304	1.185	9.326	1503.297	1502.564	1509.890	1.679	0.427	-5.618	-5.971	-0.689	8.344
79749.908	NaN	-3.304	1.174	9.326	1504.762	1503.297	1508.425	1.908	0.458	-5.756	-6.048	-0.612	8.421
79750.885	NaN	-3.304	1.174	9.337	1504.762	1503.297	1508.425	2.107	0.397	-5.756	-5.895	-0.689	8.268
79751.862	NaN	-3.293	1.163	9.359	1504.762	1503.297	1509.890	2.031	0.260	-5.817	-5.971	-0.689	8.191
79752.838	NaN	-3.293	1.163	9.359	1506.227	1503.297	1510.623	1.893	0.366	-5.786	-5.971	-0.689	8.191
79753.815	NaN	-3.304	1.152	9.348	1504.762	1504.029	1509.158	1.878	0.412	-5.786	-5.895	-0.612	8.268
79754.791	NaN	-3.304	1.163	9.348	1504.762	1503.297	1509.158	1.985	0.397	-5.802	-5.895	-0.689	8.268
79755.768	NaN	-3.304	1.174	9.359	1505.495	1504.029	1510.623	2.229	0.443	-5.756	-6.048	-0.766	8.344
79756.744	NaN	-3.315	1.174	9.359	1505.495	1502.564	1509.890	2.061	0.443	-5.679	-6.048	-0.766	8.268
79757.721	NaN	-3.304	1.174	9.370	1505.495	1504.762	1510.623	1.817	0.427	-5.771	-5.971	-0.536	8.268
79758.698	NaN	-3.304	1.174	9.359	1504.762	1502.564	1509.890	1.679	0.565	-5.725	-5.971	-0.689	8.115
79759.674	NaN	-3.293	1.185	9.348	1503.297	1503.297	1510.623	1.618	0.504	-5.756	-5.971	-0.766	8.268
79760.651	NaN	-3.293	1.174	9.348	1504.762	1504.029	1509.890	1.756	0.443	-5.695	-5.971	-0.689	8.268
79761.627	NaN	-3.304	1.174	9.337	1504.762	1504.029	1507.692	1.863	0.397	-5.725	-5.971	-0.766	8.268
79762.604	NaN	-3.293	1.185	9.326	1505.495	1503.297	1509.890	1.969	0.397	-5.725	-5.971	-0.689	8.344
79763.580	NaN	-3.304	1.185	9.326	1504.762	1503.297	1510.623	1.924	0.473	-5.695	-6.124	-0.766	8.268
79764.557	NaN	-3.315	1.185	9.337	1504.762	1503.297	1509.158	1.908	0.489	-5.725	-6.048	-0.689	8.268
79765.533	NaN	-3.304	1.174	9.337	1504.762	1504.029	1508.425	1.802	0.397	-5.710	-6.048	-0.766	8.115
79766.510	NaN	-3.304	1.185	9.337	1504.762	1503.297	1509.158	1.832	0.305	-5.496	-6.048	-0.536	8.268
79767.487	NaN	-3.293	1.185	9.348	1505.495	1504.029	1511.355	2.046	0.260	-5.573	-5.895	-0.689	8.344
79768.463	NaN	-3.293	1.174	9.348	1504.029	1504.029	1510.623	2.260	0.153	-5.634	-5.971	-0.612	8.268
79769.440	NaN	-3.293	1.174	9.337	1506.227	1503.297	1509.890	2.168	0.092	-5.756	-5.971	-0.612	8.268
79770.416	NaN	-3.304	1.174	9.348	1504.029	1502.564	1509.158	2.031	0.290	-5.557	-5.895	-0.689	8.191
79771.393	NaN	-3.304	1.185	9.337	1504.762	1504.762	1510.623	1.893	0.427	-5.466	-5.971	-0.689	8.421
79772.369	NaN	-3.304	1.185	9.326	1506.227	1504.762	1509.890	1.664	0.489	-5.511	-5.971	-0.689	8.268
79773.346	NaN	-3.304	1.174	9.326	1505.495	1504.029	1509.890	1.832	0.412	-5.679	-5.895	-0.689	8.268
79774.323	3736848013.564	-3.304	1.174	9.326	1504.029	1504.029	1509.890	2.092	0.443	-5.603	-6.048	-0.612	8.268
79775.299	NaN	-3.293	1.185	9.326	1506.227	1505.495	1511.355	2.214	0.565	-5.527	-6.048	-0.766	8.268
79776.276	NaN	-3.293	1.185	9.326	1505.495	1504.762	1511.355	1.954	0.382	-5.725	-6.124	-0.689	8.268
79777.252	NaN	-3.304	1.174	9.326	1504.762	1503.297	1511.355	1.939	0.183	-5.878	-5.818	-0.766	8.268
79778.229	NaN	-3.293	1.174	9.315	1505.495	1504.029	1510.623	2.107	0.092	-5.664	-5.971	-0.689	8.191
79779.205	NaN	-3.304	1.174	9.315	1505.495	1503.297	1510.623	2.031	0.183	-5.527	-5.895	-0.689	8.191
79780.182	NaN	-3.293	1.185	9.337	1504.762	1504.762	1509.158	2.244	0.229	-5.664	-6.048	-0.766	8.268
79781.158	NaN	-3.304	1.185	9.337	1505.495	1504.029	1509.890	2.137	0.214	-5.954	-5.971	-0.689	8.344
79782.135	NaN	-3.304	1.185	9.348	1505.495	1503.297	1509.158	2.046	0.305	-5.908	-5.971	-0.766	8.191
79783.112	NaN	-3.304	1.185	9.348	1505.495	1503.297	1511.355	1.771	0.046	-5.634	-5.895	-0.766	8.191
79784.088	NaN	-3.304	1.185	9.337	1505.495	1504.029	1509.890	1.969	-0.061	-5.573	-6.048	-0.766	8.344
79785.065	NaN	-3.304	1.174	9.326	1506.227	1504.029	1510.623	2.000	0.168	-5.573	-5.971	-0.612	8.268
79786.041	NaN	-3.304	1.174	9.315	1506.960	1503.297	1511.355	2.076	0.305	-5.573	-5.895	-0.689	8.191
79787.018	NaN	-3.293	1.174	9.326	1505.495	1504.029	1510.623	2.076	0.290	-5.649	-5.895	-0.612	8.268
79787.994	NaN	-3.304	1.163	9.326	1505.495	1503.297	1508.425	2.183	0.260	-5.649	-5.971	-0.612	8.268
79788.971	NaN	-3.293	1.174	9.348	1505.495	1504.762	1510.623	2.290	0.198	-5.634	-5.971	-0.766	8.268
79789.948	NaN	-3.304	1.174	9.348	1501.832	1504.762	1509.158	2.137	0.198	-5.710	-5.971	-0.689	8.191
79790.924	NaN	-3.293	1.185	9.348	1505.495	1504.762	1509.890	1.878	0.351	-5.664	-6.048	-0.612	8.115
79791.901	NaN	-3.293	1.185	9.348	1506.227	1504.029	1509.158	1.985	0.183	-5.664	-5.971	-0.689	8.268
79792.877	NaN	-3.293	1.185	9.348	1505.495	1504.029	1510.623	1.985	0.076	-5.863	-6.048	-0.536	8.344
79793.854	NaN	-3.293	1.185	9.337	1505.495	1503.297	1509.158	1.924	0.000	-5.679	-6.124	-0.612	8.344
79794.830	NaN	-3.283	1.174	9.337	1505.495	1504.029	1512.088	1.985	0.061	-5.511	-5.971	-0.612	8.191
79795.807	NaN	-3.272	1.185	9.337	1505.495	1504.762	1509.158	2.137	0.046	-5.679	-5.895	-0.612	8.191
79796.783	NaN	-3.283	1.185	9.326	1504.762	1504.029	1509.158	2.046	0.122	-5.847	-6.124	-0.766	8.344
79797.760	NaN	-3.283	1.185	9.326	1504.762	1504.762	1511.355	1.893	0.229	-5.847	-6.048	-0.689	8.115
79798.737	NaN	-3.283	1.185	9.315	1504.762	1504.762	1511.355	2.000	0.153	-5.802	-6.048	-0.689	8.344
79799.713	NaN	-3.283	1.185	9.315	1505.495	1504.029	1510.623	2.153	0.107	-5.725	-5.971	-0.689	8.191
79800.690	NaN	-3.283	1.174	9.304	1504.762	1504.029	1509.890	2.000	0.061	-5.740	-5.971	-0.612	8.268
79801.666	NaN	-3.304	1.174	9.304	1504.029	1503.297	1509.158	2.000	0.092	-5.756	-6.048	-0.689	8.344
79802.643	NaN	-3.293	1.185	9.315	1506.227	1503.297	1511.355	2.122	0.153	-5.756	-5.818	-0.766	8.268
79803.619	NaN	-3.304	1.185	9.315	1504.029	1504.762	1509.158	2.198	0.153	-5.481	-5.971	-0.766	8.115
79804.596	NaN	-3.283	1.185	9.315	1502.564	1504.029	1510.623	2.244	-0.183	-5.511	-6.048	-0.612	8.344
79805.573	NaN	-3.293	1.185	9.315	1504.762	1504.029	1509.890	2.168	-0.107	-5.603	-5.895	-0.766	8.268
79806.549	NaN	-3.293	1.196	9.326	1504.762	1504.762	1510.623	2.076	-0.031	-5.649	-5.971	-0.612	8.344
79807.526	NaN	-3.293	1.185	9.326	1505.495	1504.029	1508.425	1.969	0.061	-5.557	-6.048	-0.689	8.268
79808.502	NaN	-3.283	1.185	9.337	1504.029	1503.297	1509.890	1.969	-0.046	-5.573	-5.971	-0.689	8.191
79809.479	NaN	-3.293	1.185	9.326	1505.495	1503.297	1509.890	1.924	0.015	-5.634	-6.048	-0.612	8.268
79810.455	NaN	-3.293	1.185	9.315	1505.495	1504.762	1510.623	1.969	-0.153	-5.664	-6.048	-0.689	8.268
79811.432	NaN	-3.283	1.185	9.315	1506.960	1503.297	1511.355	2.107	-0.046	-5.603	-6.048	-0.766	8.268
79812.408	NaN	-3.293	1.185	9.326	1505.495	1504.029	1509.890	1.863	0.061	-5.725	-6.124	-0.689	8.115
79813.385	NaN	-3.304	1.185	9.315	1504.762	1504.029	1509.158	1.786	-0.015	-5.847	-5.971	-0.689	8.268
79814.362	NaN	-3.315	1.174	9.326	1505.495	1504.029	1510.623	2.000	-0.168	-5.740	-6.124	-0.766	8.344
79815.338	NaN	-3.315	1.185	9.326	1505.495	1504.762	1510.623	2.076	-0.229	-5.435	-6.048	-0.766	8.268
79816.315	NaN	-3.304	1.196	9.337	1505.495	1504.762	1509.890	2.046	-0.168	-5.481	-5.971	-0.842	8.268
79817.291	NaN	-3.304	1.207	9.326	1505.495	1503.297	1509.158	2.183	-0.076	-5.634	-6.201	-0.766	8.191
79818.268	NaN	-3.304	1.196	9.326	1504.762	1504.762	1510.623	1.939	0.153	-5.832	-5.971	-0.766	8.268
79819.244	NaN	-3.315	1.185	9.326	1504.762	1504.762	1509.158	1.893	0.122	-5.802	-5.971	-0.612	8.115
79820.221	NaN	-3.304	1.185	9.326	1505.495	1504.029	1509.890	2.000	0.046	-5.878	-5.971	-0.766	8.268
79821.198	NaN	-3.304	1.185	9.337	1504.762	1503.297	1510.623	1.939	0.107	-5.756	-6.048	-0.612	8.344
79822.174	NaN	-3.304	1.185	9.337	1504.762	1503.297	1509.890	1.740	0.061	-5.756	-5.971	-0.612	8.268
79823.151	NaN	-3.293	1.185	9.337	1505.495	1503.297	1509.890	1.939	-0.198	-5.420	-6.048	-0.612	8.344
79824.127	NaN	-3.293	1.185	9.337	1505.495	1504.762	1509.158	1.893	-0.305	-5.466	-5.971	-0.689	8.191
79825.104	NaN	-3.293	1.185	9.348	1505.495	1504.029	1512.088	1.969	-0.214	-5.664	-6.048	-0.766	8.344
79826.080	NaN	-3.293	1.174	9.348	1505.495	1504.762	1510.623	1.954	-0.153	-5.725	-5.971	-0.689	8.344
79827.057	NaN	-3.283	1.174	9.348	1505.495	1504.029	1509.890	1.908	-0.046	-5.817	-5.971	-0.689	8.268
79828.033	NaN	-3.293	1.174	9.337	1506.227	1503.297	1509.890	1.908	-0.168	-5.634	-5.971	-0.612	8.344
79829.010	NaN	-3.293	1.163	9.326	1504.762	1502.564	1509.890	1.740	-0.061	-5.695	-5.895	-0.536	8.191
79829.987	NaN	-3.293	1.174	9.326	1504.762	1503.297	1510.623	1.878	-0.031	-5.725	-5.895	-0.612	8.344
79830.963	NaN	-3.293	1.185	9.326	1504.762	1503.297	1510.623	1.985	-0.046	-5.771	-6.048	-0.689	8.268
79831.940	NaN	-3.304	1.174	9.326	1504.029	1504.029	1509.890	2.229	-0.229	-5.725	-5.971	-0.536	8.191
79832.916	NaN	-3.293	1.185	9.326	1506.960	1504.029	1509.158	2.198	-0.153	-5.588	-5.895	-0.612	8.344
79833.893	NaN	-3.293	1.185	9.348	1505.495	1504.762	1510.623	2.031	0.000	-5.603	-6.048	-0.842	8.344
79834.869	NaN	-3.304	1.185	9.348	1506.227	1504.029	1510.623	1.878	-0.031	-5.664	-5.971	-0.689	8.344
79835.846	NaN	-3.293	1.185	9.359	1504.762	1504.029	1512.088	1.817	-0.076	-5.863	-5.971	-0.766	8.268
79836.823	NaN	-3.315	1.174	9.337	1505.495	1504.029	1510.623	1.969	-0.031	-5.878	-5.895	-0.766	8.344
79837.799	NaN	-3.326	1.174	9.337	1505.495	1504.029	1509.158	2.122	-0.137	-5.756	-6.124	-0.536	8.268
79838.776	NaN	-3.293	1.185	9.337	1504.762	1503.297	1509.158	2.092	-0.092	-5.450	-6.048	-0.689	8.421
79839.752	NaN	-3.293	1.174	9.337	1504.762	1503.297	1509.158	2.000	0.015	-5.511	-5.818	-0.689	8.344
79840.729	NaN	-3.304	1.163	9.337	1505.495	1503.297	1510.623	2.076	-0.031	-5.740	-5.895	-0.689	8.421
79841.705	NaN	-3.304	1.163	9.348	1504.762	1504.029	1509.158	2.076	-0.092	-5.618	-5.971	-0.612	8.268
79842.682	NaN	-3.293	1.174	9.370	1506.227	1504.029	1510.623	2.031	-0.137	-5.344	-6.124	-0.842	8.344
79843.658	NaN	-3.304	1.174	9.380	1505.495	1503.297	1509.890	1.969	-0.305	-5.573	-6.048	-0.689	8.421
79844.635	NaN	-3.304	1.174	9.380	1504.029	1503.297	1509.158	1.924	-0.214	-5.511	-5.895	-0.689	8.421
79845.612	NaN	-3.293	1.174	9.380	1504.029	1504.762	1509.890	2.015	-0.214	-5.389	-6.048	-0.612	8.344
79846.588	NaN	-3.304	1.185	9.370	1504.762	1504.762	1509.890	2.031	-0.290	-5.573	-5.971	-0.689	8.268
79847.565	NaN	-3.304	1.163	9.359	1504.762	1503.297	1509.890	2.107	-0.275	-5.481	-5.818	-0.459	8.268
79848.541	NaN	-3.293	1.163	9.359	1504.762	1503.297	1509.890	1.939	-0.183	-5.618	-5.895	-0.612	8.191
79849.518	NaN	-3.293	1.174	9.348	1504.029	1504.029	1509.158	2.046	-0.061	-5.573	-6.048	-0.766	8.191
79850.494	NaN	-3.304	1.174	9.337	1503.297	1503.297	1509.158	2.137	-0.214	-5.618	-5.971	-0.689	8.421
79851.471	NaN	-3.283	1.174	9.348	1506.960	1504.762	1509.890	2.290	-0.244	-5.802	-6.048	-0.689	8.344
79852.448	NaN	-3.304	1.152	9.326	1504.762	1503.297	1509.158	2.397	-0.244	-5.863	-6.048	-0.766	8.268
79853.424	NaN	-3.293	1.163	9.326	1502.564	1503.297	1509.158	2.305	-0.153	-5.786	-5.895	-0.766	8.191
79854.401	NaN	-3.293	1.163	9.337	1505.495	1503.297	1510.623	2.092	-0.198	-5.847	-6.048	-0.766	8.191
79855.377	NaN	-3.304	1.163	9.326	1505.495	1504.029	1510.623	1.954	-0.244	-5.954	-5.971	-0.689	8.268
79856.354	NaN	-3.293	1.174	9.326	1506.227	1504.762	1511.355	1.985	-0.275	-5.725	-6.048	-0.536	8.268
79857.330	NaN	-3.315	1.163	9.337	1504.762	1504.029	1509.158	2.122	-0.198	-5.557	-6.124	-0.689	8.344
79858.307	NaN	-3.304	1.174	9.337	1504.762	1504.029	1510.623	2.061	-0.168	-5.588	-5.971	-0.689	8.191
79859.283	NaN	-3.315	1.163	9.337	1504.029	1503.297	1509.158	2.229	-0.153	-5.618	-5.895	-0.612	8.191
79860.260	NaN	-3.315	1.163	9.359	1504.029	1504.029	1509.890	2.244	-0.122	-5.664	-6.048	-0.689	8.268
79861.237	NaN	-3.304	1.174	9.359	1504.762	1504.029	1508.425	2.290	-0.244	-5.588	-6.048	-0.689	8.344
79862.213	NaN	-3.304	1.163	9.359	1505.495	1503.297	1510.623	2.305	-0.198	-5.557	-5.895	-0.689	8.344
79863.190	NaN	-3.304	1.163	9.359	1504.029	1502.564	1509.158	2.214	-0.168	-5.649	-5.818	-0.689	8.268
79864.166	NaN	-3.304	1.174	9.348	1504.029	1503.297	1508.425	2.137	-0.214	-5.756	-6.048	-0.612	8.268
79865.143	NaN	-3.315	1.174	9.348	1504.762	1503.297	1509.158	2.107	-0.321	-5.771	-5.971	-0.766	8.268
79866.119	NaN	-3.315	1.163	9.359	1505.495	1502.564	1509.158	1.969	-0.321	-5.756	-6.048	-0.689	8.191
79867.096	NaN	-3.293	1.174	9.359	1505.495	1504.029	1510.623	1.985	-0.412	-5.695	-6.048	-0.612	8.268
79868.073	NaN	-3.304	1.185	9.348	1504.029	1504.029	1509.158	2.168	-0.351	-5.710	-6.048	-0.766	8.344
79869.049	NaN	-3.304	1.174	9.348	1503.297	1502.564	1508.425	2.458	-0.198	-5.756	-6.048	-0.612	8.191
79870.026	NaN	-3.293	1.174	9.348	1504.029	1503.297	1509.158	2.351	0.000	-5.695	-5.971	-0.766	8.191
79871.002	NaN	-3.283	1.163	9.337	1505.495	1503.297	1509.890	2.168	0.000	-5.679	-6.048	-0.689	8.268
79871.979	NaN	-3.283	1.163	9.337	1505.495	1504.762	1509.890	2.168	-0.168	-5.496	-5.971	-0.689	8.344
79872.955	NaN	-3.293	1.163	9.326	1505.495	1502.564	1509.158	2.198	-0.275	-5.511	-5.971	-0.689	8.268
79873.932	NaN	-3.283	1.163	9.326	1505.495	1504.029	1509.890	2.092	-0.412	-5.481	-6.048	-0.919	8.268
79874.908	NaN	-3.293	1.163	9.326	1504.762	1504.029	1509.890	2.107	-0.412	-5.466	-5.971	-0.766	8.421
79875.885	NaN	-3.293	1.174	9.326	1504.029	1504.029	1510.623	2.244	-0.397	-5.588	-5.971	-0.612	8.344
79876.862	NaN	-3.293	1.163	9.337	1503.297	1504.029	1511.355	2.137	-0.168	-5.679	-6.048	-0.689	8.344
79877.838	NaN	-3.293	1.163	9.337	1506.227	1504.762	1509.158	2.153	0.107	-5.649	-5.895	-0.766	8.191
79878.815	NaN	-3.283	1.152	9.337	1504.762	1504.029	1511.355	2.214	-0.107	-5.603	-5.971	-0.842	8.038
79879.791	NaN	-3.293	1.163	9.348	1504.762	1504.029	1510.623	2.244	-0.122	-5.725	-6.048	-0.689	8.191
79880.768	NaN	-3.293	1.174	9.337	1505.495	1504.029	1509.890	2.061	-0.214	-5.573	-5.895	-0.689	8.191
79881.744	NaN	-3.304	1.174	9.337	1505.495	1503.297	1509.158	1.924	-0.244	-5.481	-5.895	-0.612	8.344
79882.721	NaN	-3.293	1.185	9.337	1504.762	1503.297	1509.890	2.153	-0.321	-5.573	-6.048	-0.766	8.344
79883.698	NaN	-3.293	1.185	9.337	1504.762	1502.564	1508.425	2.168	-0.427	-5.695	-5.971	-0.766	8.268
79884.674	NaN	-3.283	1.185	9.337	1504.762	1504.029	1510.623	2.214	-0.198	-5.511	-6.048	-0.766	8.115
79889.557	NaN	-3.293	1.185	9.337	1504.762	1503.297	1509.890	2.443	-0.321	-5.756	-6.048	-0.612	8.344
79890.533	NaN	-3.283	1.174	9.337	1505.495	1503.297	1510.623	2.275	-0.336	-5.832	-6.048	-0.766	8.268
79891.510	NaN	-3.283	1.174	9.348	1505.495	1504.029	1509.890	2.076	-0.290	-5.786	-6.201	-0.766	8.421
79892.487	NaN	-3.283	1.185	9.359	1506.227	1504.029	1511.355	2.168	-0.229	-5.725	-6.048	-0.689	8.344
79893.463	NaN	-3.283	1.174	9.348	1504.029	1503.297	1509.890	2.290	-0.107	-5.557	-5.895	-0.612	8.344
79894.440	NaN	-3.272	1.174	9.337	1506.227	1503.297	1509.890	2.290	-0.290	-5.527	-6.048	-0.612	8.344
79895.416	NaN	-3.283	1.163	9.326	1506.227	1503.297	1509.890	2.214	-0.382	-5.634	-5.971	-0.766	8.191
79896.393	NaN	-3.272	1.174	9.326	1504.762	1504.029	1509.890	2.153	-0.336	-5.695	-5.971	-0.689	8.268
79897.369	NaN	-3.272	1.163	9.326	1504.762	1503.297	1509.890	2.153	-0.198	-5.649	-5.895	-0.766	8.191
79898.346	NaN	-3.272	1.174	9.326	1505.495	1503.297	1509.158	2.305	-0.122	-5.603	-5.971	-0.536	8.191
79899.323	NaN	-3.272	1.174	9.315	1504.029	1504.762	1511.355	2.260	-0.244	-5.649	-6.048	-0.612	8.191
79900.299	NaN	-3.272	1.174	9.315	1504.029	1504.029	1509.890	2.046	-0.260	-5.649	-6.048	-0.612	8.268
79901.276	NaN	-3.272	1.163	9.304	1504.762	1503.297	1509.158	1.954	-0.275	-5.588	-5.895	-0.842	8.115
79902.252	NaN	-3.272	1.174	9.304	1504.762	1504.762	1509.158	1.954	-0.092	-5.679	-5.971	-0.689	8.344
79903.229	NaN	-3.261	1.174	9.315	1504.762	1504.029	1511.355	2.153	-0.168	-5.664	-6.124	-0.766	8.498
79904.205	NaN	-3.272	1.185	9.304	1504.762	1503.297	1509.890	2.275	-0.214	-5.664	-5.971	-0.766	8.191
79905.182	NaN	-3.261	1.185	9.304	1506.227	1504.029	1509.890	2.336	-0.351	-5.481	-5.971	-0.612	8.268
79906.158	NaN	-3.283	1.185	9.304	1504.762	1504.029	1509.890	2.412	-0.321	-5.313	-6.048	-0.689	8.268
79907.135	NaN	-3.293	1.185	9.315	1504.762	1503.297	1509.890	2.351	-0.260	-5.328	-6.048	-0.689	8.268
79908.112	NaN	-3.283	1.185	9.326	1504.762	1504.029	1509.890	2.351	-0.183	-5.603	-5.895	-0.766	8.268
79909.088	NaN	-3.283	1.185	9.326	1504.762	1503.297	1509.158	2.412	-0.168	-5.542	-5.971	-0.612	8.268
79910.065	NaN	-3.283	1.185	9.315	1504.762	1504.029	1509.158	2.305	-0.336	-5.450	-6.048	-0.689	8.191
79911.041	NaN	-3.293	1.185	9.315	1505.495	1504.029	1509.890	2.198	-0.382	-5.481	-5.971	-0.689	8.191
79912.018	NaN	-3.293	1.174	9.326	1504.762	1503.297	1509.890	2.122	-0.336	-5.573	-5.971	-0.766	8.421
79912.994	NaN	-3.293	1.174	9.326	1505.495	1504.029	1509.158	2.214	-0.214	-5.786	-5.895	-0.766	8.344
79913.971	NaN	-3.304	1.174	9.337	1504.762	1504.762	1511.355	2.305	-0.321	-5.573	-5.971	-0.689	8.191
79914.948	NaN	-3.304	1.174	9.326	1505.495	1503.297	1510.623	2.321	-0.275	-5.588	-5.971	-0.766	8.191
79915.924	NaN	-3.315	1.185	9.315	1505.495	1504.029	1509.890	2.397	-0.244	-5.786	-5.971	-0.766	8.191
79916.901	NaN	-3.304	1.174	9.315	1504.762	1504.029	1510.623	2.504	-0.275	-5.695	-5.895	-0.689	8.268
79917.877	NaN	-3.293	1.185	9.304	1504.762	1504.762	1510.623	2.412	-0.305	-5.527	-5.818	-0.842	8.191
79918.854	NaN	-3.283	1.185	9.315	1503.297	1504.029	1509.890	2.137	-0.458	-5.832	-6.048	-0.766	8.268
79919.830	NaN	-3.283	1.185	9.326	1502.564	1504.029	1509.158	2.290	-0.489	-5.634	-5.895	-0.766	8.344
79920.807	NaN	-3.283	1.185	9.326	1504.762	1504.029	1509.158	2.382	-0.504	-5.466	-6.048	-0.612	8.115
79921.783	NaN	-3.283	1.185	9.315	1505.495	1503.297	1510.623	2.382	-0.275	-5.420	-5.971	-0.612	8.268
79922.760	NaN	-3.283	1.174	9.326	1505.495	1503.297	1509.158	2.366	-0.229	-5.511	-5.971	-0.612	8.498
79923.737	NaN	-3.272	1.174	9.326	1505.495	1503.297	1509.158	2.443	-0.336	-5.557	-6.048	-0.766	8.191
79924.713	NaN	-3.272	1.185	9.326	1504.762	1504.762	1509.890	2.321	-0.260	-5.542	-5.971	-0.689	8.268
79925.690	NaN	-3.283	1.174	9.326	1504.762	1503.297	1508.425	2.336	-0.092	-5.511	-5.895	-0.689	8.191
79926.666	NaN	-3.283	1.174	9.315	1505.495	1504.029	1509.890	2.580	-0.183	-5.496	-5.971	-0.766	8.344
79927.643	NaN	-3.283	1.174	9.315	1505.495	1504.762	1510.623	2.519	-0.321	-5.450	-5.971	-0.612	8.421
79928.619	NaN	-3.283	1.174	9.315	1504.762	1504.029	1511.355	2.473	-0.290	-5.557	-5.895	-0.766	8.268
79929.596	NaN	-3.283	1.174	9.326	1504.029	1503.297	1509.890	2.321	-0.489	-5.527	-5.895	-0.689	8.191
79930.573	NaN	-3.283	1.163	9.326	1504.762	1504.029	1510.623	2.366	-0.412	-5.466	-5.895	-0.612	8.115
79931.549	NaN	-3.283	1.174	9.315	1504.029	1504.762	1509.158	2.397	-0.229	-5.374	-5.971	-0.766	8.191
79932.526	NaN	-3.283	1.163	9.326	1504.762	1504.762	1509.890	2.412	-0.092	-5.496	-6.048	-0.612	8.421
79933.502	NaN	-3.261	1.163	9.337	1504.762	1504.029	1509.158	2.351	-0.183	-5.542	-6.048	-0.766	8.268
79934.479	NaN	-3.272	1.174	9.348	1504.762	1504.029	1509.890	2.290	-0.351	-5.511	-5.971	-0.766	8.344
79935.455	NaN	-3.283	1.174	9.348	1505.495	1503.297	1511.355	2.244	-0.412	-5.542	-5.971	-0.612	8.115
79936.432	NaN	-3.272	1.174	9.359	1505.495	1504.029	1511.355	2.168	-0.137	-5.603	-6.048	-0.612	8.191
79937.408	NaN	-3.283	1.185	9.348	1501.832	1504.029	1509.890	2.412	-0.031	-5.634	-6.048	-0.612	8.268
79938.385	NaN	-3.283	1.174	9.348	1504.029	1504.029	1510.623	2.656	-0.137	-5.603	-5.895	-0.612	8.268
79939.362	NaN	-3.283	1.174	9.337	1505.495	1504.029	1509.158	2.794	-0.183	-5.573	-5.895	-0.689	8.191
79940.338	NaN	-3.293	1.174	9.337	1504.762	1503.297	1510.623	2.580	-0.260	-5.573	-5.895	-0.612	8.191
79941.315	NaN	-3.283	1.185	9.348	1504.762	1504.029	1509.890	2.366	-0.153	-5.649	-5.895	-0.689	8.191
79942.291	NaN	-3.283	1.174	9.359	1504.762	1504.029	1509.890	2.198	0.000	-5.496	-5.971	-0.689	8.268
79943.268	3736848013.730	-3.293	1.174	9.348	1504.762	1504.029	1508.425	2.382	-0.031	-5.176	-6.048	-0.536	8.268
79944.244	NaN	-3.293	1.174	9.348	1504.029	1503.297	1509.890	2.443	-0.321	-5.282	-5.971	-0.612	8.191
79945.221	NaN	-3.283	1.174	9.359	1504.762	1504.762	1511.355	2.366	-0.397	-5.435	-5.895	-0.536	8.344
79946.198	NaN	-3.283	1.174	9.359	1504.029	1504.029	1509.890	2.336	-0.336	-5.527	-5.818	-0.689	8.268
79947.174	NaN	-3.283	1.174	9.348	1504.762	1503.297	1509.890	2.382	-0.229	-5.435	-6.048	-0.689	8.191
79948.151	NaN	-3.272	1.163	9.348	1505.495	1504.762	1509.158	2.336	-0.107	-5.389	-6.048	-0.689	8.191
79949.127	NaN	-3.272	1.174	9.348	1504.029	1504.029	1509.890	2.290	-0.137	-5.328	-5.895	-0.612	8.344
79950.104	NaN	-3.283	1.163	9.359	1504.029	1503.297	1508.425	2.168	-0.275	-5.328	-5.895	-0.689	8.191
79951.080	NaN	-3.283	1.163	9.348	1504.762	1502.564	1507.692	2.519	-0.092	-5.588	-6.124	-0.689	8.191
79952.057	NaN	-3.272	1.163	9.359	1504.029	1504.029	1510.623	2.504	0.061	-5.588	-5.971	-0.689	8.344
79953.033	NaN	-3.272	1.163	9.359	1504.029	1503.297	1509.158	2.382	0.000	-5.496	-5.818	-0.766	8.344
79954.010	NaN	-3.272	1.185	9.359	1505.495	1505.495	1510.623	2.595	-0.260	-5.298	-5.971	-0.766	8.421
79954.987	NaN	-3.283	1.185	9.348	1504.762	1504.762	1509.890	2.626	-0.260	-5.450	-5.971	-0.842	8.115
79955.963	NaN	-3.293	1.174	9.337	1504.762	1504.029	1509.890	2.321	0.000	-5.557	-5.971	-0.766	8.268
79956.940	NaN	-3.283	1.174	9.337	1505.495	1503.297	1509.158	2.122	0.107	-5.603	-6.048	-0.766	8.421
79957.916	NaN	-3.293	1.163	9.326	1505.495	1503.297	1509.890	2.351	0.092	-5.405	-6.124	-0.612	8.268
79958.893	NaN	-3.283	1.163	9.337	1505.495	1503.297	1509.158	2.550	0.015	-5.328	-5.971	-0.612	8.344
79959.869	NaN	-3.283	1.163	9.337	1504.029	1503.297	1510.623	2.565	-0.107	-5.298	-5.971	-0.689	8.344
79960.846	NaN	-3.293	1.174	9.348	1505.495	1502.564	1508.425	2.550	-0.076	-5.405	-5.895	-0.689	8.268
79961.823	NaN	-3.293	1.163	9.348	1504.762	1504.762	1510.623	2.458	0.031	-5.420	-5.895	-0.612	8.421
79962.799	NaN	-3.283	1.174	9.359	1506.227	1504.029	1509.890	2.397	0.000	-5.466	-5.971	-0.689	8.115
79963.776	NaN	-3.272	1.163	9.370	1504.762	1504.029	1509.890	2.427	-0.153	-5.344	-5.895	-0.612	8.344
79964.752	NaN	-3.283	1.174	9.359	1504.762	1504.762	1509.890	2.611	-0.260	-5.374	-6.048	-0.766	8.268
79965.729	NaN	-3.283	1.174	9.348	1504.762	1504.029	1509.890	2.794	-0.015	-5.389	-5.971	-0.766	8.191
79966.705	NaN	-3.283	1.185	9.359	1505.495	1504.029	1509.158	2.794	0.046	-5.435	-6.048	-0.766	8.191
79967.682	NaN	-3.283	1.185	9.359	1504.029	1504.762	1511.355	2.809	0.015	-5.466	-6.124	-0.689	8.191
79968.658	NaN	-3.293	1.185	9.359	1506.227	1504.029	1509.890	2.656	0.015	-5.527	-5.971	-0.689	8.268
79969.635	NaN	-3.293	1.174	9.359	1505.495	1504.029	1509.890	2.382	0.092	-5.496	-6.048	-0.689	8.344
79970.612	NaN	-3.293	1.163	9.359	1504.762	1504.029	1509.890	2.321	0.046	-5.405	-5.971	-0.612	8.344
79971.588	NaN	-3.293	1.163	9.348	1504.762	1504.029	1509.158	2.458	0.122	-5.435	-6.124	-0.612	8.268
79972.565	NaN	-3.272	1.174	9.348	1505.495	1503.297	1511.355	2.504	0.198	-5.557	-6.048	-0.766	8.268
79973.541	NaN	-3.272	1.163	9.348	1504.029	1504.762	1509.890	2.611	0.229	-5.588	-5.971	-0.689	8.191
79974.518	NaN	-3.261	1.163	9.337	1505.495	1504.029	1510.623	2.336	0.122	-5.359	-5.895	-0.612	8.191
79975.494	NaN	-3.272	1.163	9.337	1505.495	1502.564	1511.355	2.397	0.046	-5.328	-5.895	-0.612	8.268
79976.471	NaN	-3.272	1.174	9.348	1506.227	1504.029	1511.355	2.641	0.031	-5.496	-5.895	-0.612	8.191
79977.448	NaN	-3.283	1.163	9.337	1504.762	1504.762	1510.623	2.641	0.122	-5.450	-6.124	-0.766	8.191
79978.424	NaN	-3.272	1.163	9.337	1505.495	1504.762	1509.890	2.565	0.122	-5.344	-6.048	-0.536	8.268
79979.401	NaN	-3.272	1.152	9.348	1505.495	1504.029	1511.355	2.702	0.168	-5.374	-6.048	-0.766	8.191
79980.377	NaN	-3.283	1.152	9.337	1506.227	1504.762	1510.623	2.641	0.336	-5.344	-5.895	-0.766	8.191
79981.354	NaN	-3.293	1.152	9.337	1504.762	1504.762	1511.355	2.351	0.305	-5.527	-5.971	-0.689	8.268
79982.330	NaN	-3.293	1.163	9.337	1504.762	1504.762	1509.890	2.366	0.107	-5.374	-6.048	-0.766	8.344
79983.307	NaN	-3.293	1.163	9.348	1505.495	1503.297	1509.158	2.580	0.092	-5.160	-5.895	-0.766	8.344
79984.283	NaN	-3.293	1.163	9.326	1505.495	1503.297	1510.623	2.794	0.183	-5.344	-5.971	-0.766	8.344
79985.260	NaN	-3.293	1.174	9.337	1504.029	1503.297	1508.425	2.977	0.366	-5.573	-5.971	-0.689	8.344
79986.237	NaN	-3.293	1.185	9.348	1504.029	1503.297	1509.158	2.977	0.397	-5.557	-5.971	-0.766	8.344
79987.213	NaN	-3.293	1.174	9.337	1504.029	1504.762	1509.158	2.794	0.275	-5.557	-5.895	-0.536	8.191
79988.190	NaN	-3.293	1.163	9.326	1503.297	1503.297	1509.158	2.672	0.198	-5.435	-5.971	-0.689	8.268
79989.166	NaN	-3.283	1.174	9.326	1504.762	1502.564	1509.890	2.626	0.229	-5.450	-6.048	-0.689	8.115
79990.143	NaN	-3.293	1.163	9.326	1504.029	1503.297	1509.890	2.580	0.183	-5.511	-5.818	-0.689	8.344
79991.119	NaN	-3.283	1.163	9.315	1504.762	1503.297	1509.890	2.672	0.244	-5.557	-5.895	-0.689	8.115
79992.096	NaN	-3.261	1.174	9.326	1504.762	1504.029	1509.890	2.809	0.290	-5.649	-6.048	-0.766	8.268
79993.073	NaN	-3.272	1.174	9.337	1505.495	1504.762	1509.158	2.794	0.137	-5.511	-5.895	-0.689	8.344
79994.049	NaN	-3.272	1.174	9.348	1504.029	1504.029	1509.890	2.763	0.214	-5.374	-5.895	-0.766	8.268
79995.026	NaN	-3.261	1.174	9.359	1505.495	1502.564	1507.692	2.718	0.290	-5.450	-5.971	-0.689	8.268
79996.002	NaN	-3.261	1.185	9.359	1504.762	1504.029	1509.890	2.794	0.290	-5.588	-5.895	-0.766	8.421
79996.979	NaN	-3.261	1.185	9.359	1505.495	1504.029	1509.890	2.687	0.290	-5.511	-5.895	-0.766	8.268
79997.955	NaN	-3.272	1.185	9.337	1505.495	1504.029	1510.623	2.626	0.305	-5.557	-6.048	-0.689	8.191
79998.932	NaN	-3.283	1.174	9.326	1504.762	1502.564	1507.692	2.733	0.550	-5.557	-6.048	-0.612	8.115
79999.908	NaN	-3.272	1.185	9.337	1505.495	1504.029	1508.425	2.718	0.565	-5.374	-5.971	-0.766	8.268
80000.885	NaN	-3.272	1.185	9.337	1504.762	1504.029	1509.158	2.641	0.321	-5.252	-6.048	-0.766	8.268
80001.862	NaN	-3.272	1.185	9.337	1504.029	1503.297	1508.425	2.443	0.397	-5.466	-5.895	-0.766	8.191
80002.838	NaN	-3.261	1.185	9.337	1504.762	1503.297	1510.623	2.504	0.275	-5.664	-5.971	-0.689	8.268
80003.815	NaN	-3.283	1.185	9.326	1504.029	1503.297	1510.623	2.626	0.275	-5.389	-5.971	-0.766	8.268
80004.791	NaN	-3.283	1.185	9.326	1504.762	1504.029	1509.158	2.733	0.473	-5.359	-5.971	-0.689	8.344
80005.768	NaN	-3.261	1.185	9.326	1505.495	1504.029	1509.890	2.565	0.305	-5.344	-5.971	-0.766	8.344
80006.744	NaN	-3.272	1.174	9.304	1504.762	1504.029	1508.425	2.443	0.107	-5.344	-5.895	-0.612	8.191
80007.721	NaN	-3.250	1.185	9.315	1506.227	1504.029	1511.355	2.565	0.015	-5.496	-5.895	-0.536	8.268
80008.698	NaN	-3.250	1.196	9.315	1505.495	1504.029	1512.088	2.809	0.076	-5.466	-6.048	-0.612	8.268
80009.674	NaN	-3.250	1.196	9.326	1506.227	1504.029	1508.425	2.626	0.168	-5.221	-5.971	-0.612	8.191
80010.651	NaN	-3.261	1.185	9.326	1504.762	1504.762	1510.623	2.672	0.382	-5.420	-5.818	-0.689	8.268
80011.627	NaN	-3.272	1.174	9.315	1505.495	1504.029	1509.158	2.595	0.473	-5.389	-5.895	-0.612	8.268
80012.604	NaN	-3.250	1.174	9.315	1506.960	1503.297	1509.890	2.397	0.366	-5.481	-6.048	-0.689	8.268
80013.580	NaN	-3.272	1.174	9.304	1506.227	1504.029	1509.890	2.565	0.305	-5.695	-5.971	-0.689	8.268
80014.557	NaN	-3.272	1.174	9.315	1504.029	1503.297	1509.158	2.733	0.244	-5.618	-5.971	-0.766	8.191
80015.533	NaN	-3.272	1.174	9.315	1504.762	1504.762	1510.623	2.672	0.153	-5.466	-5.742	-0.766	8.268
80016.510	NaN	-3.250	1.185	9.315	1506.227	1504.029	1509.890	2.626	0.351	-5.435	-6.048	-0.536	8.191
80017.487	NaN	-3.261	1.185	9.315	1504.762	1504.029	1509.158	2.840	0.473	-5.435	-5.895	-0.766	8.191
80018.463	NaN	-3.250	1.207	9.326	1505.495	1504.029	1509.890	2.809	0.336	-5.435	-5.895	-0.689	8.115
80019.440	NaN	-3.250	1.207	9.315	1506.227	1503.297	1509.158	2.550	0.290	-5.450	-6.048	-0.689	8.191
80020.416	NaN	-3.261	1.196	9.315	1504.029	1502.564	1509.158	2.427	0.229	-5.466	-5.895	-0.689	8.344
80021.393	NaN	-3.250	1.217	9.304	1505.495	1502.564	1509.890	2.672	0.244	-5.450	-5.895	-0.612	8.344
80022.369	NaN	-3.272	1.196	9.304	1505.495	1504.029	1509.890	2.702	0.443	-5.374	-6.048	-0.689	8.191
80023.346	NaN	-3.272	1.196	9.304	1506.227	1503.297	1511.355	2.565	0.427	-5.374	-5.971	-0.766	8.421
80024.323	NaN	-3.283	1.196	9.293	1504.762	1503.297	1512.088	2.397	0.290	-5.405	-5.818	-0.612	8.268
80025.299	NaN	-3.272	1.207	9.304	1504.762	1505.495	1511.355	2.550	0.290	-5.481	-6.048	-0.689	8.268
80026.276	NaN	-3.272	1.207	9.315	1504.762	1504.029	1509.158	2.733	0.321	-5.527	-5.971	-0.766	8.191
80027.252	NaN	-3.261	1.207	9.304	1505.495	1503.297	1508.425	2.672	0.656	-5.542	-5.971	-0.766	8.268
80028.229	NaN	-3.261	1.185	9.304	1504.029	1503.297	1509.890	2.366	0.656	-5.435	-5.971	-0.842	8.191
80029.205	NaN	-3.272	1.185	9.304	1504.762	1504.029	1510.623	2.382	0.427	-5.298	-5.818	-0.766	8.344
80030.182	NaN	-3.283	1.185	9.315	1503.297	1503.297	1509.158	2.626	0.397	-5.221	-5.971	-0.689	8.191
80031.158	NaN	-3.272	1.196	9.315	1505.495	1503.297	1509.890	2.641	0.443	-5.374	-5.895	-0.689	8.191
80032.135	NaN	-3.272	1.185	9.315	1504.029	1504.029	1510.623	2.656	0.565	-5.481	-5.895	-0.766	8.268
80033.112	NaN	-3.283	1.174	9.315	1504.762	1504.029	1509.158	2.687	0.519	-5.603	-5.971	-0.689	8.191
80034.088	NaN	-3.283	1.174	9.315	1505.495	1504.762	1510.623	2.718	0.305	-5.618	-5.895	-0.689	8.268
80035.065	NaN	-3.283	1.185	9.315	1506.227	1504.029	1510.623	2.580	0.183	-5.573	-5.971	-0.842	8.268
80036.041	NaN	-3.283	1.185	9.315	1503.297	1503.297	1510.623	2.763	0.336	-5.527	-6.048	-0.766	8.268
80037.018	NaN	-3.293	1.185	9.326	1504.762	1504.029	1510.623	2.763	0.672	-5.511	-6.048	-0.612	8.191
80037.994	NaN	-3.293	1.174	9.326	1505.495	1502.564	1509.158	2.519	0.565	-5.450	-6.048	-0.689	8.268
80038.971	NaN	-3.283	1.185	9.337	1504.762	1504.029	1509.158	2.519	0.382	-5.298	-5.971	-0.612	8.268
80039.948	NaN	-3.283	1.174	9.337	1504.762	1504.762	1509.158	2.550	0.550	-5.252	-5.971	-0.612	8.344
80040.924	NaN	-3.283	1.163	9.337	1504.762	1504.029	1509.158	2.412	0.595	-5.298	-5.971	-0.689	8.191
80041.901	NaN	-3.293	1.174	9.337	1504.029	1504.762	1508.425	2.290	0.412	-5.313	-5.971	-0.689	8.191
80042.877	NaN	-3.293	1.185	9.326	1506.227	1504.029	1509.158	2.565	0.275	-5.481	-5.971	-0.612	8.191
80043.854	NaN	-3.293	1.174	9.337	1506.227	1504.029	1510.623	2.763	0.351	-5.557	-5.971	-0.766	8.344
80044.830	NaN	-3.293	1.185	9.337	1504.762	1504.029	1510.623	2.824	0.427	-5.328	-6.048	-0.689	8.344
80045.807	NaN	-3.293	1.185	9.337	1505.495	1503.297	1509.890	2.580	0.336	-5.298	-5.971	-0.689	8.268
80046.783	NaN	-3.304	1.174	9.337	1505.495	1503.297	1509.158	2.473	0.366	-5.557	-5.971	-0.612	8.344
80047.760	NaN	-3.293	1.185	9.348	1506.227	1504.029	1511.355	2.672	0.565	-5.511	-6.048	-0.689	8.191
80048.737	NaN	-3.293	1.185	9.337	1506.227	1504.029	1510.623	2.885	0.748	-5.618	-5.895	-0.689	8.268
80049.713	NaN	-3.293	1.174	9.337	1504.762	1503.297	1510.623	2.672	0.519	-5.511	-6.048	-0.766	8.268
80050.690	NaN	-3.283	1.174	9.337	1505.495	1504.029	1509.890	2.550	0.489	-5.359	-6.048	-0.689	8.191
80051.666	NaN	-3.293	1.163	9.337	1504.762	1503.297	1509.158	2.656	0.489	-5.405	-5.971	-0.689	8.268
80052.643	NaN	-3.272	1.174	9.326	1504.762	1504.762	1509.890	2.733	0.519	-5.466	-5.895	-0.612	8.268
80053.619	NaN	-3.283	1.163	9.326	1505.495	1504.029	1509.890	2.809	0.580	-5.435	-6.124	-0.689	8.268
80054.596	NaN	-3.283	1.174	9.337	1504.029	1503.297	1509.158	2.885	0.473	-5.389	-6.124	-0.766	8.268
80055.573	NaN	-3.283	1.185	9.348	1504.762	1504.029	1509.890	2.901	0.351	-5.435	-5.971	-0.689	8.268
80056.549	NaN	-3.293	1.185	9.359	1504.762	1503.297	1509.158	2.733	0.458	-5.588	-6.048	-0.612	8.268
80057.526	NaN	-3.283	1.185	9.359	1505.495	1503.297	1509.890	2.672	0.550	-5.634	-5.971	-0.689	8.268
80058.502	NaN	-3.293	1.185	9.370	1506.227	1504.029	1510.623	2.885	0.504	-5.466	-6.048	-0.689	8.115
80059.479	NaN	-3.304	1.185	9.370	1503.297	1501.832	1507.692	2.809	0.534	-5.511	-6.124	-0.689	8.191
80060.455	NaN	-3.315	1.185	9.370	1505.495	1504.029	1509.890	2.595	0.580	-5.344	-5.971	-0.766	8.344
80061.432	NaN	-3.304	1.185	9.370	1504.762	1504.029	1510.623	2.611	0.809	-5.374	-5.971	-0.689	8.268
80062.408	NaN	-3.293	1.185	9.380	1505.495	1504.029	1510.623	2.718	0.595	-5.527	-6.048	-0.612	8.268
80063.385	NaN	-3.304	1.174	9.370	1504.029	1504.029	1510.623	2.855	0.351	-5.786	-5.895	-0.689	8.344
80064.362	NaN	-3.315	1.163	9.370	1505.495	1504.029	1509.890	2.794	0.412	-5.725	-5.971	-0.612	8.268
80065.338	NaN	-3.304	1.174	9.359	1505.495	1504.029	1509.890	2.794	0.672	-5.496	-5.895	-0.689	8.344
80066.315	NaN	-3.293	1.174	9.359	1505.495	1504.029	1510.623	2.718	0.672	-5.359	-5.971	-0.689	8.344
80067.291	NaN	-3.293	1.185	9.359	1505.495	1503.297	1510.623	2.626	0.718	-5.282	-6.048	-0.689	8.191
80068.268	NaN	-3.304	1.185	9.348	1504.762	1504.029	1509.890	2.779	0.748	-5.298	-6.048	-0.689	8.268
80069.244	NaN	-3.304	1.174	9.348	1504.762	1504.762	1510.623	2.840	0.809	-5.282	-6.048	-0.689	8.498
80070.221	NaN	-3.293	1.196	9.370	1505.495	1504.762	1510.623	2.855	0.779	-5.313	-6.048	-0.766	8.344
80071.198	NaN	-3.293	1.185	9.370	1505.495	1504.762	1510.623	2.718	0.733	-5.481	-5.971	-0.689	8.268
80072.174	NaN	-3.304	1.174	9.370	1505.495	1503.297	1509.890	2.672	0.656	-5.557	-6.048	-0.689	8.191
80073.151	NaN	-3.304	1.174	9.359	1505.495	1503.297	1509.890	2.824	0.519	-5.496	-5.971	-0.766	8.268
80074.127	NaN	-3.315	1.174	9.359	1506.227	1504.029	1510.623	2.855	0.672	-5.420	-5.971	-0.766	8.344
80075.104	NaN	-3.304	1.174	9.359	1505.495	1504.029	1510.623	2.718	0.824	-5.374	-5.971	-0.766	8.268
80076.080	NaN	-3.304	1.185	9.359	1504.762	1504.762	1510.623	2.733	0.885	-5.389	-5.971	-0.612	8.268
80077.057	NaN	-3.315	1.174	9.359	1505.495	1504.029	1509.158	2.809	0.702	-5.420	-6.048	-0.689	8.268
80078.033	NaN	-3.315	1.174	9.359	1504.029	1504.029	1506.960	2.809	0.565	-5.359	-6.048	-0.612	8.268
80079.010	NaN	-3.293	1.174	9.348	1506.227	1504.029	1509.890	2.626	0.656	-5.603	-6.048	-0.612	8.344
