Timestamp	PC Timestamp	Low Noise Accelerometer X	Low Noise Accelerometer Y	Low Noise Accelerometer Z	Int A12	Int A13	Int A14	Gyroscope X	Gyroscope Y	Gyroscope Z	Wide Range Accelerometer X	Wide Range Accelerometer Y	Wide Range Accelerometer Z
211507.721	NaN	1.946	7.141	-5.087	1510.623	1501.099	1498.901	-1.069	-2.885	3.679	-0.306	5.742	-7.349
211508.698	NaN	1.946	7.130	-5.098	1510.623	1501.099	1498.901	-0.885	-2.992	3.634	-0.230	5.818	-7.426
211509.674	NaN	1.946	7.141	-5.109	1510.623	1500.366	1498.901	-0.901	-2.901	3.542	-0.153	5.665	-7.426
211510.651	NaN	1.946	7.141	-5.098	1510.623	1500.366	1500.366	-0.855	-2.870	3.603	-0.230	5.742	-7.273
211511.627	NaN	1.946	7.141	-5.098	1511.355	1500.366	1499.634	-0.901	-2.947	3.618	-0.153	5.665	-7.426
211512.604	NaN	1.935	7.152	-5.098	1510.623	1499.634	1500.366	-1.023	-2.809	3.496	-0.153	5.742	-7.426
211513.580	NaN	1.935	7.152	-5.087	1509.890	1499.634	1501.099	-0.824	-2.748	3.405	-0.306	5.742	-7.426
211514.557	NaN	1.946	7.163	-5.087	1510.623	1501.099	1498.901	-0.733	-2.733	3.527	-0.230	5.665	-7.579
211515.533	NaN	1.935	7.152	-5.076	1509.890	1500.366	1500.366	-0.702	-2.733	3.679	-0.153	5.971	-7.426
211516.510	NaN	1.946	7.152	-5.098	1510.623	1500.366	1500.366	-0.641	-2.702	3.740	-0.230	5.818	-7.349
211517.487	NaN	1.946	7.152	-5.087	1509.890	1500.366	1501.099	-0.840	-2.718	3.588	-0.230	5.665	-7.426
211518.463	NaN	1.935	7.152	-5.098	1510.623	1499.634	1499.634	-0.916	-2.718	3.466	-0.153	5.665	-7.349
211519.440	NaN	1.946	7.152	-5.098	1511.355	1500.366	1500.366	-0.840	-2.962	3.466	-0.383	5.665	-7.502
211520.416	NaN	1.946	7.152	-5.098	1509.890	1500.366	1499.634	-1.008	-2.977	3.450	-0.230	5.742	-7.502
211521.393	NaN	1.946	7.152	-5.098	1509.890	1499.634	1499.634	-0.977	-2.962	3.435	-0.230	5.665	-7.502
211522.369	NaN	1.946	7.152	-5.120	1509.890	1499.634	1499.634	-0.718	-2.870	3.389	-0.306	5.895	-7.349
211523.346	NaN	1.957	7.152	-5.109	1511.355	1499.634	1500.366	-0.718	-2.824	3.557	-0.306	5.742	-7.349
211524.323	NaN	1.967	7.152	-5.109	1509.890	1501.099	1499.634	-0.824	-2.870	3.618	-0.230	5.818	-7.579
211525.299	NaN	1.967	7.152	-5.098	1510.623	1500.366	1501.099	-0.916	-2.901	3.557	-0.230	5.665	-7.579
211526.276	NaN	1.967	7.152	-5.087	1509.890	1499.634	1499.634	-0.840	-2.962	3.374	-0.153	5.818	-7.502
211527.252	NaN	1.967	7.141	-5.098	1510.623	1499.634	1499.634	-0.687	-2.977	3.389	-0.306	5.818	-7.502
211528.229	NaN	1.967	7.130	-5.098	1509.890	1499.634	1500.366	-0.779	-2.855	3.710	-0.230	5.742	-7.502
211529.205	NaN	1.967	7.141	-5.087	1511.355	1500.366	1499.634	-0.733	-2.672	3.847	-0.383	5.895	-7.349
211530.182	NaN	1.967	7.152	-5.087	1510.623	1499.634	1501.099	-0.718	-2.656	3.771	-0.306	5.742	-7.502
211531.158	NaN	1.957	7.141	-5.087	1510.623	1499.634	1500.366	-0.733	-2.702	3.481	-0.306	5.665	-7.349
211532.135	NaN	1.957	7.152	-5.087	1511.355	1501.099	1499.634	-0.748	-2.885	3.344	-0.230	5.742	-7.502
211533.112	NaN	1.967	7.141	-5.087	1510.623	1500.366	1499.634	-0.550	-2.977	3.374	-0.153	5.742	-7.579
211534.088	NaN	1.957	7.152	-5.076	1511.355	1499.634	1500.366	-0.763	-2.733	3.695	-0.077	5.589	-7.426
211535.065	NaN	1.957	7.141	-5.076	1510.623	1499.634	1498.901	-0.840	-2.733	3.557	-0.230	5.742	-7.349
211536.041	NaN	1.957	7.141	-5.076	1510.623	1500.366	1500.366	-0.611	-2.840	3.389	-0.077	5.742	-7.426
211537.018	NaN	1.957	7.141	-5.065	1510.623	1501.832	1499.634	-0.595	-2.870	3.420	-0.230	5.665	-7.579
211537.994	NaN	1.957	7.141	-5.054	1510.623	1500.366	1500.366	-0.641	-3.023	3.481	-0.077	5.665	-7.426
211538.971	NaN	1.957	7.152	-5.065	1509.890	1498.901	1501.099	-0.840	-2.901	3.542	-0.153	5.742	-7.349
211539.948	NaN	1.957	7.152	-5.087	1510.623	1500.366	1501.099	-0.763	-2.626	3.786	-0.230	5.818	-7.426
211540.924	NaN	1.957	7.141	-5.098	1510.623	1500.366	1500.366	-0.473	-2.733	3.771	-0.306	5.818	-7.502
211541.901	NaN	1.957	7.152	-5.076	1509.158	1500.366	1500.366	-0.427	-2.947	3.664	-0.230	5.742	-7.502
211542.877	NaN	1.946	7.152	-5.098	1509.890	1500.366	1499.634	-0.443	-3.008	3.573	-0.230	5.742	-7.349
211543.854	NaN	1.935	7.141	-5.098	1510.623	1498.901	1498.901	-0.763	-2.947	3.496	-0.153	5.589	-7.502
211544.830	NaN	1.946	7.141	-5.087	1510.623	1499.634	1501.832	-0.916	-2.672	3.664	-0.153	5.742	-7.502
211545.807	NaN	1.957	7.152	-5.076	1511.355	1500.366	1500.366	-0.901	-2.443	3.710	-0.230	5.742	-7.579
211546.783	NaN	1.957	7.152	-5.076	1510.623	1499.634	1499.634	-0.763	-2.641	3.542	-0.306	5.742	-7.502
211547.760	NaN	1.967	7.152	-5.087	1509.890	1501.099	1499.634	-0.641	-2.855	3.405	-0.306	5.589	-7.502
211548.737	NaN	1.967	7.141	-5.076	1509.890	1499.634	1501.832	-0.824	-2.916	3.252	-0.230	5.895	-7.349
211549.713	NaN	1.957	7.141	-5.098	1510.623	1501.099	1499.634	-0.901	-2.870	3.389	-0.230	5.818	-7.579
211550.690	NaN	1.967	7.130	-5.109	1509.890	1499.634	1500.366	-0.885	-2.748	3.573	-0.230	5.818	-7.426
211551.666	NaN	1.967	7.130	-5.109	1510.623	1499.634	1500.366	-0.748	-2.763	3.679	-0.230	5.665	-7.349
211552.643	NaN	1.967	7.130	-5.098	1509.890	1500.366	1499.634	-0.550	-2.870	3.588	-0.383	5.742	-7.579
211553.619	NaN	1.957	7.120	-5.098	1509.890	1500.366	1498.901	-0.504	-3.023	3.282	-0.230	5.818	-7.426
211554.596	NaN	1.946	7.120	-5.098	1511.355	1500.366	1500.366	-0.565	-3.084	3.420	-0.230	5.818	-7.349
211555.573	NaN	1.957	7.130	-5.098	1510.623	1500.366	1500.366	-0.718	-2.977	3.557	-0.230	5.895	-7.426
211556.549	NaN	1.946	7.120	-5.076	1509.890	1500.366	1499.634	-0.901	-2.779	3.618	-0.306	5.818	-7.502
211557.526	NaN	1.946	7.120	-5.076	1509.890	1498.901	1499.634	-0.794	-2.626	3.573	-0.230	5.818	-7.502
211558.502	NaN	1.946	7.120	-5.076	1509.158	1499.634	1500.366	-0.641	-2.687	3.695	-0.230	5.742	-7.502
211559.479	NaN	1.935	7.130	-5.098	1509.890	1498.901	1499.634	-0.366	-2.748	3.664	-0.077	5.818	-7.502
211560.455	NaN	1.935	7.141	-5.098	1509.158	1499.634	1499.634	-0.473	-2.885	3.389	-0.153	5.665	-7.426
211561.432	NaN	1.946	7.141	-5.098	1509.890	1501.099	1498.901	-0.779	-2.992	3.450	-0.230	5.818	-7.502
211562.408	NaN	1.946	7.130	-5.098	1509.890	1500.366	1498.168	-0.733	-3.053	3.603	-0.153	5.742	-7.579
211563.385	NaN	1.957	7.141	-5.109	1509.890	1501.099	1499.634	-0.763	-2.824	3.786	-0.153	5.665	-7.349
211564.362	NaN	1.957	7.141	-5.098	1511.355	1499.634	1500.366	-0.733	-2.641	3.649	-0.230	5.742	-7.426
211565.338	NaN	1.946	7.152	-5.109	1510.623	1499.634	1501.099	-0.656	-2.763	3.588	-0.077	5.742	-7.502
211566.315	NaN	1.946	7.163	-5.098	1509.158	1500.366	1500.366	-0.626	-2.931	3.634	-0.153	5.665	-7.273
211567.291	NaN	1.935	7.163	-5.109	1511.355	1499.634	1500.366	-0.473	-3.053	3.603	-0.306	5.742	-7.426
211568.268	NaN	1.946	7.163	-5.098	1511.355	1500.366	1500.366	-0.748	-2.947	3.542	-0.306	5.742	-7.426
211569.244	NaN	1.946	7.174	-5.098	1509.890	1500.366	1500.366	-0.840	-2.748	3.374	-0.153	5.665	-7.426
211570.221	NaN	1.946	7.174	-5.098	1509.158	1500.366	1498.901	-0.611	-2.824	3.481	-0.153	5.818	-7.426
211571.198	NaN	1.957	7.163	-5.098	1510.623	1498.901	1501.099	-0.824	-2.931	3.710	-0.230	5.665	-6.278
211572.174	NaN	1.935	7.163	-5.109	1511.355	1501.099	1498.901	-1.008	-2.962	3.878	-0.230	5.742	-7.426
211573.151	NaN	1.946	7.163	-5.098	1510.623	1501.099	1499.634	-0.840	-3.053	3.756	-0.230	5.818	-7.426
211574.127	NaN	1.946	7.152	-5.087	1510.623	1498.901	1500.366	-0.992	-2.885	3.710	-0.306	5.742	-7.426
211575.104	NaN	1.946	7.152	-5.098	1510.623	1500.366	1498.901	-1.130	-2.656	3.389	-0.077	5.742	-7.656
211576.080	NaN	1.957	7.141	-5.109	1510.623	1499.634	1500.366	-1.023	-2.672	3.298	-0.230	5.665	-7.502
211577.057	NaN	1.957	7.141	-5.109	1509.158	1499.634	1500.366	-0.824	-2.809	3.267	-0.230	5.665	-7.656
211578.033	NaN	1.967	7.152	-5.087	1509.158	1499.634	1498.901	-0.733	-2.947	3.511	-0.230	5.818	-7.426
211579.010	NaN	1.967	7.141	-5.098	1511.355	1500.366	1498.901	-0.779	-3.053	3.740	-0.230	5.665	-7.349
211579.987	NaN	1.967	7.141	-5.087	1508.425	1499.634	1501.832	-0.840	-3.008	3.618	-0.230	5.665	-7.349
211580.963	NaN	1.946	7.141	-5.098	1511.355	1500.366	1499.634	-0.916	-2.870	3.496	-0.230	5.742	-7.426
211581.940	NaN	1.946	7.141	-5.076	1511.355	1500.366	1501.832	-0.901	-2.824	3.527	-0.306	5.895	-7.502
211582.916	NaN	1.946	7.163	-5.087	1509.890	1501.099	1499.634	-0.824	-2.824	3.450	-0.077	5.665	-7.502
211583.893	NaN	1.957	7.141	-5.098	1510.623	1499.634	1499.634	-0.718	-2.809	3.374	-0.230	5.895	-7.502
211584.869	NaN	1.957	7.141	-5.076	1511.355	1499.634	1499.634	-0.870	-2.733	3.710	-0.153	5.665	-7.349
211585.846	NaN	1.957	7.141	-5.076	1510.623	1499.634	1500.366	-0.748	-2.702	3.817	-0.306	5.665	-7.502
211586.823	NaN	1.967	7.141	-5.076	1510.623	1500.366	1500.366	-0.794	-2.855	3.603	-0.153	5.895	-7.349
211587.799	NaN	1.946	7.130	-5.076	1509.890	1500.366	1498.901	-0.702	-2.885	3.405	-0.153	5.665	-7.426
211588.776	NaN	1.946	7.130	-5.076	1509.890	1498.901	1500.366	-0.626	-2.855	3.573	-0.153	5.895	-7.502
211589.752	NaN	1.935	7.130	-5.087	1510.623	1500.366	1500.366	-0.580	-2.779	3.695	-0.153	5.665	-7.349
211590.729	NaN	1.935	7.130	-5.087	1511.355	1501.099	1499.634	-0.458	-2.733	3.649	-0.230	5.742	-7.426
211591.705	NaN	1.924	7.120	-5.098	1509.890	1500.366	1498.901	-0.702	-2.702	3.573	-0.230	5.665	-7.426
211592.682	NaN	1.935	7.130	-5.087	1509.890	1500.366	1498.901	-0.763	-2.824	3.481	-0.230	5.665	-7.656
211593.658	NaN	1.935	7.120	-5.098	1509.890	1500.366	1499.634	-0.779	-2.656	3.527	-0.230	5.895	-7.502
211594.635	NaN	1.935	7.130	-5.087	1510.623	1501.099	1499.634	-0.855	-2.565	3.481	-0.306	5.742	-7.656
211595.612	NaN	1.946	7.141	-5.076	1509.890	1500.366	1499.634	-0.550	-2.702	3.496	-0.383	5.742	-7.502
211596.588	NaN	1.935	7.152	-5.087	1510.623	1500.366	1498.901	-0.702	-2.855	3.466	-0.306	5.742	-7.502
211597.565	NaN	1.935	7.130	-5.087	1510.623	1499.634	1498.901	-0.718	-2.840	3.450	-0.306	5.818	-7.349
211598.541	NaN	1.935	7.130	-5.087	1510.623	1500.366	1499.634	-0.794	-2.809	3.710	-0.230	5.742	-7.502
211599.518	NaN	1.957	7.141	-5.065	1510.623	1499.634	1500.366	-0.840	-2.809	3.740	-0.230	5.818	-7.426
211600.494	NaN	1.957	7.141	-5.065	1509.890	1500.366	1499.634	-0.794	-2.687	3.802	-0.153	5.818	-7.426
211601.471	NaN	1.946	7.141	-5.076	1509.158	1498.901	1501.832	-0.779	-2.672	3.511	-0.230	5.742	-7.349
211602.448	NaN	1.957	7.141	-5.087	1509.890	1499.634	1500.366	-0.763	-2.901	3.511	-0.230	5.818	-7.426
211603.424	NaN	1.946	7.130	-5.098	1509.890	1499.634	1500.366	-0.901	-2.855	3.435	-0.306	5.742	-7.502
211604.401	NaN	1.957	7.141	-5.087	1510.623	1500.366	1499.634	-0.824	-2.733	3.359	-0.153	5.818	-7.502
211605.377	NaN	1.967	7.130	-5.098	1510.623	1499.634	1501.099	-0.779	-2.687	3.435	-0.306	5.818	-7.579
211606.354	NaN	1.967	7.130	-5.098	1510.623	1499.634	1500.366	-0.779	-2.733	3.649	-0.306	5.742	-7.502
211607.330	NaN	1.957	7.120	-5.109	1509.158	1499.634	1501.099	-0.916	-2.656	3.573	-0.230	5.742	-7.502
211608.307	NaN	1.957	7.141	-5.098	1511.355	1500.366	1499.634	-0.977	-2.809	3.649	-0.230	5.818	-7.502
211614.166	NaN	1.957	7.141	-5.076	1511.355	1499.634	1500.366	-0.687	-2.992	3.786	-0.230	5.665	-7.273
211615.143	NaN	1.957	7.130	-5.076	1510.623	1501.099	1500.366	-0.595	-2.901	3.618	-0.230	5.512	-7.426
211616.119	NaN	1.957	7.141	-5.076	1509.158	1500.366	1498.901	-0.427	-2.977	3.344	-0.230	5.742	-7.426
211617.096	NaN	1.957	7.141	-5.087	1511.355	1501.099	1500.366	-0.489	-2.916	3.344	-0.153	5.818	-7.502
211618.073	NaN	1.957	7.141	-5.076	1510.623	1499.634	1499.634	-0.626	-2.779	3.618	-0.230	5.665	-7.426
211619.049	NaN	1.957	7.130	-5.087	1508.425	1501.099	1499.634	-0.779	-2.794	3.802	-0.306	5.742	-7.502
211620.026	NaN	1.957	7.141	-5.087	1511.355	1499.634	1500.366	-0.794	-2.840	3.679	-0.383	5.512	-7.656
211621.002	NaN	1.946	7.141	-5.087	1511.355	1500.366	1497.436	-0.748	-2.626	3.588	-0.230	5.742	-7.502
211621.979	NaN	1.957	7.141	-5.076	1510.623	1501.099	1498.901	-0.458	-2.641	3.405	-0.230	5.818	-7.502
211622.955	NaN	1.967	7.141	-5.076	1510.623	1500.366	1499.634	-0.290	-2.809	3.405	-0.230	5.665	-7.502
211623.932	NaN	1.967	7.141	-5.087	1510.623	1500.366	1498.901	-0.351	-2.824	3.527	-0.383	5.895	-7.426
211624.908	NaN	1.967	7.141	-5.076	1510.623	1499.634	1499.634	-0.412	-2.840	3.573	-0.230	5.818	-7.426
211625.885	NaN	1.957	7.152	-5.076	1511.355	1500.366	1501.832	-0.702	-2.733	3.527	-0.230	5.665	-7.426
211626.862	NaN	1.967	7.163	-5.076	1509.890	1501.099	1498.901	-0.931	-2.870	3.557	-0.153	5.742	-7.426
211627.838	NaN	1.967	7.152	-5.076	1509.158	1500.366	1500.366	-0.885	-2.840	3.573	-0.153	5.742	-7.426
211628.815	NaN	1.957	7.152	-5.076	1509.890	1499.634	1500.366	-0.534	-2.840	3.618	-0.153	5.818	-7.426
211629.791	NaN	1.946	7.152	-5.087	1510.623	1500.366	1499.634	-0.611	-2.794	3.618	-0.077	5.742	-7.426
211630.768	NaN	1.946	7.152	-5.076	1511.355	1500.366	1498.901	-0.794	-2.748	3.664	-0.306	5.742	-7.502
211631.744	NaN	1.946	7.152	-5.087	1510.623	1501.099	1500.366	-0.626	-2.947	3.603	-0.153	5.665	-7.426
211632.721	NaN	1.946	7.141	-5.087	1510.623	1499.634	1501.099	-0.595	-3.099	3.328	-0.306	5.665	-7.502
211633.698	NaN	1.935	7.141	-5.087	1509.158	1499.634	1500.366	-0.641	-2.824	3.282	-0.306	5.742	-7.502
211634.674	NaN	1.935	7.152	-5.087	1510.623	1499.634	1499.634	-0.687	-2.702	3.496	-0.153	5.665	-7.426
211635.651	NaN	1.946	7.152	-5.076	1510.623	1499.634	1500.366	-0.794	-2.809	3.603	-0.230	5.818	-7.579
211636.627	NaN	1.946	7.152	-5.098	1511.355	1500.366	1499.634	-0.855	-2.855	3.710	-0.383	5.742	-7.426
211637.604	NaN	1.935	7.152	-5.098	1509.158	1499.634	1500.366	-1.008	-2.931	3.496	-0.230	5.818	-7.426
211638.580	NaN	1.946	7.152	-5.087	1509.158	1499.634	1498.901	-0.916	-2.809	3.573	-0.306	5.665	-7.349
211639.557	NaN	1.946	7.141	-5.087	1512.088	1500.366	1500.366	-0.794	-2.763	3.557	-0.230	5.665	-7.579
211640.533	NaN	1.946	7.152	-5.098	1509.158	1499.634	1500.366	-0.748	-2.748	3.664	-0.306	5.742	-7.273
211641.510	NaN	1.946	7.152	-5.098	1508.425	1498.901	1500.366	-0.641	-2.885	3.710	-0.306	5.818	-7.349
211642.487	NaN	1.946	7.152	-5.087	1508.425	1498.901	1498.901	-0.519	-2.992	3.710	-0.153	5.742	-7.426
211643.463	NaN	1.946	7.141	-5.087	1510.623	1499.634	1500.366	-0.229	-2.947	3.649	-0.230	5.818	-7.502
211644.440	NaN	1.935	7.152	-5.087	1510.623	1499.634	1500.366	-0.489	-2.809	3.603	-0.230	5.742	-7.502
211645.416	NaN	1.946	7.152	-5.076	1510.623	1500.366	1500.366	-0.504	-2.885	3.664	-0.153	5.895	-7.502
211646.393	NaN	1.946	7.152	-5.076	1510.623	1499.634	1500.366	-0.534	-2.931	3.573	-0.153	5.742	-7.502
211647.369	NaN	1.946	7.141	-5.087	1512.088	1499.634	1500.366	-0.672	-2.718	3.511	-0.153	5.665	-7.426
211648.346	NaN	1.946	7.152	-5.076	1512.088	1500.366	1500.366	-0.382	-2.672	3.618	-0.153	5.742	-7.426
211649.323	NaN	1.946	7.152	-5.087	1510.623	1499.634	1499.634	-0.412	-2.748	3.511	-0.153	5.742	-7.349
211650.299	NaN	1.957	7.163	-5.076	1510.623	1499.634	1500.366	-0.565	-2.840	3.771	-0.077	5.742	-7.502
211651.276	NaN	1.946	7.163	-5.098	1509.890	1500.366	1498.901	-0.626	-2.840	3.557	-0.230	5.665	-7.349
211652.252	NaN	1.946	7.163	-5.098	1509.158	1499.634	1500.366	-0.626	-2.779	3.344	-0.230	5.742	-7.426
211653.229	NaN	1.946	7.152	-5.098	1509.890	1501.099	1500.366	-0.702	-2.748	3.313	-0.306	5.665	-7.502
211654.205	NaN	1.946	7.141	-5.109	1510.623	1500.366	1498.901	-0.580	-2.870	3.282	-0.306	5.818	-7.426
211655.182	NaN	1.946	7.152	-5.098	1509.158	1498.901	1500.366	-0.382	-2.901	3.496	-0.383	5.742	-7.426
211656.158	NaN	1.946	7.152	-5.087	1510.623	1501.099	1498.168	-0.489	-2.870	3.679	-0.230	5.665	-7.426
211657.135	NaN	1.946	7.141	-5.087	1509.158	1499.634	1499.634	-0.687	-2.641	3.588	-0.306	5.742	-7.579
211658.112	NaN	1.957	7.141	-5.076	1510.623	1499.634	1500.366	-0.733	-2.718	3.450	-0.230	5.971	-7.579
211659.088	NaN	1.957	7.141	-5.087	1510.623	1499.634	1500.366	-0.748	-2.840	3.389	-0.153	5.589	-7.502
211660.065	NaN	1.957	7.141	-5.098	1509.890	1500.366	1498.901	-0.611	-2.916	3.542	-0.306	5.742	-7.349
211661.041	NaN	1.946	7.141	-5.109	1509.890	1499.634	1500.366	-0.809	-2.794	3.634	-0.230	5.742	-7.502
211662.018	NaN	1.967	7.141	-5.109	1511.355	1501.099	1500.366	-0.962	-2.687	3.802	-0.230	5.818	-7.502
211662.994	NaN	1.967	7.141	-5.098	1510.623	1500.366	1498.901	-0.687	-2.916	3.756	-0.230	5.818	-7.273
211663.971	NaN	1.957	7.152	-5.087	1512.088	1499.634	1500.366	-0.565	-2.947	3.313	-0.230	5.665	-7.426
211664.948	NaN	1.946	7.141	-5.087	1510.623	1501.099	1499.634	-0.534	-2.779	3.450	-0.230	5.742	-7.579
211665.924	NaN	1.957	7.152	-5.098	1510.623	1500.366	1498.168	-0.733	-2.885	3.557	-0.153	5.818	-7.502
211666.901	NaN	1.967	7.152	-5.098	1511.355	1499.634	1499.634	-0.656	-2.901	3.557	-0.230	5.665	-7.502
211667.877	NaN	1.967	7.141	-5.087	1509.890	1500.366	1501.099	-0.580	-2.855	3.557	-0.230	5.742	-7.502
211668.854	NaN	1.957	7.141	-5.098	1509.890	1499.634	1500.366	-0.733	-2.794	3.649	-0.230	5.665	-7.502
211669.830	NaN	1.957	7.141	-5.087	1510.623	1499.634	1500.366	-0.824	-2.855	3.847	-0.230	5.818	-7.349
211670.807	NaN	1.967	7.130	-5.087	1511.355	1500.366	1500.366	-0.977	-2.901	3.710	-0.383	5.742	-7.502
211671.783	NaN	1.957	7.141	-5.087	1510.623	1500.366	1500.366	-0.809	-2.855	3.435	-0.306	5.742	-7.273
211672.760	NaN	1.957	7.141	-5.098	1510.623	1500.366	1498.168	-0.779	-2.870	3.298	-0.153	5.742	-7.502
211673.737	NaN	1.957	7.152	-5.076	1508.425	1499.634	1499.634	-0.672	-2.718	3.466	-0.153	5.742	-7.502
211674.713	NaN	1.946	7.141	-5.098	1510.623	1500.366	1498.901	-0.580	-2.809	3.496	-0.153	5.818	-7.656
211675.690	NaN	1.946	7.141	-5.109	1508.425	1499.634	1499.634	-0.550	-2.794	3.389	-0.153	5.742	-7.426
211676.666	NaN	1.957	7.141	-5.098	1509.890	1500.366	1498.901	-0.611	-2.885	3.405	-0.077	5.742	-7.502
211677.643	NaN	1.946	7.141	-5.109	1510.623	1500.366	1498.901	-0.565	-2.885	3.450	-0.230	5.742	-7.426
211678.619	NaN	1.946	7.130	-5.109	1509.890	1500.366	1500.366	-0.458	-2.748	3.389	-0.306	5.742	-7.273
211679.596	NaN	1.946	7.141	-5.109	1510.623	1501.099	1499.634	-0.641	-2.870	3.267	-0.077	5.665	-7.502
211680.573	NaN	1.935	7.130	-5.109	1509.890	1501.099	1500.366	-0.565	-2.794	3.466	-0.306	5.742	-7.502
211681.549	NaN	1.935	7.152	-5.120	1509.890	1501.099	1498.168	-0.641	-2.947	3.573	-0.153	5.665	-8.498
211682.526	NaN	1.935	7.141	-5.120	1509.890	1498.168	1498.901	-0.397	-2.901	3.542	-0.077	5.665	-7.426
211683.502	NaN	1.946	7.152	-5.109	1511.355	1500.366	1497.436	-0.443	-2.733	3.573	-0.230	5.665	-7.502
211684.479	NaN	1.957	7.141	-5.098	1510.623	1500.366	1500.366	-0.550	-2.809	3.634	-0.306	5.665	-7.426
211685.455	NaN	1.957	7.141	-5.109	1509.158	1499.634	1500.366	-0.580	-2.947	3.649	-0.153	5.742	-7.502
211686.432	NaN	1.967	7.141	-5.098	1509.890	1500.366	1500.366	-0.656	-3.130	3.542	-0.230	5.742	-7.502
211687.408	NaN	1.957	7.141	-5.087	1510.623	1500.366	1498.901	-0.626	-3.099	3.527	-0.153	5.742	-7.502
211688.385	NaN	1.967	7.141	-5.109	1510.623	1499.634	1498.901	-0.336	-2.962	3.588	-0.077	5.818	-7.349
211689.362	NaN	1.978	7.152	-5.109	1510.623	1499.634	1500.366	-0.443	-2.870	3.496	0.000	5.818	-7.502
211690.338	NaN	1.967	7.152	-5.109	1510.623	1500.366	1498.901	-0.611	-2.992	3.420	-0.153	5.742	-7.349
211691.315	NaN	1.957	7.141	-5.087	1509.890	1500.366	1499.634	-0.672	-2.962	3.527	-0.230	5.589	-7.502
211692.291	NaN	1.946	7.130	-5.109	1511.355	1499.634	1499.634	-0.626	-2.840	3.435	-0.153	5.818	-7.502
211693.268	NaN	1.957	7.141	-5.098	1510.623	1500.366	1500.366	-0.702	-2.672	3.557	-0.230	5.818	-7.426
211694.244	NaN	1.946	7.130	-5.109	1510.623	1501.099	1499.634	-0.580	-2.733	3.481	-0.230	5.742	-7.426
211695.221	NaN	1.935	7.130	-5.109	1509.890	1500.366	1499.634	-0.748	-2.901	3.389	-0.153	5.818	-7.426
211696.198	NaN	1.935	7.130	-5.109	1509.158	1501.099	1498.901	-0.641	-2.992	3.435	-0.153	5.589	-7.656
211697.174	NaN	1.935	7.130	-5.120	1510.623	1501.099	1499.634	-0.504	-2.977	3.557	-0.230	5.818	-7.502
211698.151	NaN	1.935	7.141	-5.120	1510.623	1500.366	1500.366	-0.382	-2.763	3.496	-0.230	5.742	-7.502
211699.127	NaN	1.946	7.141	-5.130	1509.890	1500.366	1498.168	-0.305	-2.672	3.389	-0.153	5.895	-7.349
211700.104	NaN	1.935	7.141	-5.120	1510.623	1500.366	1498.168	-0.412	-2.702	3.588	-0.230	5.818	-7.502
211701.080	NaN	1.935	7.130	-5.120	1509.890	1500.366	1498.901	-0.427	-2.916	3.466	-0.153	5.665	-7.349
211702.057	NaN	1.946	7.141	-5.098	1510.623	1501.099	1498.901	-0.443	-2.916	3.573	-0.306	5.818	-7.579
211703.033	NaN	1.946	7.130	-5.109	1509.890	1500.366	1498.901	-0.550	-2.977	3.603	-0.230	5.665	-7.349
211704.010	NaN	1.957	7.141	-5.087	1508.425	1500.366	1499.634	-0.611	-2.916	3.527	-0.230	5.665	-7.502
211704.987	NaN	1.957	7.130	-5.087	1509.890	1501.099	1500.366	-0.565	-3.008	3.511	-0.153	5.818	-7.426
211705.963	NaN	1.946	7.130	-5.087	1511.355	1500.366	1500.366	-0.779	-3.084	3.756	-0.077	5.818	-7.579
211706.940	NaN	1.946	7.130	-5.065	1509.890	1500.366	1499.634	-0.748	-2.962	3.649	-0.077	5.742	-7.502
211707.916	NaN	1.946	7.120	-5.065	1510.623	1499.634	1501.099	-0.489	-2.901	3.573	-0.077	5.742	-7.502
211708.893	NaN	1.946	7.141	-5.076	1510.623	1499.634	1500.366	-0.519	-2.916	3.618	-0.306	5.971	-7.426
211709.869	NaN	1.957	7.141	-5.087	1509.890	1499.634	1501.099	-0.443	-2.931	3.496	-0.230	5.818	-7.502
211710.846	NaN	1.967	7.152	-5.087	1511.355	1500.366	1498.901	-0.336	-2.885	3.466	-0.153	5.665	-7.502
211711.823	NaN	1.967	7.141	-5.076	1511.355	1501.099	1498.901	-0.611	-2.931	3.481	-0.230	5.895	-7.579
211712.799	NaN	1.957	7.141	-5.076	1509.158	1501.099	1499.634	-0.611	-2.870	3.695	-0.230	5.895	-7.502
211713.776	NaN	1.957	7.141	-5.076	1509.890	1498.901	1500.366	-0.550	-2.855	3.664	-0.306	5.742	-7.502
211714.752	NaN	1.957	7.152	-5.065	1511.355	1500.366	1499.634	-0.550	-3.038	3.618	-0.230	5.818	-7.273
211715.729	NaN	1.957	7.152	-5.065	1511.355	1500.366	1498.901	-0.656	-2.901	3.374	-0.077	5.818	-7.426
211716.705	NaN	1.967	7.163	-5.065	1510.623	1499.634	1499.634	-0.855	-2.809	3.298	-0.230	5.818	-7.502
211717.682	NaN	1.957	7.152	-5.065	1510.623	1500.366	1498.901	-0.595	-2.809	3.420	-0.230	5.742	-7.426
211718.658	NaN	1.967	7.152	-5.065	1510.623	1500.366	1498.901	-0.244	-2.748	3.557	-0.230	5.818	-7.502
211719.635	NaN	1.967	7.152	-5.087	1509.158	1500.366	1498.168	-0.305	-3.008	3.557	-0.230	5.818	-7.502
211720.612	NaN	1.957	7.152	-5.098	1508.425	1498.901	1501.099	-0.305	-2.947	3.511	-0.230	5.742	-7.426
211721.588	NaN	1.967	7.152	-5.087	1511.355	1499.634	1501.099	-0.412	-2.779	3.466	-0.153	5.665	-7.426
211722.565	NaN	1.967	7.141	-5.098	1509.890	1500.366	1499.634	-0.626	-2.702	3.527	-0.153	5.742	-7.502
211723.541	NaN	1.957	7.130	-5.098	1510.623	1499.634	1501.832	-0.672	-2.702	3.740	-0.153	5.742	-7.426
211724.518	NaN	1.957	7.141	-5.076	1511.355	1500.366	1498.901	-0.779	-2.855	3.634	-0.153	5.742	-7.349
211725.494	NaN	1.946	7.130	-5.098	1510.623	1500.366	1500.366	-0.641	-2.977	3.450	-0.230	5.895	-7.502
211726.471	NaN	1.957	7.141	-5.076	1510.623	1500.366	1498.901	-0.443	-2.931	3.450	-0.077	5.742	-7.502
211727.448	NaN	1.946	7.130	-5.076	1509.890	1499.634	1499.634	-0.443	-2.931	3.557	-1.225	5.818	-7.502
211728.424	NaN	1.946	7.141	-5.098	1511.355	1500.366	1498.168	-0.489	-2.870	3.374	-0.230	5.742	-7.426
211729.401	NaN	1.957	7.141	-5.098	1510.623	1500.366	1500.366	-0.733	-2.702	3.618	-0.153	5.818	-7.426
211730.377	NaN	1.946	7.141	-5.098	1510.623	1501.099	1499.634	-0.550	-2.519	3.847	-0.230	5.818	-7.349
211731.354	NaN	1.967	7.130	-5.098	1510.623	1500.366	1500.366	-0.611	-2.702	3.695	-0.153	5.818	-7.502
211732.330	NaN	1.957	7.141	-5.109	1510.623	1499.634	1499.634	-0.656	-2.794	3.557	-0.230	5.818	-7.426
211733.307	NaN	1.967	7.141	-5.098	1510.623	1501.099	1500.366	-0.702	-2.748	3.420	-0.230	5.742	-7.502
211734.283	NaN	1.957	7.152	-5.098	1509.158	1500.366	1499.634	-0.641	-2.656	3.511	-0.230	5.742	-7.426
211735.260	NaN	1.946	7.152	-5.109	1509.890	1501.099	1498.901	-0.519	-2.718	3.603	-0.230	5.742	-7.349
211736.237	NaN	1.946	7.141	-5.109	1509.890	1499.634	1499.634	-0.336	-2.931	3.618	-0.306	5.742	-7.426
211737.213	NaN	1.946	7.141	-5.109	1510.623	1500.366	1499.634	-0.397	-2.824	3.557	-0.230	5.742	-7.502
211738.190	NaN	1.946	7.152	-5.098	1509.890	1501.099	1500.366	-0.397	-2.947	3.466	-0.306	5.818	-7.426
211739.166	NaN	1.946	7.152	-5.087	1509.890	1499.634	1500.366	-0.565	-2.855	3.634	-0.230	5.665	-7.502
211740.143	NaN	1.946	7.163	-5.076	1510.623	1500.366	1501.099	-0.916	-2.702	3.511	-0.077	5.742	-7.502
211741.119	NaN	1.946	7.163	-5.087	1509.890	1500.366	1498.901	-0.702	-2.641	3.374	-0.230	5.665	-7.426
211742.096	NaN	1.957	7.163	-5.098	1512.088	1500.366	1500.366	-0.336	-2.718	3.573	-0.153	5.665	-7.579
211743.073	NaN	1.957	7.163	-5.098	1511.355	1500.366	1499.634	-0.305	-3.023	3.618	-0.077	5.589	-7.426
211744.049	NaN	1.957	7.163	-5.087	1510.623	1500.366	1498.901	-0.611	-3.023	3.603	-0.153	5.742	-7.426
211745.026	NaN	1.957	7.152	-5.087	1510.623	1498.901	1500.366	-0.779	-2.885	3.603	-0.230	5.818	-7.502
211746.002	NaN	1.946	7.152	-5.098	1510.623	1500.366	1499.634	-0.779	-2.809	3.466	-0.306	5.742	-7.502
211746.979	NaN	1.957	7.152	-5.098	1510.623	1500.366	1500.366	-0.718	-2.870	3.756	-0.306	5.742	-7.349
211747.955	NaN	1.946	7.163	-5.098	1511.355	1500.366	1499.634	-0.489	-2.809	3.725	-0.230	5.818	-7.502
211748.932	NaN	1.946	7.141	-5.098	1510.623	1500.366	1500.366	-0.443	-2.733	3.481	-0.230	5.742	-7.579
211749.908	NaN	1.946	7.152	-5.087	1511.355	1500.366	1499.634	-0.290	-2.794	3.511	-0.383	5.742	-7.579
211750.885	NaN	1.946	7.152	-5.098	1508.425	1500.366	1500.366	-0.565	-2.947	3.496	-0.306	5.818	-7.426
211751.862	NaN	1.967	7.163	-5.076	1509.890	1499.634	1500.366	-0.748	-2.916	3.420	-0.230	5.742	-7.502
211752.838	NaN	1.957	7.152	-5.098	1509.890	1501.099	1499.634	-0.595	-2.885	3.405	-0.230	5.895	-7.349
211753.815	NaN	1.946	7.152	-5.109	1509.158	1500.366	1498.901	-0.611	-2.885	3.527	-0.230	5.818	-7.426
211754.791	NaN	1.946	7.141	-5.109	1510.623	1499.634	1501.099	-0.672	-2.885	3.634	-0.306	5.742	-7.502
211755.768	NaN	1.946	7.152	-5.109	1510.623	1498.901	1499.634	-0.626	-2.794	3.649	-0.230	5.818	-7.349
211756.744	NaN	1.957	7.141	-5.098	1510.623	1500.366	1499.634	-0.550	-3.053	3.511	-0.230	5.742	-7.426
211757.721	NaN	1.967	7.130	-5.109	1510.623	1500.366	1499.634	-0.733	-3.145	3.603	-0.153	5.742	-7.502
211758.698	NaN	1.978	7.120	-5.109	1511.355	1499.634	1499.634	-0.977	-3.084	3.557	-0.306	5.818	-7.579
211759.674	NaN	1.967	7.130	-5.109	1509.158	1498.901	1498.901	-0.626	-2.962	3.435	-0.230	5.665	-7.502
211760.651	NaN	1.967	7.141	-5.098	1511.355	1499.634	1501.099	-0.427	-2.885	3.359	-0.230	5.895	-7.426
211761.627	NaN	1.967	7.141	-5.109	1509.890	1500.366	1498.901	-0.427	-2.947	3.664	-0.077	5.742	-7.349
211762.604	NaN	1.957	7.130	-5.098	1512.088	1499.634	1501.099	-0.534	-2.931	3.542	-0.153	5.742	-7.579
211763.580	NaN	1.935	7.130	-5.109	1510.623	1500.366	1500.366	-0.748	-3.023	3.542	-0.077	5.665	-7.502
211764.557	NaN	1.946	7.130	-5.098	1511.355	1500.366	1500.366	-0.504	-2.962	3.542	-0.230	5.742	-7.349
211765.533	NaN	1.935	7.141	-5.087	1509.890	1500.366	1499.634	-0.504	-2.855	3.542	-0.153	5.818	-7.426
211766.510	NaN	1.946	7.141	-5.087	1510.623	1500.366	1499.634	-0.733	-2.885	3.496	-0.230	5.665	-7.426
211767.487	NaN	1.935	7.141	-5.087	1511.355	1500.366	1499.634	-0.947	-2.901	3.542	-0.153	5.665	-7.426
211768.463	NaN	1.935	7.130	-5.087	1510.623	1501.832	1499.634	-0.901	-3.038	3.496	-0.230	5.818	-7.426
211769.440	NaN	1.935	7.141	-5.076	1509.890	1498.901	1500.366	-0.733	-2.931	3.588	-0.230	5.895	-7.502
211770.416	NaN	1.946	7.152	-5.065	1509.890	1500.366	1498.901	-0.687	-2.855	3.450	-0.230	5.665	-7.349
211771.393	NaN	1.946	7.141	-5.065	1510.623	1501.099	1498.168	-0.656	-2.824	3.435	-0.230	5.971	-7.426
211772.369	NaN	1.946	7.141	-5.087	1509.890	1500.366	1498.168	-0.779	-2.962	3.435	-0.230	5.589	-7.349
211773.346	NaN	1.957	7.141	-5.098	1510.623	1501.099	1500.366	-0.656	-2.901	3.542	-0.383	5.665	-7.502
211774.323	NaN	1.967	7.141	-5.087	1510.623	1501.099	1498.901	-0.458	-2.840	3.588	-0.230	5.818	-7.426
211775.299	NaN	1.957	7.141	-5.098	1510.623	1500.366	1499.634	-0.595	-2.916	3.328	-0.230	5.742	-7.502
211776.276	NaN	1.946	7.130	-5.098	1509.890	1500.366	1500.366	-0.641	-2.901	3.191	-0.153	5.742	-7.656
211777.252	NaN	1.946	7.130	-5.087	1509.158	1499.634	1499.634	-0.901	-2.977	3.344	-0.153	5.665	-7.502
211778.229	NaN	1.957	7.141	-5.076	1507.692	1500.366	1501.099	-0.733	-2.824	3.756	-0.153	5.818	-7.426
211779.205	NaN	1.946	7.141	-5.087	1511.355	1499.634	1500.366	-0.687	-2.794	3.893	-0.306	5.742	-7.426
211780.182	NaN	1.957	7.130	-5.098	1510.623	1499.634	1500.366	-0.718	-2.840	3.634	-0.153	5.665	-7.579
211781.158	NaN	1.935	7.141	-5.109	1510.623	1499.634	1501.099	-0.687	-2.931	3.542	-0.306	5.665	-7.426
211782.135	NaN	1.946	7.141	-5.109	1511.355	1500.366	1500.366	-0.611	-2.916	3.344	-0.230	5.818	-7.426
211783.112	NaN	1.946	7.152	-5.109	1511.355	1500.366	1500.366	-0.534	-2.779	3.328	-0.306	5.665	-7.502
211784.088	NaN	1.946	7.141	-5.120	1509.890	1499.634	1501.099	-0.641	-2.672	3.405	-0.153	5.665	-7.426
211785.065	NaN	1.946	7.141	-5.109	1510.623	1499.634	1499.634	-0.718	-2.656	3.603	-0.230	5.665	-7.502
211786.041	NaN	1.946	7.130	-5.109	1510.623	1498.901	1498.901	-0.580	-2.824	3.573	-0.306	5.665	-7.426
211787.018	NaN	1.946	7.130	-5.109	1510.623	1499.634	1499.634	-0.779	-2.947	3.466	-0.230	5.742	-7.426
211787.994	NaN	1.957	7.141	-5.098	1509.890	1499.634	1500.366	-0.885	-2.763	3.450	-0.306	5.742	-7.502
211788.971	3736844561.714	1.957	7.130	-5.087	1510.623	1500.366	1498.168	-0.763	-2.855	3.588	-0.230	5.665	-7.502
211789.948	NaN	1.946	7.120	-5.076	1509.890	1500.366	1499.634	-0.672	-2.947	3.664	-0.153	5.665	-7.426
211790.924	NaN	1.946	7.130	-5.098	1510.623	1500.366	1501.099	-0.550	-2.824	3.527	-0.306	5.818	-7.502
211791.901	NaN	1.957	7.141	-5.087	1510.623	1500.366	1501.099	-0.458	-2.702	3.420	-0.153	5.742	-7.426
211792.877	NaN	1.957	7.152	-5.098	1511.355	1500.366	1499.634	-0.443	-2.840	3.557	-0.383	5.818	-7.349
211793.854	NaN	1.946	7.152	-5.098	1510.623	1500.366	1499.634	-0.626	-2.870	3.573	-0.306	5.818	-7.349
211794.830	NaN	1.935	7.152	-5.109	1510.623	1499.634	1498.901	-0.962	-2.962	3.450	-0.306	5.818	-7.349
211795.807	NaN	1.957	7.152	-5.098	1511.355	1500.366	1500.366	-0.947	-2.855	3.344	-0.153	5.665	-7.502
211796.783	NaN	1.946	7.152	-5.109	1510.623	1500.366	1498.168	-0.824	-2.809	3.313	-0.077	5.742	-7.502
211797.760	NaN	1.957	7.152	-5.087	1510.623	1499.634	1499.634	-0.733	-2.809	3.603	-0.230	5.665	-7.426
211798.737	NaN	1.967	7.141	-5.098	1510.623	1499.634	1500.366	-0.611	-2.763	3.573	-0.230	5.818	-7.349
211799.713	NaN	1.957	7.141	-5.109	1509.158	1499.634	1501.099	-0.504	-2.809	3.481	-0.230	5.818	-7.579
211800.690	NaN	1.957	7.152	-5.087	1509.158	1500.366	1500.366	-0.382	-2.779	3.557	-0.306	5.895	-7.426
211801.666	NaN	1.957	7.141	-5.098	1510.623	1500.366	1498.168	-0.473	-2.855	3.573	-0.230	5.742	-7.502
211802.643	NaN	1.957	7.141	-5.087	1509.158	1499.634	1500.366	-0.656	-2.901	3.618	-0.230	5.818	-7.426
211803.619	NaN	1.957	7.130	-5.087	1509.890	1499.634	1503.297	-0.489	-3.053	3.573	-0.230	5.665	-7.426
211804.596	NaN	1.957	7.130	-5.109	1510.623	1501.099	1499.634	-0.504	-2.962	3.557	-0.230	5.665	-7.502
211805.573	NaN	1.957	7.130	-5.098	1511.355	1500.366	1500.366	-0.748	-2.809	3.588	-0.153	5.742	-7.502
211806.549	NaN	1.946	7.141	-5.098	1509.890	1500.366	1499.634	-0.687	-2.992	3.603	-0.153	5.665	-7.426
211807.526	NaN	1.946	7.141	-5.098	1509.890	1499.634	1500.366	-0.519	-2.992	3.634	-0.230	5.665	-7.579
211808.502	NaN	1.946	7.141	-5.120	1509.890	1500.366	1500.366	-0.656	-2.885	3.695	-0.153	5.818	-7.349
211809.479	NaN	1.946	7.152	-5.098	1510.623	1501.099	1498.901	-0.672	-2.901	3.695	-0.153	5.818	-7.502
211810.455	NaN	1.935	7.141	-5.098	1509.890	1499.634	1499.634	-0.763	-2.947	3.542	-0.230	5.742	-7.349
211811.432	NaN	1.946	7.141	-5.087	1509.890	1501.099	1500.366	-0.794	-2.855	3.405	-0.153	5.818	-7.349
211812.408	NaN	1.935	7.141	-5.087	1510.623	1500.366	1498.901	-0.870	-2.794	3.298	-0.153	5.742	-7.426
211813.385	NaN	1.935	7.141	-5.087	1511.355	1500.366	1498.901	-0.779	-2.763	3.359	-0.153	5.665	-7.426
211814.362	NaN	1.946	7.141	-5.087	1511.355	1500.366	1500.366	-0.779	-2.733	3.420	-0.230	5.589	-7.502
211815.338	NaN	1.946	7.152	-5.076	1511.355	1499.634	1499.634	-0.702	-2.992	3.527	-0.230	5.742	-7.502
211816.315	NaN	1.946	7.141	-5.098	1510.623	1500.366	1499.634	-0.672	-3.145	3.542	-0.230	5.742	-7.426
211817.291	NaN	1.946	7.130	-5.098	1510.623	1500.366	1498.901	-0.702	-2.916	3.527	-0.306	5.742	-7.349
211818.268	NaN	1.957	7.152	-5.098	1510.623	1501.832	1498.901	-0.763	-2.763	3.435	-0.230	5.665	-7.426
211819.244	NaN	1.957	7.141	-5.098	1509.890	1501.099	1500.366	-0.626	-2.733	3.496	-0.153	5.742	-7.579
211820.221	NaN	1.946	7.152	-5.098	1510.623	1500.366	1498.901	-0.565	-2.626	3.450	-0.153	5.742	-7.349
211821.198	NaN	1.946	7.141	-5.109	1511.355	1499.634	1501.099	-0.672	-2.840	3.588	-0.077	5.665	-7.349
211822.174	NaN	1.957	7.152	-5.109	1511.355	1500.366	1500.366	-0.885	-3.038	3.557	-0.230	5.742	-7.502
211823.151	NaN	1.946	7.141	-5.098	1510.623	1499.634	1500.366	-0.748	-3.053	3.344	-0.153	5.895	-7.349
211824.127	NaN	1.957	7.152	-5.098	1512.821	1500.366	1499.634	-0.656	-2.824	3.405	-0.230	5.742	-7.502
211825.104	NaN	1.957	7.141	-5.109	1510.623	1500.366	1499.634	-0.504	-2.748	3.710	-0.306	5.818	-7.502
211826.080	NaN	1.946	7.141	-5.109	1509.890	1499.634	1501.099	-0.580	-2.916	3.695	-0.230	5.665	-7.502
211827.057	NaN	1.946	7.141	-5.120	1509.158	1499.634	1500.366	-0.779	-3.069	3.588	-0.230	5.742	-7.502
211828.033	NaN	1.957	7.152	-5.098	1511.355	1500.366	1499.634	-0.763	-3.069	3.603	-0.153	5.665	-7.426
211829.010	NaN	1.967	7.152	-5.098	1510.623	1501.099	1498.901	-0.672	-2.824	3.374	-0.077	5.665	-7.502
211829.987	NaN	1.957	7.141	-5.109	1510.623	1500.366	1499.634	-0.763	-2.641	3.267	-0.230	5.818	-7.579
211830.963	NaN	1.957	7.130	-5.109	1510.623	1501.832	1500.366	-0.733	-2.626	3.511	-0.230	5.665	-7.502
211831.940	NaN	1.967	7.141	-5.098	1511.355	1499.634	1501.099	-0.855	-2.855	3.695	-0.230	5.742	-7.426
211832.916	NaN	1.957	7.141	-5.098	1510.623	1501.099	1498.901	-0.702	-2.992	3.649	-0.306	5.895	-7.349
211833.893	NaN	1.967	7.130	-5.098	1509.890	1500.366	1499.634	-0.550	-3.115	3.405	-0.383	5.895	-7.502
211834.869	NaN	1.946	7.120	-5.098	1509.890	1499.634	1500.366	-0.519	-3.053	3.313	-0.230	5.818	-7.426
211835.846	NaN	1.946	7.130	-5.120	1512.088	1501.099	1499.634	-0.641	-2.931	3.527	-0.077	5.742	-7.502
211836.823	NaN	1.946	7.130	-5.109	1509.158	1500.366	1498.168	-0.595	-2.763	3.756	-0.153	5.665	-7.349
211837.799	NaN	1.957	7.141	-5.098	1509.890	1499.634	1500.366	-0.473	-2.855	3.695	-0.306	5.665	-7.426
211838.776	NaN	1.946	7.141	-5.109	1509.890	1500.366	1499.634	-0.656	-2.992	3.618	-0.230	5.818	-7.502
211839.752	NaN	1.946	7.141	-5.109	1509.890	1498.901	1499.634	-0.748	-3.130	3.511	-0.230	5.818	-7.502
211840.729	NaN	1.957	7.141	-5.076	1511.355	1500.366	1499.634	-0.794	-3.115	3.710	-0.153	5.665	-7.656
211841.705	NaN	1.957	7.130	-5.076	1510.623	1499.634	1499.634	-1.008	-3.053	3.435	-0.230	5.818	-7.579
211842.682	NaN	1.957	7.130	-5.076	1509.890	1499.634	1500.366	-0.809	-2.916	3.298	-0.306	5.665	-7.426
211843.658	NaN	1.946	7.141	-5.087	1510.623	1500.366	1498.901	-0.626	-2.779	3.389	-0.230	5.742	-7.426
211844.635	NaN	1.946	7.130	-5.098	1509.158	1499.634	1498.901	-0.611	-2.809	3.481	-0.306	5.742	-7.502
211845.612	NaN	1.957	7.141	-5.076	1509.890	1501.099	1499.634	-0.702	-2.779	3.466	-0.306	5.818	-7.579
211846.588	NaN	1.957	7.141	-5.087	1509.890	1501.099	1500.366	-0.733	-2.718	3.527	-0.306	5.589	-7.426
211847.565	NaN	1.946	7.141	-5.076	1509.890	1500.366	1499.634	-0.550	-2.763	3.649	-0.230	5.818	-7.656
211848.541	NaN	1.946	7.141	-5.076	1511.355	1500.366	1499.634	-0.748	-2.947	3.466	-0.153	5.818	-7.426
211849.518	NaN	1.957	7.152	-5.076	1511.355	1501.099	1498.168	-0.748	-2.916	3.481	-0.306	5.818	-7.502
211850.494	NaN	1.967	7.141	-5.076	1510.623	1500.366	1498.901	-0.687	-3.053	3.588	-0.153	5.742	-7.426
211851.471	NaN	1.957	7.163	-5.087	1510.623	1500.366	1500.366	-0.565	-3.038	3.588	-0.153	5.742	-7.502
211852.448	NaN	1.957	7.163	-5.087	1509.890	1500.366	1499.634	-0.565	-2.809	3.649	-0.306	5.818	-7.273
211853.424	NaN	1.946	7.163	-5.109	1511.355	1499.634	1501.832	-0.580	-2.855	3.664	-0.230	5.818	-7.349
211854.401	NaN	1.946	7.152	-5.109	1509.890	1499.634	1498.168	-0.718	-2.870	3.634	-0.383	5.742	-7.273
211855.377	NaN	1.957	7.163	-5.087	1510.623	1499.634	1499.634	-0.977	-2.779	3.557	-0.230	5.665	-7.426
211856.354	NaN	1.946	7.152	-5.087	1509.890	1501.099	1499.634	-0.931	-2.809	3.481	-0.153	5.742	-7.349
211857.330	NaN	1.935	7.141	-5.098	1509.158	1500.366	1500.366	-0.794	-2.916	3.496	-0.230	5.895	-7.502
211858.307	NaN	1.935	7.141	-5.087	1509.890	1501.099	1500.366	-0.595	-2.885	3.511	-0.077	5.589	-7.273
211859.283	NaN	1.935	7.141	-5.098	1510.623	1500.366	1500.366	-0.702	-2.855	3.511	-0.230	5.742	-7.426
211860.260	NaN	1.935	7.130	-5.109	1510.623	1501.099	1498.901	-0.824	-2.748	3.511	-0.230	5.742	-7.349
211861.237	NaN	1.924	7.130	-5.120	1510.623	1499.634	1501.832	-0.748	-2.672	3.527	-0.153	5.818	-7.426
211862.213	NaN	1.935	7.130	-5.130	1510.623	1500.366	1499.634	-0.718	-2.794	3.588	-0.230	5.971	-7.502
211863.190	NaN	1.946	7.141	-5.109	1510.623	1500.366	1499.634	-0.672	-2.779	3.527	-0.230	5.665	-7.426
211864.166	NaN	1.957	7.141	-5.109	1510.623	1500.366	1500.366	-0.580	-2.901	3.481	-0.306	5.818	-7.502
211865.143	NaN	1.946	7.141	-5.098	1510.623	1499.634	1499.634	-0.595	-2.947	3.527	-0.306	5.742	-7.349
211866.119	NaN	1.946	7.141	-5.098	1511.355	1500.366	1500.366	-0.534	-2.962	3.679	-0.230	5.665	-7.426
211867.096	NaN	1.946	7.152	-5.109	1512.088	1501.099	1500.366	-0.519	-2.992	3.786	-0.383	5.818	-7.426
211868.073	NaN	1.946	7.152	-5.087	1511.355	1500.366	1498.901	-0.641	-3.115	3.496	-0.153	5.742	-7.502
211869.049	NaN	1.946	7.141	-5.087	1510.623	1498.901	1500.366	-0.687	-3.053	3.359	-0.306	5.742	-7.426
211870.026	NaN	1.935	7.141	-5.098	1511.355	1499.634	1500.366	-0.779	-2.870	3.344	-0.230	5.665	-7.426
211871.002	NaN	1.935	7.141	-5.098	1510.623	1500.366	1499.634	-0.748	-2.870	3.542	-0.306	5.665	-7.579
211871.979	NaN	1.935	7.141	-5.076	1510.623	1501.099	1500.366	-0.641	-2.809	3.618	-0.383	5.742	-7.579
211872.955	NaN	1.935	7.152	-5.076	1510.623	1500.366	1499.634	-0.611	-2.809	3.618	-0.153	5.742	-7.273
211873.932	NaN	1.946	7.141	-5.087	1509.890	1498.901	1500.366	-0.656	-2.641	3.542	-0.383	5.742	-7.349
211874.908	NaN	1.946	7.141	-5.098	1511.355	1499.634	1501.099	-0.595	-2.595	3.573	-0.230	5.818	-7.426
211875.885	NaN	1.957	7.141	-5.087	1510.623	1501.099	1499.634	-0.763	-2.809	3.802	-0.230	5.665	-7.502
211876.862	NaN	1.957	7.141	-5.087	1510.623	1500.366	1500.366	-0.733	-2.824	3.756	-0.306	5.818	-7.426
211877.838	NaN	1.957	7.141	-5.098	1512.088	1499.634	1500.366	-0.794	-2.718	3.649	-0.153	5.665	-7.426
211878.815	NaN	1.967	7.152	-5.109	1510.623	1500.366	1497.436	-0.595	-2.885	3.511	-0.230	5.818	-7.579
211879.791	NaN	1.957	7.141	-5.109	1510.623	1500.366	1499.634	-0.534	-2.977	3.511	-0.306	5.742	-7.426
211880.768	NaN	1.957	7.141	-5.098	1511.355	1501.099	1499.634	-0.672	-2.962	3.634	-0.230	5.742	-7.502
211888.580	NaN	1.957	7.152	-5.087	1509.890	1499.634	1500.366	-0.611	-2.962	3.725	-0.306	5.742	-7.579
211889.557	NaN	1.957	7.152	-5.087	1509.890	1500.366	1499.634	-0.595	-2.931	3.634	-0.153	5.818	-7.426
211890.533	NaN	1.946	7.141	-5.098	1509.890	1500.366	1498.901	-0.733	-2.901	3.359	-0.153	5.665	-7.502
211891.510	NaN	1.935	7.141	-5.098	1510.623	1498.168	1499.634	-0.809	-2.809	3.481	-0.230	5.818	-7.426
211892.487	NaN	1.935	7.141	-5.076	1510.623	1499.634	1501.099	-0.809	-2.885	3.634	-0.230	5.818	-7.426
211893.463	NaN	1.946	7.152	-5.087	1510.623	1499.634	1500.366	-0.687	-2.992	3.603	-0.153	5.895	-7.656
211894.440	NaN	1.957	7.152	-5.076	1511.355	1500.366	1500.366	-0.855	-2.947	3.511	-0.153	5.742	-7.502
211895.416	NaN	1.957	7.152	-5.087	1510.623	1500.366	1499.634	-0.824	-2.947	3.405	-0.153	5.742	-7.426
211896.393	NaN	1.935	7.141	-5.087	1509.890	1500.366	1499.634	-0.824	-2.977	3.481	-0.230	5.742	-7.349
211897.369	NaN	1.946	7.141	-5.076	1510.623	1499.634	1499.634	-0.611	-2.885	3.481	-0.306	5.742	-7.579
211898.346	NaN	1.946	7.141	-5.076	1510.623	1501.099	1500.366	-0.702	-2.794	3.542	-0.306	5.818	-7.502
211899.323	NaN	1.946	7.141	-5.076	1509.890	1500.366	1500.366	-0.748	-2.901	3.664	-0.230	5.665	-7.426
211900.299	NaN	1.946	7.141	-5.098	1510.623	1499.634	1500.366	-0.855	-3.053	3.603	-0.306	5.742	-7.502
211901.276	NaN	1.957	7.141	-5.098	1510.623	1499.634	1498.901	-0.840	-2.916	3.511	-0.230	5.742	-7.426
211902.252	NaN	1.946	7.141	-5.109	1511.355	1500.366	1498.168	-0.794	-2.901	3.618	-0.230	5.742	-7.579
211903.229	NaN	1.935	7.152	-5.109	1510.623	1499.634	1498.901	-0.947	-3.023	3.695	-0.153	5.818	-7.502
211904.205	NaN	1.946	7.152	-5.087	1509.890	1499.634	1501.099	-0.779	-3.084	3.664	-0.230	5.742	-7.426
211905.182	NaN	1.935	7.152	-5.076	1510.623	1498.901	1499.634	-0.580	-3.099	3.542	-0.230	5.818	-7.273
211906.158	NaN	1.946	7.141	-5.087	1508.425	1499.634	1499.634	-0.733	-3.084	3.252	-0.153	5.742	-7.349
211907.135	NaN	1.957	7.152	-5.087	1509.890	1498.901	1499.634	-0.870	-2.916	3.389	-0.153	5.818	-7.349
211912.018	NaN	1.957	7.152	-5.087	1512.088	1500.366	1499.634	-0.595	-2.885	3.389	-0.230	5.742	-7.502
211912.994	NaN	1.946	7.141	-5.087	1511.355	1500.366	1499.634	-0.779	-2.931	3.542	-0.306	5.665	-7.426
211913.971	NaN	1.935	7.141	-5.098	1509.158	1499.634	1500.366	-0.901	-2.824	3.588	-0.153	5.665	-7.426
211914.948	NaN	1.946	7.141	-5.087	1510.623	1500.366	1500.366	-0.931	-2.824	3.679	-0.383	5.665	-7.579
211915.924	NaN	1.946	7.141	-5.098	1509.890	1500.366	1499.634	-0.672	-2.901	3.557	-0.153	5.818	-7.502
211916.901	NaN	1.957	7.141	-5.087	1510.623	1501.099	1499.634	-0.611	-2.916	3.481	-0.230	5.818	-7.349
211917.877	NaN	1.957	7.141	-5.087	1509.890	1500.366	1498.901	-0.870	-2.916	3.603	-0.153	5.665	-7.579
211918.854	NaN	1.967	7.130	-5.087	1509.890	1499.634	1500.366	-0.809	-2.947	3.649	-0.153	5.665	-7.349
211919.830	NaN	1.957	7.130	-5.109	1509.890	1500.366	1498.901	-0.626	-2.855	3.542	-0.153	5.665	-7.426
211920.807	NaN	1.967	7.141	-5.087	1511.355	1500.366	1498.901	-0.656	-2.687	3.542	-0.230	5.818	-7.349
211921.783	NaN	1.967	7.141	-5.098	1509.890	1500.366	1498.901	-0.702	-2.763	3.466	-0.230	5.665	-7.502
211922.760	NaN	1.967	7.163	-5.087	1510.623	1499.634	1499.634	-0.534	-3.023	3.481	-0.153	5.742	-7.426
211923.737	NaN	1.967	7.152	-5.098	1510.623	1500.366	1498.901	-0.580	-2.916	3.664	-0.230	5.818	-7.426
211924.713	NaN	1.957	7.163	-5.087	1510.623	1500.366	1499.634	-0.931	-2.702	3.603	-0.153	5.742	-7.656
211925.690	NaN	1.967	7.152	-5.087	1510.623	1500.366	1500.366	-0.840	-2.779	3.557	-0.230	5.818	-7.349
211926.666	NaN	1.957	7.152	-5.087	1510.623	1500.366	1499.634	-0.656	-2.916	3.557	-0.077	5.742	-7.426
211927.643	NaN	1.957	7.141	-5.087	1509.890	1500.366	1500.366	-0.718	-2.840	3.649	-0.306	5.665	-7.349
211928.619	NaN	1.935	7.141	-5.087	1509.890	1499.634	1501.099	-0.687	-2.626	3.527	-0.306	5.818	-7.273
211929.596	NaN	1.924	7.141	-5.076	1509.158	1500.366	1497.436	-0.687	-2.611	3.450	-0.230	5.589	-7.502
211930.573	NaN	1.935	7.152	-5.065	1509.890	1499.634	1500.366	-0.687	-2.840	3.496	-0.077	5.665	-7.426
211931.549	NaN	1.935	7.152	-5.087	1511.355	1499.634	1500.366	-0.947	-2.916	3.603	-0.153	5.818	-7.579
211932.526	NaN	1.946	7.152	-5.098	1509.890	1499.634	1499.634	-1.115	-2.824	3.603	-0.306	5.742	-7.579
211933.502	NaN	1.946	7.141	-5.087	1510.623	1499.634	1499.634	-0.947	-2.733	3.481	-0.153	5.818	-7.349
211934.479	NaN	1.935	7.141	-5.087	1509.890	1500.366	1498.168	-0.824	-2.718	3.466	-0.306	5.742	-7.579
211935.455	NaN	1.946	7.141	-5.087	1509.890	1499.634	1499.634	-0.702	-2.855	3.573	-0.306	5.818	-7.349
211936.432	NaN	1.946	7.141	-5.087	1510.623	1501.099	1499.634	-0.687	-2.931	3.695	-0.153	5.742	-7.426
211937.408	NaN	1.935	7.130	-5.087	1511.355	1500.366	1498.901	-0.901	-2.916	3.603	-0.077	5.818	-7.426
211938.385	NaN	1.946	7.141	-5.098	1511.355	1501.099	1500.366	-1.191	-3.115	3.618	-0.153	5.818	-7.502
211939.362	NaN	1.957	7.141	-5.087	1510.623	1501.099	1498.901	-1.038	-3.053	3.603	-0.230	5.665	-7.502
211940.338	NaN	1.957	7.152	-5.087	1512.088	1500.366	1499.634	-0.687	-2.870	3.679	-0.383	5.665	-7.273
211941.315	NaN	1.957	7.152	-5.087	1509.890	1499.634	1500.366	-0.351	-2.809	3.740	-0.230	5.665	-7.502
211942.291	NaN	1.946	7.152	-5.087	1509.890	1499.634	1499.634	-0.412	-2.580	3.481	-0.153	5.742	-7.426
211943.268	NaN	1.946	7.152	-5.087	1509.158	1498.901	1497.436	-0.534	-2.626	3.160	-0.230	5.742	-7.579
211944.244	NaN	1.957	7.174	-5.087	1510.623	1499.634	1500.366	-0.687	-2.748	3.221	-0.306	5.818	-7.502
211945.221	NaN	1.946	7.163	-5.087	1510.623	1500.366	1498.901	-0.626	-2.824	3.389	-0.230	5.665	-7.502
211946.198	NaN	1.946	7.152	-5.098	1509.890	1498.901	1500.366	-0.763	-2.901	3.527	-0.077	5.818	-7.579
211947.174	NaN	1.946	7.152	-5.087	1509.158	1499.634	1499.634	-0.931	-2.947	3.634	-0.230	5.742	-7.426
211948.151	NaN	1.967	7.163	-5.076	1509.158	1499.634	1500.366	-0.962	-2.947	3.557	-0.306	5.665	-7.426
211949.127	NaN	1.957	7.152	-5.109	1510.623	1499.634	1500.366	-1.069	-2.809	3.618	-0.306	5.665	-7.426
211950.104	NaN	1.957	7.152	-5.109	1509.158	1498.168	1499.634	-0.763	-2.855	3.603	-0.153	5.818	-7.426
211951.080	NaN	1.946	7.141	-5.098	1510.623	1499.634	1500.366	-0.519	-2.992	3.588	-0.306	5.818	-7.502
211952.057	NaN	1.946	7.141	-5.098	1510.623	1500.366	1498.168	-0.626	-3.008	3.527	-0.077	5.742	-7.426
211953.033	NaN	1.957	7.141	-5.087	1509.890	1500.366	1499.634	-0.794	-2.992	3.511	-0.230	5.665	-7.349
211954.010	NaN	1.957	7.141	-5.098	1510.623	1501.099	1500.366	-0.916	-2.748	3.450	-0.230	5.742	-7.426
211954.987	NaN	1.957	7.130	-5.098	1510.623	1499.634	1500.366	-0.794	-2.718	3.481	-0.230	5.589	-7.273
211955.963	NaN	1.946	7.130	-5.109	1512.088	1501.099	1500.366	-0.611	-2.809	3.481	-0.383	5.742	-7.579
211956.940	NaN	1.957	7.120	-5.087	1511.355	1500.366	1500.366	-0.595	-2.885	3.573	-0.306	5.742	-7.426
211957.916	NaN	1.935	7.120	-5.087	1510.623	1500.366	1498.901	-0.504	-2.809	3.710	-0.230	5.742	-7.502
211958.893	NaN	1.935	7.120	-5.087	1510.623	1499.634	1500.366	-0.763	-2.885	3.588	-0.230	5.665	-7.349
211959.869	NaN	1.935	7.130	-5.098	1509.158	1501.099	1498.901	-0.962	-3.084	3.496	-0.153	5.818	-7.273
211960.846	NaN	1.946	7.141	-5.098	1509.890	1501.099	1500.366	-0.824	-3.298	3.344	-0.230	5.742	-7.426
211961.823	NaN	1.957	7.141	-5.087	1510.623	1501.099	1499.634	-0.656	-3.084	3.481	-0.230	5.742	-7.349
211962.799	NaN	1.957	7.141	-5.087	1509.890	1500.366	1500.366	-0.672	-2.794	3.481	-0.306	5.742	-7.579
211963.776	NaN	1.967	7.152	-5.087	1509.890	1500.366	1498.168	-0.809	-2.809	3.527	-0.230	5.818	-7.502
211964.752	NaN	1.957	7.141	-5.087	1510.623	1500.366	1499.634	-0.855	-2.885	3.695	-0.153	5.742	-7.349
211965.729	NaN	1.967	7.152	-5.065	1508.425	1501.832	1500.366	-0.855	-3.053	3.725	-0.153	5.742	-7.273
211966.705	NaN	1.967	7.141	-5.054	1509.890	1500.366	1499.634	-0.763	-3.115	3.725	-0.153	5.742	-7.502
211967.682	NaN	1.967	7.141	-5.054	1510.623	1501.099	1500.366	-0.763	-2.947	3.725	-0.153	5.742	-7.502
211968.658	NaN	1.957	7.141	-5.065	1509.890	1499.634	1501.099	-0.611	-2.901	3.527	-0.306	5.742	-7.426
211969.635	NaN	1.946	7.152	-5.087	1512.088	1500.366	1499.634	-0.580	-2.947	3.466	-0.153	5.742	-7.426
211970.612	NaN	1.967	7.141	-5.065	1510.623	1501.099	1499.634	-0.687	-3.099	3.588	-0.153	5.895	-7.349
211971.588	NaN	1.967	7.141	-5.065	1510.623	1500.366	1500.366	-0.824	-3.008	3.878	-0.306	5.818	-7.579
211972.565	NaN	1.967	7.141	-5.076	1511.355	1499.634	1500.366	-0.763	-2.947	3.847	-0.230	5.742	-7.426
211973.541	NaN	1.946	7.152	-5.087	1510.623	1499.634	1500.366	-0.580	-2.779	3.557	-0.153	5.895	-7.426
211974.518	NaN	1.946	7.152	-5.076	1511.355	1501.099	1500.366	-0.656	-2.855	3.450	-0.230	5.742	-7.426
211975.494	NaN	1.946	7.141	-5.087	1509.890	1501.099	1501.099	-0.962	-2.916	3.542	-0.153	5.665	-7.426
211976.471	NaN	1.957	7.152	-5.098	1510.623	1500.366	1500.366	-1.099	-2.901	3.588	-0.230	5.818	-7.273
211977.448	NaN	1.957	7.141	-5.098	1510.623	1500.366	1500.366	-1.130	-2.809	3.618	-0.230	5.742	-7.502
211978.424	NaN	1.946	7.152	-5.109	1511.355	1500.366	1498.901	-0.962	-2.794	3.618	-0.383	5.742	-7.426
211979.401	NaN	1.946	7.141	-5.098	1510.623	1501.099	1500.366	-0.672	-2.931	3.634	-0.230	5.818	-7.426
211980.377	NaN	1.946	7.152	-5.109	1511.355	1499.634	1501.099	-0.595	-2.809	3.588	-0.230	5.665	-7.502
211981.354	NaN	1.935	7.152	-5.109	1510.623	1500.366	1500.366	-0.565	-2.855	3.725	-0.306	5.895	-7.502
211982.330	NaN	1.946	7.152	-5.120	1510.623	1499.634	1499.634	-0.626	-2.916	3.679	-0.306	5.665	-7.349
211983.307	NaN	1.957	7.152	-5.098	1510.623	1501.099	1500.366	-0.855	-2.977	3.649	-0.153	5.665	-7.579
211984.283	NaN	1.957	7.163	-5.098	1510.623	1500.366	1500.366	-0.656	-2.824	3.603	-0.383	5.665	-7.579
211985.260	NaN	1.957	7.163	-5.087	1509.890	1500.366	1499.634	-0.809	-2.748	3.527	-0.383	5.665	-7.502
211986.237	NaN	1.967	7.163	-5.087	1510.623	1499.634	1500.366	-0.870	-2.840	3.542	-0.153	5.818	-7.579
211987.213	NaN	1.957	7.163	-5.098	1509.890	1499.634	1499.634	-0.931	-3.084	3.603	-0.153	5.895	-7.273
211988.190	NaN	1.957	7.163	-5.098	1509.890	1501.099	1499.634	-1.038	-2.947	3.588	-0.230	5.895	-7.579
211989.166	NaN	1.957	7.163	-5.098	1510.623	1501.099	1498.901	-1.160	-2.885	3.618	-0.230	5.971	-7.426
211990.143	NaN	1.946	7.163	-5.098	1510.623	1500.366	1498.168	-0.840	-2.779	3.740	-0.230	5.818	-7.349
211991.119	NaN	1.946	7.152	-5.098	1509.158	1500.366	1498.901	-0.427	-2.901	3.817	-0.153	5.818	-7.349
211992.096	NaN	1.957	7.152	-5.109	1511.355	1501.099	1499.634	-0.519	-2.977	3.771	-0.153	5.742	-7.426
211993.073	NaN	1.967	7.152	-5.098	1509.890	1500.366	1500.366	-0.855	-2.855	3.710	-0.077	5.742	-7.502
211994.049	NaN	1.978	7.141	-5.087	1510.623	1500.366	1500.366	-0.992	-2.931	3.588	-0.153	5.742	-7.426
211995.026	NaN	1.967	7.141	-5.098	1510.623	1500.366	1500.366	-0.870	-2.962	3.557	-0.153	5.742	-7.349
211996.002	NaN	1.957	7.141	-5.109	1510.623	1499.634	1499.634	-0.748	-2.962	3.664	-0.306	5.665	-7.426
211996.979	NaN	1.957	7.141	-5.109	1511.355	1500.366	1499.634	-0.565	-2.901	3.740	-0.230	5.742	-7.502
211997.955	NaN	1.967	7.141	-5.098	1510.623	1499.634	1500.366	-0.458	-2.840	3.832	-0.230	5.818	-7.502
211998.932	NaN	1.957	7.141	-5.087	1510.623	1500.366	1500.366	-0.702	-2.901	3.786	-0.153	5.589	-7.502
211999.908	3736844561.882	1.957	7.141	-5.087	1510.623	1500.366	1498.901	-0.702	-2.840	3.496	-0.383	5.742	-7.502
212000.885	NaN	1.946	7.141	-5.098	1509.890	1501.099	1500.366	-0.870	-2.809	3.511	-0.306	5.742	-7.426
212001.862	NaN	1.957	7.141	-5.098	1510.623	1501.832	1498.901	-1.008	-2.794	3.634	-0.153	5.818	-7.349
212002.838	NaN	1.946	7.152	-5.098	1511.355	1500.366	1500.366	-0.931	-2.870	3.588	-0.230	5.742	-7.502
212003.815	NaN	1.957	7.174	-5.098	1510.623	1500.366	1500.366	-0.992	-2.901	3.710	-0.153	5.742	-7.502
212004.791	NaN	1.935	7.163	-5.098	1509.890	1500.366	1500.366	-0.870	-2.870	3.924	-0.383	5.742	-7.273
212005.768	NaN	1.957	7.163	-5.087	1510.623	1501.832	1501.099	-0.885	-2.992	3.756	-0.230	5.895	-7.426
212006.744	NaN	1.946	7.152	-5.098	1509.890	1498.901	1500.366	-0.733	-2.992	3.756	-0.306	5.742	-7.426
212007.721	NaN	1.946	7.152	-5.098	1509.890	1498.168	1498.901	-0.641	-2.931	3.786	-0.230	5.742	-7.349
212008.698	NaN	1.957	7.141	-5.076	1510.623	1500.366	1500.366	-0.687	-3.038	3.618	-0.306	5.742	-7.579
212009.674	NaN	1.946	7.141	-5.098	1510.623	1501.099	1499.634	-0.687	-3.099	3.496	-0.153	5.665	-7.426
212010.651	NaN	1.957	7.130	-5.087	1509.890	1501.099	1501.099	-0.992	-2.931	3.542	-0.153	5.818	-7.502
212011.627	NaN	1.946	7.141	-5.087	1510.623	1500.366	1499.634	-0.962	-2.763	3.542	-0.230	5.742	-7.349
212012.604	NaN	1.957	7.130	-5.098	1510.623	1501.099	1500.366	-0.794	-2.534	3.771	-0.077	5.742	-7.426
212013.580	NaN	1.957	7.130	-5.098	1510.623	1500.366	1499.634	-0.748	-2.626	3.756	-0.153	5.742	-7.426
212014.557	NaN	1.957	7.130	-5.098	1510.623	1501.099	1500.366	-0.809	-2.931	3.649	-0.383	5.818	-7.349
212015.533	NaN	1.957	7.141	-5.098	1510.623	1501.832	1499.634	-0.947	-2.840	3.557	-0.153	5.589	-7.349
212016.510	NaN	1.957	7.141	-5.087	1511.355	1499.634	1500.366	-1.145	-2.794	3.481	-0.230	5.742	-7.656
212017.487	NaN	1.957	7.152	-5.098	1510.623	1500.366	1499.634	-0.855	-2.824	3.603	-0.230	5.742	-7.656
212018.463	NaN	1.946	7.130	-5.109	1510.623	1500.366	1500.366	-0.779	-2.840	3.603	-0.153	5.665	-7.579
212019.440	NaN	1.957	7.141	-5.098	1509.890	1499.634	1500.366	-0.809	-2.687	3.573	-0.306	5.665	-7.349
212020.416	NaN	1.957	7.141	-5.098	1511.355	1500.366	1498.901	-0.901	-2.718	3.466	-0.230	5.895	-7.273
212021.393	NaN	1.946	7.130	-5.109	1510.623	1500.366	1499.634	-0.947	-2.870	3.344	-0.153	5.818	-7.426
212022.369	NaN	1.924	7.130	-5.109	1509.890	1501.099	1499.634	-0.901	-3.099	3.359	-0.230	5.742	-7.349
212023.346	NaN	1.935	7.141	-5.109	1509.890	1499.634	1498.901	-0.809	-2.885	3.374	-0.153	5.895	-7.426
212024.323	NaN	1.957	7.152	-5.087	1510.623	1500.366	1498.901	-0.641	-2.931	3.435	-0.153	5.818	-7.426
212025.299	NaN	1.946	7.152	-5.087	1510.623	1500.366	1498.901	-0.672	-2.916	3.634	-0.230	5.742	-7.502
212026.276	NaN	1.946	7.152	-5.076	1509.158	1499.634	1500.366	-0.718	-2.885	3.679	-0.306	5.818	-7.579
212027.252	NaN	1.946	7.152	-5.076	1509.890	1499.634	1499.634	-0.870	-2.947	3.634	-0.306	5.742	-7.349
212028.229	NaN	1.946	7.152	-5.087	1509.890	1498.901	1500.366	-0.962	-2.901	3.450	-0.153	5.818	-7.426
212029.205	NaN	1.957	7.163	-5.076	1510.623	1499.634	1500.366	-0.901	-2.901	3.618	-0.230	5.742	-7.349
212030.182	NaN	1.946	7.152	-5.087	1510.623	1500.366	1499.634	-0.962	-2.977	3.771	-0.230	5.818	-7.579
212031.158	NaN	1.946	7.130	-5.098	1509.890	1499.634	1499.634	-0.901	-2.992	3.771	-0.230	5.818	-7.502
212032.135	NaN	1.946	7.141	-5.098	1509.890	1501.099	1499.634	-0.733	-2.870	3.710	-0.230	5.895	-7.349
212033.112	NaN	1.935	7.130	-5.098	1509.890	1499.634	1500.366	-0.672	-3.038	3.710	-0.306	5.742	-7.502
212034.088	NaN	1.935	7.141	-5.087	1508.425	1498.901	1499.634	-0.885	-3.008	3.786	-0.230	5.895	-7.502
212035.065	NaN	1.957	7.141	-5.076	1510.623	1500.366	1499.634	-0.870	-2.931	3.771	-0.153	5.742	-7.426
212036.041	NaN	1.957	7.141	-5.087	1510.623	1498.901	1498.901	-0.885	-2.885	3.695	-0.306	5.742	-7.502
212037.018	NaN	1.978	7.141	-5.076	1511.355	1501.099	1498.901	-0.870	-2.855	3.679	-0.230	5.742	-7.502
212037.994	NaN	1.967	7.130	-5.087	1510.623	1499.634	1500.366	-0.748	-2.565	3.679	-0.306	5.665	-7.502
212038.971	NaN	1.978	7.152	-5.087	1509.158	1499.634	1500.366	-0.840	-2.626	3.618	-0.153	5.742	-7.502
212039.948	NaN	1.957	7.152	-5.087	1509.158	1500.366	1500.366	-0.885	-2.962	3.649	-0.230	5.742	-7.426
212040.924	NaN	1.946	7.152	-5.098	1511.355	1498.901	1501.099	-0.641	-3.191	3.588	-0.153	5.742	-7.349
212041.901	NaN	1.946	7.152	-5.098	1510.623	1500.366	1499.634	-0.443	-2.977	3.679	-0.230	5.589	-7.502
212042.877	NaN	1.957	7.141	-5.098	1509.890	1501.099	1499.634	-0.595	-2.855	3.649	-0.306	5.742	-7.502
212043.854	NaN	1.957	7.152	-5.087	1510.623	1500.366	1498.901	-0.794	-2.916	3.603	-0.383	5.818	-7.349
212044.830	NaN	1.935	7.141	-5.098	1509.890	1500.366	1497.436	-0.687	-3.069	3.374	-0.153	5.665	-7.502
212045.807	NaN	1.946	7.141	-5.087	1510.623	1499.634	1498.168	-0.672	-3.038	3.420	-0.230	5.742	-7.502
212046.783	NaN	1.957	7.141	-5.076	1510.623	1499.634	1501.832	-0.947	-2.916	3.756	-0.230	5.742	-7.349
212047.760	NaN	1.946	7.130	-5.087	1510.623	1500.366	1501.099	-1.069	-2.824	3.832	-0.153	5.742	-7.502
212048.737	NaN	1.946	7.152	-5.076	1509.158	1499.634	1498.901	-1.008	-2.901	3.740	-0.153	5.818	-7.579
212049.713	NaN	1.946	7.141	-5.076	1509.890	1500.366	1498.901	-1.038	-2.748	3.603	-0.230	5.818	-7.273
212050.690	NaN	1.946	7.130	-5.098	1510.623	1499.634	1500.366	-0.779	-2.824	3.481	-0.306	5.665	-7.426
212051.666	NaN	1.957	7.141	-5.076	1510.623	1500.366	1499.634	-0.595	-2.870	3.542	-0.306	5.742	-7.502
212052.643	NaN	1.946	7.141	-5.087	1510.623	1500.366	1498.901	-0.672	-2.977	3.542	-0.153	5.742	-7.502
212053.619	NaN	1.935	7.141	-5.098	1509.158	1498.901	1500.366	-0.763	-2.992	3.389	-0.306	5.665	-7.502
212054.596	NaN	1.957	7.152	-5.098	1510.623	1500.366	1498.168	-0.885	-2.916	3.511	-0.306	5.742	-7.349
212055.573	NaN	1.946	7.141	-5.120	1509.890	1499.634	1499.634	-0.626	-2.901	3.496	-0.230	5.665	-7.273
212056.549	NaN	1.957	7.141	-5.098	1510.623	1500.366	1499.634	-0.550	-2.779	3.588	-0.153	5.818	-7.502
212057.526	NaN	1.957	7.130	-5.098	1510.623	1500.366	1498.901	-0.641	-2.794	3.573	-0.306	5.895	-7.579
212058.502	NaN	1.967	7.141	-5.076	1509.158	1498.901	1499.634	-0.672	-2.824	3.756	-0.230	5.665	-7.579
212059.479	NaN	1.967	7.141	-5.076	1511.355	1500.366	1500.366	-0.748	-2.931	3.786	-0.153	5.665	-7.502
212060.455	NaN	1.957	7.152	-5.076	1510.623	1500.366	1499.634	-0.672	-2.977	3.679	-0.230	5.818	-7.579
212061.432	NaN	1.957	7.152	-5.087	1510.623	1499.634	1499.634	-0.809	-2.809	3.527	-0.153	5.665	-7.349
212062.408	NaN	1.946	7.141	-5.098	1510.623	1499.634	1499.634	-0.855	-2.733	3.527	-0.306	5.818	-7.426
212063.385	NaN	1.935	7.152	-5.098	1511.355	1500.366	1500.366	-0.794	-2.779	3.466	-0.459	5.742	-7.349
212064.362	NaN	1.924	7.152	-5.109	1509.890	1499.634	1499.634	-0.748	-2.901	3.405	-0.153	5.971	-7.426
212065.338	NaN	1.946	7.152	-5.098	1511.355	1500.366	1499.634	-0.824	-2.809	3.588	-0.306	5.742	-7.426
212066.315	NaN	1.935	7.152	-5.109	1510.623	1501.099	1500.366	-0.779	-2.809	3.847	-0.230	5.665	-7.502
212067.291	NaN	1.935	7.141	-5.109	1510.623	1499.634	1499.634	-0.580	-2.824	3.847	-0.153	5.742	-7.426
212068.268	NaN	1.946	7.152	-5.120	1510.623	1501.099	1500.366	-0.580	-2.794	3.771	-0.153	5.818	-7.349
212069.244	NaN	1.946	7.152	-5.109	1510.623	1499.634	1500.366	-0.687	-2.916	3.771	-0.230	5.665	-7.579
212070.221	NaN	1.946	7.163	-5.098	1510.623	1499.634	1501.099	-1.023	-2.870	3.603	-0.306	5.665	-7.502
212071.198	NaN	1.946	7.152	-5.098	1509.890	1500.366	1500.366	-0.840	-2.809	3.588	-0.153	5.818	-7.426
212072.174	NaN	1.946	7.163	-5.098	1510.623	1499.634	1501.099	-0.656	-2.885	3.634	-0.383	5.742	-7.349
212073.151	NaN	1.946	7.163	-5.087	1509.890	1500.366	1499.634	-0.595	-2.947	3.466	-0.153	5.512	-7.273
212074.127	NaN	1.946	7.152	-5.087	1510.623	1499.634	1501.099	-0.718	-2.901	3.649	-0.153	5.742	-7.426
212075.104	NaN	1.957	7.152	-5.087	1510.623	1499.634	1501.099	-0.779	-2.931	3.802	-0.153	5.742	-7.426
212076.080	NaN	1.946	7.152	-5.087	1510.623	1499.634	1501.099	-0.901	-2.840	3.786	-0.230	5.742	-7.349
212077.057	NaN	1.946	7.152	-5.087	1512.088	1500.366	1500.366	-0.718	-2.855	3.710	-0.230	5.665	-7.426
212078.033	NaN	1.946	7.163	-5.098	1511.355	1499.634	1499.634	-0.519	-2.870	3.603	-0.306	5.742	-7.426
212079.010	NaN	1.935	7.152	-5.109	1510.623	1501.099	1500.366	-0.550	-2.916	3.496	-0.153	5.665	-7.349
212079.987	NaN	1.935	7.163	-5.087	1509.158	1499.634	1498.901	-0.595	-2.931	3.496	-0.306	5.895	-7.579
212080.963	NaN	1.946	7.152	-5.109	1510.623	1501.099	1500.366	-0.855	-2.962	3.389	-0.153	5.742	-7.349
212081.940	NaN	1.946	7.152	-5.098	1510.623	1500.366	1499.634	-0.672	-3.130	3.282	-0.077	5.742	-7.426
212082.916	NaN	1.935	7.141	-5.109	1511.355	1499.634	1500.366	-0.718	-3.008	3.405	-0.230	5.742	-7.502
212083.893	NaN	1.946	7.141	-5.109	1509.890	1498.901	1497.436	-0.809	-2.962	3.466	-0.153	5.742	-7.426
212084.869	NaN	1.957	7.130	-5.109	1509.890	1500.366	1500.366	-0.824	-2.885	3.466	-0.230	5.665	-7.426
212085.846	NaN	1.957	7.141	-5.109	1511.355	1500.366	1500.366	-0.931	-2.748	3.511	-0.153	5.742	-7.426
212086.823	NaN	1.946	7.141	-5.098	1510.623	1500.366	1500.366	-0.809	-2.809	3.573	-0.230	5.818	-7.349
212087.799	NaN	1.946	7.152	-5.109	1509.890	1500.366	1499.634	-0.916	-2.885	3.435	-0.306	5.818	-7.426
212088.776	NaN	1.946	7.141	-5.098	1509.890	1499.634	1500.366	-0.809	-2.901	3.557	-0.153	5.818	-7.502
212089.752	NaN	1.946	7.152	-5.109	1512.088	1500.366	1498.168	-0.885	-3.099	3.847	-0.306	5.818	-7.273
212090.729	NaN	1.935	7.130	-5.098	1510.623	1499.634	1500.366	-0.748	-2.931	3.878	-0.306	5.818	-7.426
212091.705	NaN	1.957	7.152	-5.098	1509.158	1499.634	1500.366	-0.748	-2.672	3.664	-0.153	5.742	-7.502
212092.682	NaN	1.957	7.141	-5.098	1510.623	1499.634	1501.832	-0.748	-2.733	3.496	-0.153	5.818	-7.579
212093.658	NaN	1.946	7.141	-5.098	1510.623	1500.366	1498.168	-0.733	-2.855	3.466	-0.230	5.742	-7.349
212094.635	NaN	1.946	7.130	-5.098	1511.355	1501.099	1501.099	-0.794	-2.901	3.389	-0.153	5.742	-7.502
212095.612	NaN	1.957	7.141	-5.087	1510.623	1500.366	1500.366	-0.840	-2.947	3.374	-0.153	5.665	-7.426
212096.588	NaN	1.946	7.130	-5.087	1510.623	1499.634	1500.366	-0.901	-2.855	3.481	-0.153	5.818	-7.426
212097.565	NaN	1.946	7.130	-5.087	1510.623	1498.901	1501.832	-0.748	-2.733	3.603	-0.230	5.818	-7.502
212098.541	NaN	1.946	7.120	-5.109	1510.623	1498.901	1500.366	-0.595	-2.718	3.634	-0.230	5.895	-7.349
212099.518	NaN	1.946	7.130	-5.109	1511.355	1501.099	1500.366	-0.656	-2.870	3.588	-0.306	5.818	-7.349
212100.494	NaN	1.946	7.130	-5.109	1509.890	1500.366	1498.168	-0.779	-2.992	3.557	-0.230	5.742	-7.426
212101.471	NaN	1.946	7.141	-5.098	1511.355	1500.366	1499.634	-0.733	-3.038	3.634	-0.153	5.742	-7.426
212102.448	NaN	1.946	7.141	-5.087	1509.890	1500.366	1500.366	-0.779	-2.901	3.679	-0.230	5.818	-7.579
212103.424	NaN	1.924	7.152	-5.098	1511.355	1500.366	1500.366	-0.885	-2.916	3.756	-0.306	5.665	-7.426
212104.401	NaN	1.935	7.152	-5.087	1509.890	1500.366	1500.366	-0.870	-2.870	3.756	-0.153	5.895	-7.426
212105.377	NaN	1.935	7.152	-5.109	1509.890	1500.366	1500.366	-0.626	-2.794	3.710	-0.230	5.818	-7.349
212106.354	NaN	1.946	7.163	-5.087	1509.890	1499.634	1501.099	-0.748	-2.718	3.573	-0.153	5.742	-7.349
212107.330	NaN	1.935	7.152	-5.098	1511.355	1498.901	1501.099	-0.702	-2.824	3.511	-0.230	5.665	-7.579
212108.307	NaN	1.946	7.141	-5.098	1510.623	1499.634	1498.901	-0.580	-2.885	3.634	-0.230	5.742	-7.426
212109.283	NaN	1.946	7.152	-5.087	1509.890	1500.366	1498.901	-0.534	-3.023	3.588	-0.306	5.818	-7.349
212110.260	NaN	1.935	7.141	-5.087	1509.890	1500.366	1499.634	-0.580	-3.084	3.405	-0.306	5.895	-7.426
212111.237	NaN	1.935	7.130	-5.076	1509.158	1499.634	1499.634	-0.748	-2.748	3.435	-0.230	5.742	-7.502
212112.213	NaN	1.946	7.130	-5.087	1511.355	1499.634	1500.366	-0.824	-2.656	3.420	-0.306	5.742	-7.426
212113.190	NaN	1.946	7.130	-5.087	1509.158	1498.901	1498.901	-0.870	-2.824	3.298	-0.230	5.665	-7.426
212114.166	NaN	1.946	7.141	-5.076	1509.890	1500.366	1498.901	-0.794	-2.824	3.481	-0.230	5.665	-7.502
212115.143	NaN	1.957	7.152	-5.054	1510.623	1501.099	1499.634	-0.611	-2.824	3.695	-0.153	5.818	-7.502
212116.119	NaN	1.946	7.152	-5.087	1509.890	1499.634	1498.901	-0.641	-2.763	3.588	-0.230	5.895	-7.426
212117.096	NaN	1.967	7.152	-5.076	1512.088	1500.366	1498.168	-0.748	-2.870	3.496	-0.153	5.895	-7.426
212118.073	NaN	1.957	7.152	-5.087	1509.890	1500.366	1497.436	-0.611	-2.901	3.649	-0.153	5.818	-7.426
212119.049	NaN	1.967	7.163	-5.087	1511.355	1500.366	1500.366	-0.611	-2.763	3.847	-0.230	5.742	-7.502
212120.026	NaN	1.957	7.152	-5.087	1509.890	1499.634	1500.366	-0.687	-2.763	3.634	-0.306	5.742	-7.502
212121.002	NaN	1.946	7.152	-5.098	1510.623	1500.366	1500.366	-0.672	-2.840	3.450	-0.153	5.742	-7.502
212121.979	NaN	1.957	7.152	-5.098	1510.623	1500.366	1498.901	-0.794	-2.885	3.588	-0.230	5.818	-7.502
212122.955	NaN	1.935	7.152	-5.109	1510.623	1499.634	1501.099	-0.855	-2.824	3.725	-0.306	5.742	-7.426
212123.932	NaN	1.957	7.163	-5.087	1509.158	1499.634	1501.099	-0.595	-2.641	3.710	-0.230	5.742	-7.502
212124.908	NaN	1.946	7.152	-5.098	1510.623	1499.634	1499.634	-0.275	-2.809	3.481	-0.306	5.818	-7.426
212125.885	NaN	1.946	7.152	-5.098	1510.623	1501.099	1499.634	-0.351	-2.885	3.389	-0.230	5.818	-7.426
212126.862	NaN	1.957	7.152	-5.098	1511.355	1500.366	1500.366	-0.580	-2.931	3.481	-0.153	5.742	-7.579
212127.838	NaN	1.967	7.152	-5.098	1509.890	1499.634	1499.634	-0.641	-2.885	3.710	-0.230	5.818	-7.426
212128.815	NaN	1.967	7.141	-5.098	1510.623	1500.366	1499.634	-0.809	-2.916	3.679	-0.153	5.665	-7.502
212129.791	NaN	1.967	7.130	-5.109	1510.623	1499.634	1499.634	-0.947	-3.069	3.649	-0.077	5.742	-7.502
212130.768	NaN	1.967	7.163	-5.109	1510.623	1501.099	1498.901	-0.748	-3.008	3.618	-0.153	5.818	-7.579
212131.744	NaN	1.967	7.163	-5.109	1510.623	1500.366	1498.901	-0.580	-2.962	3.710	-0.153	5.818	-7.426
212132.721	NaN	1.967	7.152	-5.098	1510.623	1500.366	1498.901	-0.611	-2.962	3.863	-0.306	5.742	-7.426
212133.698	NaN	1.957	7.152	-5.087	1510.623	1500.366	1498.901	-0.702	-2.748	3.557	-0.230	5.818	-7.502
212134.674	NaN	1.957	7.152	-5.109	1511.355	1500.366	1500.366	-0.916	-2.824	3.435	-0.230	5.742	-7.502
212135.651	NaN	1.957	7.163	-5.087	1509.890	1500.366	1500.366	-0.855	-2.824	3.527	-0.153	5.818	-7.426
212136.627	3736844562.019	1.946	7.152	-5.098	1510.623	1500.366	1500.366	-0.641	-2.840	3.389	-0.230	5.971	-7.502
212137.604	NaN	1.957	7.152	-5.098	1509.158	1501.099	1498.901	-0.565	-2.855	3.527	-0.230	5.895	-7.349
212138.580	NaN	1.957	7.152	-5.098	1509.158	1501.099	1500.366	-0.947	-2.885	3.649	-0.230	5.818	-7.579
212139.557	NaN	1.957	7.163	-5.087	1511.355	1500.366	1500.366	-0.855	-2.962	3.634	-0.230	5.665	-7.349
212140.533	NaN	1.957	7.163	-5.087	1511.355	1500.366	1498.901	-0.534	-3.038	3.740	-0.153	5.818	-7.349
212141.510	NaN	1.957	7.152	-5.087	1510.623	1500.366	1500.366	-0.351	-2.962	3.557	-0.306	5.742	-7.502
212142.487	NaN	1.957	7.152	-5.087	1511.355	1499.634	1500.366	-0.489	-2.931	3.344	-0.383	5.742	-7.349
212143.463	NaN	1.967	7.141	-5.098	1510.623	1500.366	1498.901	-0.565	-2.763	3.527	-0.230	5.742	-7.426
212144.440	NaN	1.967	7.141	-5.098	1510.623	1501.099	1500.366	-0.611	-2.718	3.618	-0.153	5.742	-7.426
212145.416	NaN	1.957	7.152	-5.098	1512.088	1501.099	1498.901	-0.611	-2.931	3.588	-0.230	5.818	-7.502
212146.393	NaN	1.957	7.152	-5.098	1510.623	1500.366	1498.168	-0.489	-2.763	3.603	-0.306	5.818	-7.502
212147.369	NaN	1.946	7.152	-5.098	1509.890	1499.634	1500.366	-0.397	-2.702	3.588	-0.153	5.895	-7.349
212148.346	NaN	1.946	7.163	-5.087	1509.890	1499.634	1498.901	-0.550	-2.779	3.603	-0.230	5.818	-7.426
212149.323	NaN	1.946	7.163	-5.076	1511.355	1500.366	1500.366	-0.718	-2.748	3.740	-0.306	5.665	-7.426
212150.299	NaN	1.946	7.152	-5.087	1512.088	1499.634	1501.099	-0.733	-2.595	3.634	-0.383	5.818	-7.426
212151.276	NaN	1.957	7.152	-5.098	1509.158	1498.901	1500.366	-0.626	-2.901	3.466	-0.230	5.895	-7.426
212152.252	NaN	1.957	7.152	-5.109	1511.355	1500.366	1499.634	-0.702	-2.931	3.557	-0.230	5.742	-7.426
212153.229	NaN	1.957	7.141	-5.109	1509.890	1498.901	1498.901	-0.824	-2.840	3.649	-0.077	5.742	-7.349
212154.205	NaN	1.967	7.152	-5.098	1509.890	1499.634	1498.901	-0.931	-2.840	3.649	-0.230	5.818	-7.426
212155.182	NaN	1.957	7.141	-5.109	1510.623	1499.634	1501.099	-0.809	-2.947	3.664	-0.153	5.818	-7.426
212156.158	NaN	1.957	7.141	-5.130	1509.890	1498.901	1498.901	-0.748	-2.916	3.878	-0.230	5.742	-7.349
212157.135	NaN	1.957	7.141	-5.109	1510.623	1500.366	1498.901	-0.626	-2.885	3.603	-0.153	5.742	-7.426
212158.112	NaN	1.957	7.130	-5.098	1509.890	1499.634	1500.366	-0.641	-2.870	3.359	-0.230	5.895	-7.349
212159.088	NaN	1.957	7.141	-5.087	1509.890	1500.366	1498.901	-0.763	-2.901	3.374	-0.306	5.742	-7.579
212160.065	NaN	1.957	7.141	-5.087	1511.355	1500.366	1498.168	-0.885	-2.763	3.542	-0.230	5.742	-7.502
212161.041	NaN	1.946	7.141	-5.098	1510.623	1499.634	1500.366	-0.885	-2.931	3.466	-0.306	5.742	-7.656
212162.018	NaN	1.967	7.141	-5.076	1510.623	1501.099	1500.366	-0.779	-2.992	3.557	-0.230	5.665	-7.426
212162.994	NaN	1.967	7.152	-5.076	1510.623	1499.634	1501.099	-0.763	-2.885	3.542	-0.230	5.818	-7.426
212163.971	NaN	1.957	7.152	-5.087	1510.623	1499.634	1499.634	-0.595	-2.794	3.679	-0.077	5.665	-7.426
212164.948	NaN	1.957	7.141	-5.098	1509.158	1499.634	1499.634	-0.412	-2.794	3.710	-0.077	5.818	-7.426
212165.924	NaN	1.967	7.141	-5.087	1509.158	1500.366	1498.168	-0.550	-2.931	3.725	-0.230	5.895	-7.579
212166.901	NaN	1.967	7.152	-5.076	1511.355	1499.634	1501.099	-0.656	-3.038	3.435	-0.306	5.742	-7.426
212167.877	NaN	1.967	7.152	-5.087	1510.623	1500.366	1499.634	-0.885	-2.916	3.405	-0.230	5.818	-7.273
212168.854	NaN	1.967	7.141	-5.076	1509.158	1500.366	1498.901	-0.733	-2.718	3.557	-0.153	5.665	-7.426
212169.830	NaN	1.967	7.141	-5.098	1511.355	1500.366	1498.168	-0.550	-2.748	3.603	-0.230	5.818	-7.579
212170.807	NaN	1.967	7.141	-5.087	1511.355	1500.366	1500.366	-0.656	-2.718	3.527	-0.230	5.665	-7.273
212171.783	NaN	1.957	7.152	-5.087	1510.623	1499.634	1501.832	-0.687	-2.656	3.542	-0.153	5.665	-7.426
212172.760	NaN	1.957	7.152	-5.098	1509.890	1501.099	1500.366	-0.656	-2.855	3.527	-0.306	5.742	-7.426
212173.737	NaN	1.957	7.152	-5.098	1510.623	1501.099	1498.901	-0.458	-2.977	3.466	-0.306	5.818	-7.426
212174.713	NaN	1.957	7.141	-5.098	1511.355	1499.634	1500.366	-0.550	-2.870	3.557	-0.230	5.742	-7.502
212175.690	NaN	1.957	7.152	-5.087	1510.623	1499.634	1499.634	-0.534	-2.733	3.588	-0.230	5.665	-7.579
212176.666	NaN	1.957	7.152	-5.076	1509.890	1499.634	1500.366	-0.595	-2.733	3.481	-0.153	5.665	-7.349
212177.643	NaN	1.946	7.141	-5.087	1510.623	1500.366	1498.901	-0.748	-2.718	3.542	-0.230	5.818	-7.502
212178.619	NaN	1.935	7.141	-5.087	1509.890	1499.634	1501.832	-0.641	-2.794	3.542	-0.306	5.818	-7.579
212179.596	NaN	1.946	7.152	-5.087	1511.355	1500.366	1498.901	-0.733	-2.809	3.664	-0.153	5.895	-7.349
212180.573	NaN	1.935	7.141	-5.076	1509.890	1501.099	1500.366	-0.779	-2.992	3.710	-0.230	5.742	-7.502
212181.549	NaN	1.946	7.152	-5.076	1510.623	1499.634	1500.366	-0.748	-3.023	3.557	-0.230	5.665	-7.502
212182.526	NaN	1.935	7.141	-5.076	1509.890	1499.634	1501.099	-0.595	-2.809	3.466	-0.230	5.665	-7.349
212183.502	NaN	1.935	7.152	-5.087	1510.623	1499.634	1499.634	-0.550	-2.870	3.603	-0.230	5.818	-7.426
212184.479	NaN	1.946	7.163	-5.098	1511.355	1500.366	1499.634	-0.672	-2.901	3.634	-0.230	5.818	-7.349
212185.455	NaN	1.935	7.152	-5.109	1509.890	1499.634	1500.366	-0.656	-2.840	3.573	-0.230	5.742	-7.426
212186.432	NaN	1.935	7.152	-5.098	1509.158	1499.634	1499.634	-0.519	-2.870	3.634	-0.306	5.742	-7.426
212187.408	NaN	1.946	7.141	-5.109	1510.623	1500.366	1499.634	-0.702	-2.977	3.435	-0.153	5.665	-7.502
212188.385	NaN	1.946	7.130	-5.109	1510.623	1501.099	1500.366	-0.718	-2.855	3.237	-0.153	5.742	-7.502
212189.362	NaN	1.935	7.130	-5.109	1509.158	1500.366	1498.168	-0.672	-2.824	3.313	-0.153	5.742	-7.426
212190.338	NaN	1.946	7.141	-5.087	1510.623	1500.366	1499.634	-0.687	-2.931	3.359	-0.153	5.742	-7.579
212191.315	NaN	1.946	7.141	-5.098	1510.623	1500.366	1498.901	-0.687	-2.885	3.267	-0.230	5.742	-7.502
212192.291	NaN	1.946	7.141	-5.109	1509.158	1499.634	1499.634	-0.687	-2.824	3.344	-0.383	5.742	-7.349
212193.268	NaN	1.946	7.152	-5.098	1510.623	1501.832	1499.634	-0.580	-2.840	3.527	-0.383	5.818	-7.502
212194.244	NaN	1.946	7.141	-5.109	1509.890	1500.366	1498.168	-0.718	-2.885	3.542	-0.306	5.589	-7.502
212195.221	NaN	1.957	7.141	-5.087	1509.890	1500.366	1498.901	-0.763	-2.779	3.481	-0.230	5.818	-7.502
212196.198	NaN	1.946	7.141	-5.098	1509.158	1500.366	1498.901	-0.931	-2.824	3.634	-0.153	5.818	-7.502
212197.174	NaN	1.957	7.130	-5.098	1510.623	1500.366	1499.634	-0.977	-2.931	3.649	-0.230	5.742	-7.502
212198.151	NaN	1.957	7.130	-5.087	1509.890	1500.366	1499.634	-0.809	-2.794	3.695	-0.230	5.742	-7.426
212199.127	NaN	1.957	7.120	-5.109	1509.158	1500.366	1500.366	-0.565	-2.779	3.511	-0.230	5.895	-7.426
212200.104	NaN	1.957	7.130	-5.120	1510.623	1499.634	1501.099	-0.519	-2.718	3.405	-0.306	5.742	-7.426
212201.080	NaN	1.957	7.130	-5.120	1509.890	1500.366	1498.901	-0.748	-2.840	3.573	-0.230	5.818	-7.426
212202.057	NaN	1.957	7.120	-5.087	1510.623	1499.634	1501.099	-0.733	-2.809	3.649	-0.153	5.742	-7.426
212203.033	NaN	1.967	7.141	-5.087	1510.623	1499.634	1499.634	-0.519	-2.870	3.679	-0.230	5.742	-7.579
212204.010	NaN	1.967	7.141	-5.087	1509.890	1501.099	1498.901	-0.473	-2.840	3.527	-0.306	5.742	-7.426
212204.987	NaN	1.967	7.141	-5.098	1510.623	1500.366	1501.099	-0.412	-2.748	3.481	-0.230	5.665	-7.502
212205.963	NaN	1.957	7.141	-5.109	1510.623	1500.366	1499.634	-0.565	-2.901	3.496	-0.153	5.742	-7.349
212206.940	NaN	1.957	7.152	-5.087	1511.355	1500.366	1500.366	-0.763	-2.824	3.679	-0.153	5.742	-7.426
212207.916	NaN	1.957	7.141	-5.087	1510.623	1500.366	1500.366	-0.748	-2.855	3.832	-0.306	5.818	-7.426
212208.893	NaN	1.957	7.141	-5.087	1510.623	1499.634	1500.366	-0.687	-2.687	3.771	-0.306	5.818	-7.502
212209.869	NaN	1.935	7.141	-5.098	1509.890	1499.634	1500.366	-0.412	-2.809	3.527	-0.230	5.589	-7.426
212210.846	NaN	1.946	7.141	-5.098	1511.355	1500.366	1498.901	-0.412	-2.992	3.542	-0.153	5.665	-7.502
212211.823	NaN	1.946	7.141	-5.087	1510.623	1500.366	1500.366	-0.534	-2.992	3.710	-0.306	5.818	-7.349
212212.799	NaN	1.946	7.141	-5.076	1511.355	1500.366	1499.634	-0.656	-2.901	3.649	-0.306	5.742	-7.349
212213.776	NaN	1.935	7.141	-5.065	1511.355	1499.634	1499.634	-0.672	-2.947	3.588	-0.230	5.742	-7.502
212214.752	NaN	1.924	7.141	-5.076	1509.890	1499.634	1499.634	-0.504	-3.099	3.511	-0.153	5.818	-7.426
212215.729	NaN	1.924	7.152	-5.076	1509.890	1499.634	1500.366	-0.595	-3.115	3.481	-0.153	5.742	-7.502
212216.705	NaN	1.935	7.152	-5.076	1510.623	1499.634	1499.634	-0.763	-2.947	3.542	-0.230	5.665	-7.502
212217.682	NaN	1.946	7.141	-5.076	1511.355	1499.634	1501.099	-0.824	-2.733	3.481	-0.230	5.665	-7.502
212218.658	NaN	1.957	7.141	-5.076	1509.890	1499.634	1499.634	-0.809	-2.763	3.573	-0.153	5.818	-7.502
212219.635	NaN	1.946	7.141	-5.087	1510.623	1501.099	1500.366	-0.763	-2.779	3.374	-0.230	5.818	-7.349
212220.612	NaN	1.957	7.152	-5.087	1511.355	1500.366	1500.366	-0.519	-2.733	3.466	-0.383	5.742	-7.502
212221.588	NaN	1.946	7.152	-5.087	1510.623	1500.366	1500.366	-0.473	-2.855	3.588	-0.306	5.818	-7.579
212222.565	NaN	1.946	7.152	-5.087	1511.355	1500.366	1498.168	-0.519	-2.947	3.679	-0.153	5.665	-7.579
212223.541	NaN	1.946	7.141	-5.087	1509.890	1500.366	1500.366	-0.534	-2.885	3.710	-0.306	5.818	-7.579
212224.518	NaN	1.946	7.152	-5.076	1512.821	1500.366	1499.634	-0.504	-2.733	3.649	-0.153	5.895	-7.349
212225.494	NaN	1.946	7.141	-5.087	1510.623	1500.366	1500.366	-0.641	-2.718	3.618	-0.153	5.742	-7.273
212226.471	NaN	1.946	7.152	-5.087	1509.890	1499.634	1499.634	-0.718	-2.855	3.542	-0.077	5.742	-7.426
212227.448	NaN	1.946	7.141	-5.076	1510.623	1499.634	1501.099	-0.794	-2.855	3.618	-0.230	5.742	-7.502
212228.424	NaN	1.946	7.152	-5.087	1510.623	1500.366	1500.366	-0.840	-2.962	3.450	-0.230	5.665	-7.426
212229.401	NaN	1.946	7.152	-5.087	1510.623	1500.366	1501.099	-0.718	-3.023	3.481	-0.153	5.818	-7.426
212230.377	NaN	1.946	7.141	-5.076	1512.088	1500.366	1498.901	-0.641	-3.008	3.573	-0.230	5.895	-7.426
212231.354	NaN	1.935	7.141	-5.076	1509.890	1500.366	1500.366	-0.580	-2.840	3.359	-0.153	5.742	-7.426
212232.330	NaN	1.946	7.141	-5.076	1511.355	1499.634	1499.634	-0.779	-2.931	3.496	-0.306	5.665	-7.426
212233.307	NaN	1.957	7.152	-5.065	1510.623	1501.099	1500.366	-0.687	-2.931	3.649	-0.306	5.818	-7.349
212234.283	NaN	1.946	7.152	-5.065	1510.623	1500.366	1499.634	-0.473	-2.992	3.710	-0.153	5.742	-7.502
212235.260	NaN	1.935	7.152	-5.087	1510.623	1499.634	1500.366	-0.718	-2.931	3.573	-0.153	5.665	-7.502
212236.237	NaN	1.935	7.152	-5.087	1509.158	1500.366	1498.901	-0.595	-2.916	3.664	-0.230	5.818	-7.502
212237.213	NaN	1.935	7.152	-5.087	1511.355	1500.366	1501.099	-0.458	-2.931	3.725	-0.306	5.742	-7.349
212238.190	NaN	1.935	7.141	-5.087	1511.355	1498.901	1499.634	-0.519	-3.008	3.756	-0.230	5.895	-7.502
212239.166	NaN	1.946	7.141	-5.076	1508.425	1498.901	1500.366	-0.473	-2.855	3.771	-0.153	5.742	-7.502
212240.143	NaN	1.946	7.152	-5.076	1510.623	1499.634	1500.366	-0.672	-2.779	3.802	-0.153	5.742	-7.426
212241.119	NaN	1.967	7.152	-5.076	1510.623	1498.901	1500.366	-0.718	-2.733	3.710	-0.153	5.895	-7.502
212242.096	NaN	1.967	7.141	-5.076	1510.623	1500.366	1499.634	-0.611	-2.824	3.679	-0.230	5.818	-7.426
212243.073	NaN	1.967	7.130	-5.087	1509.890	1499.634	1499.634	-0.641	-2.840	3.573	-0.306	5.742	-7.349
212244.049	NaN	1.967	7.130	-5.087	1509.890	1498.901	1498.901	-0.702	-2.824	3.649	-0.230	5.742	-7.426
212245.026	NaN	1.978	7.130	-5.087	1509.890	1500.366	1498.901	-0.656	-2.779	3.740	-0.153	5.742	-7.426
212246.002	NaN	1.957	7.130	-5.098	1509.158	1498.901	1499.634	-0.702	-2.840	3.695	-0.230	5.742	-7.502
212246.979	NaN	1.967	7.141	-5.076	1510.623	1499.634	1500.366	-0.672	-2.748	3.618	-0.077	5.742	-7.426
212247.955	NaN	1.946	7.141	-5.087	1510.623	1500.366	1500.366	-0.626	-2.718	3.573	-0.153	5.742	-7.426
212248.932	NaN	1.957	7.152	-5.098	1509.158	1498.901	1498.901	-0.687	-2.885	3.496	-0.230	5.665	-7.426
212249.908	NaN	1.967	7.152	-5.087	1509.890	1500.366	1498.901	-0.641	-2.870	3.557	-0.153	5.742	-7.349
212250.885	NaN	1.957	7.152	-5.098	1512.821	1500.366	1500.366	-0.779	-2.931	3.634	-0.153	5.818	-7.579
212251.862	NaN	1.946	7.141	-5.087	1509.158	1499.634	1499.634	-0.687	-2.870	3.740	-0.230	5.818	-7.502
212252.838	NaN	1.946	7.141	-5.065	1509.158	1499.634	1498.901	-0.779	-2.916	3.664	-0.306	5.742	-7.502
212253.815	NaN	1.957	7.141	-5.065	1510.623	1500.366	1498.901	-0.702	-2.916	3.710	-0.153	5.818	-7.426
212254.791	NaN	1.946	7.130	-5.076	1510.623	1500.366	1501.099	-0.656	-2.855	3.740	-0.230	5.971	-7.426
212255.768	NaN	1.946	7.130	-5.076	1509.158	1500.366	1499.634	-0.748	-2.870	3.542	-0.230	5.665	-7.349
212256.744	NaN	1.957	7.130	-5.087	1509.890	1500.366	1498.901	-0.733	-2.855	3.435	-0.306	5.665	-7.349
212257.721	NaN	1.967	7.141	-5.087	1510.623	1501.099	1499.634	-0.656	-2.855	3.481	-0.230	5.818	-7.502
212258.698	NaN	1.957	7.130	-5.087	1509.890	1500.366	1499.634	-0.794	-2.809	3.466	-0.153	5.818	-7.426
212259.674	NaN	1.957	7.141	-5.109	1510.623	1499.634	1498.901	-0.718	-2.885	3.435	-0.230	5.818	-7.502
212260.651	NaN	1.967	7.141	-5.087	1509.890	1500.366	1499.634	-0.687	-2.733	3.450	-0.230	5.742	-7.502
212261.627	NaN	1.957	7.141	-5.109	1509.158	1500.366	1498.901	-0.809	-2.748	3.374	-0.153	5.818	-7.579
212262.604	NaN	1.957	7.152	-5.109	1510.623	1500.366	1501.099	-0.809	-2.641	3.405	-0.077	5.665	-7.502
212263.580	NaN	1.935	7.152	-5.109	1510.623	1500.366	1500.366	-0.626	-2.641	3.450	-0.230	5.818	-7.426
212264.557	NaN	1.946	7.152	-5.109	1509.890	1498.901	1500.366	-0.702	-2.779	3.634	-0.230	5.818	-7.502
212265.533	NaN	1.957	7.152	-5.098	1510.623	1501.099	1498.901	-0.687	-2.840	3.786	-0.077	5.895	-7.349
212266.510	NaN	1.957	7.141	-5.098	1510.623	1500.366	1500.366	-0.733	-3.023	3.527	-0.153	5.742	-7.349
212267.487	3736844562.185	1.946	7.141	-5.087	1509.890	1499.634	1499.634	-0.595	-3.069	3.282	-0.077	5.742	-7.426
212268.463	NaN	1.957	7.141	-5.087	1510.623	1501.099	1498.901	-0.519	-2.992	3.466	-0.153	5.742	-7.502
212269.440	NaN	1.946	7.141	-5.087	1509.890	1500.366	1497.436	-0.565	-2.885	3.603	-0.306	5.665	-7.349
212270.416	NaN	1.957	7.141	-5.076	1509.890	1499.634	1498.901	-0.733	-2.779	3.649	-0.153	5.818	-7.426
212271.393	NaN	1.957	7.163	-5.076	1509.158	1499.634	1498.901	-0.901	-2.763	3.511	-0.230	5.589	-7.426
212272.369	NaN	1.957	7.152	-5.087	1509.158	1499.634	1499.634	-0.809	-2.702	3.557	-0.230	5.818	-7.426
212273.346	NaN	1.967	7.152	-5.087	1510.623	1501.099	1500.366	-0.458	-2.794	3.847	-0.153	5.818	-7.426
212274.323	NaN	1.967	7.152	-5.087	1509.890	1499.634	1500.366	-0.473	-2.901	3.924	-0.306	5.742	-7.273
212275.299	NaN	1.967	7.152	-5.098	1509.158	1500.366	1499.634	-0.779	-2.885	3.664	-0.230	5.665	-7.502
212276.276	NaN	1.967	7.141	-5.109	1510.623	1500.366	1499.634	-0.809	-2.824	3.634	-0.230	5.742	-7.502
212277.252	NaN	1.957	7.130	-5.120	1510.623	1500.366	1498.901	-0.611	-2.916	3.527	-0.153	5.742	-7.426
212278.229	NaN	1.967	7.141	-5.098	1511.355	1500.366	1499.634	-0.611	-2.885	3.450	-0.230	5.742	-7.349
212279.205	NaN	1.957	7.141	-5.087	1510.623	1500.366	1498.901	-0.824	-2.992	3.557	0.000	5.818	-7.579
212280.182	NaN	1.967	7.152	-5.098	1510.623	1500.366	1498.901	-0.916	-2.870	3.664	-0.230	5.665	-7.579
212281.158	NaN	1.957	7.141	-5.098	1510.623	1500.366	1498.168	-0.656	-2.870	3.679	-0.230	5.818	-7.349
212282.135	NaN	1.967	7.141	-5.109	1510.623	1501.099	1499.634	-0.641	-2.885	3.649	-0.230	5.665	-7.502
212283.112	NaN	1.957	7.130	-5.109	1510.623	1499.634	1500.366	-0.748	-2.977	3.481	-0.230	5.665	-7.349
212284.088	NaN	1.957	7.141	-5.076	1509.890	1499.634	1498.901	-0.733	-2.931	3.603	-0.230	5.665	-7.349
212285.065	NaN	1.957	7.152	-5.076	1510.623	1500.366	1500.366	-0.733	-2.947	3.618	-0.153	5.818	-7.426
212286.041	NaN	1.946	7.163	-5.098	1510.623	1500.366	1498.901	-0.779	-3.008	3.527	-0.153	5.742	-7.426
212287.018	NaN	1.957	7.163	-5.098	1510.623	1500.366	1500.366	-0.794	-2.885	3.344	-0.077	5.818	-7.502
212287.994	NaN	1.957	7.163	-5.098	1511.355	1500.366	1499.634	-0.870	-2.580	3.466	-0.230	5.818	-7.656
212288.971	NaN	1.957	7.141	-5.076	1509.890	1501.099	1499.634	-0.611	-2.672	3.618	-0.153	5.818	-7.426
212289.948	NaN	1.946	7.130	-5.087	1511.355	1498.901	1500.366	-0.763	-2.947	3.710	-0.230	5.742	-7.579
212290.924	NaN	1.946	7.141	-5.098	1510.623	1499.634	1501.099	-0.809	-3.023	3.649	-0.230	5.665	-7.502
212291.901	NaN	1.946	7.152	-5.087	1510.623	1501.099	1499.634	-0.748	-2.947	3.756	-0.306	5.665	-7.349
212292.877	NaN	1.946	7.141	-5.087	1510.623	1500.366	1498.901	-0.641	-2.885	3.878	-0.077	5.818	-7.426
212293.854	NaN	1.957	7.152	-5.098	1509.890	1500.366	1500.366	-0.687	-2.916	3.756	-0.077	5.665	-7.273
212294.830	NaN	1.957	7.141	-5.109	1509.890	1500.366	1499.634	-0.687	-2.870	3.420	-0.230	5.818	-7.426
212295.807	NaN	1.967	7.141	-5.098	1511.355	1501.099	1500.366	-0.794	-2.763	3.252	-0.230	5.895	-7.426
212296.783	NaN	1.967	7.130	-5.098	1510.623	1499.634	1500.366	-0.656	-2.885	3.374	-0.306	5.589	-7.502
212297.760	NaN	1.957	7.130	-5.098	1511.355	1500.366	1499.634	-0.840	-2.977	3.496	-0.306	5.818	-7.426
212298.737	NaN	1.946	7.130	-5.098	1509.890	1498.901	1500.366	-0.672	-2.977	3.634	-0.077	5.742	-7.502
212299.713	NaN	1.935	7.141	-5.098	1511.355	1501.099	1500.366	-0.672	-2.947	3.588	-0.153	5.589	-7.349
212300.690	NaN	1.946	7.152	-5.076	1509.890	1500.366	1500.366	-0.656	-2.840	3.557	-0.230	5.589	-7.502
212301.666	NaN	1.946	7.152	-5.076	1510.623	1501.099	1500.366	-0.733	-2.855	3.435	-0.230	5.589	-7.579
212302.643	NaN	1.946	7.141	-5.076	1509.890	1500.366	1500.366	-0.656	-2.901	3.359	-0.077	5.665	-7.502
212303.619	NaN	1.935	7.152	-5.098	1511.355	1500.366	1498.168	-0.748	-2.840	3.359	-0.230	5.818	-7.426
212304.596	NaN	1.946	7.141	-5.087	1509.890	1501.099	1499.634	-0.702	-2.824	3.466	-0.230	5.895	-7.502
212305.573	NaN	1.946	7.141	-5.076	1512.088	1500.366	1498.901	-0.641	-2.718	3.802	-0.230	5.742	-7.426
212306.549	NaN	1.957	7.141	-5.076	1510.623	1499.634	1501.099	-0.626	-2.931	3.832	-0.306	5.742	-7.426
212307.526	NaN	1.957	7.141	-5.076	1511.355	1501.099	1500.366	-0.534	-3.038	3.527	-0.153	5.589	-7.426
212308.502	NaN	1.946	7.141	-5.098	1509.890	1498.901	1498.168	-0.626	-2.992	3.328	-0.230	5.895	-7.349
212309.479	NaN	1.957	7.141	-5.087	1511.355	1501.099	1498.901	-0.718	-2.947	3.282	-0.306	5.665	-7.426
212310.455	NaN	1.946	7.130	-5.087	1511.355	1500.366	1500.366	-0.809	-2.718	3.267	0.000	5.818	-7.426
212311.432	NaN	1.946	7.130	-5.109	1509.158	1501.099	1499.634	-0.947	-2.779	3.542	-0.230	5.742	-7.502
212312.408	NaN	1.957	7.141	-5.098	1510.623	1500.366	1498.901	-0.931	-2.840	3.679	-0.153	5.818	-7.502
212313.385	NaN	1.957	7.141	-5.109	1511.355	1499.634	1501.099	-0.809	-2.763	3.664	-0.230	5.742	-7.579
212314.362	NaN	1.957	7.141	-5.109	1511.355	1500.366	1498.901	-0.702	-2.901	3.573	-0.306	5.665	-7.426
212315.338	NaN	1.967	7.152	-5.087	1510.623	1501.099	1500.366	-0.504	-2.855	3.466	-0.153	5.895	-7.426
212316.315	NaN	1.957	7.152	-5.087	1509.158	1501.099	1498.168	-0.550	-2.870	3.405	-0.153	5.665	-7.349
212317.291	NaN	1.946	7.152	-5.109	1510.623	1500.366	1499.634	-0.687	-3.038	3.466	-0.153	5.665	-7.426
212318.268	NaN	1.946	7.152	-5.098	1510.623	1500.366	1500.366	-0.824	-2.947	3.344	-0.153	5.818	-7.579
212319.244	NaN	1.946	7.152	-5.098	1510.623	1500.366	1500.366	-0.840	-2.901	3.542	-0.230	5.818	-7.426
212320.221	NaN	1.935	7.141	-5.109	1511.355	1500.366	1500.366	-0.779	-2.885	3.603	-0.230	5.665	-7.426
212321.198	NaN	1.946	7.141	-5.098	1509.890	1501.099	1499.634	-0.641	-3.084	3.496	-0.230	5.665	-7.426
212322.174	NaN	1.935	7.141	-5.109	1509.890	1499.634	1500.366	-0.824	-3.099	3.557	-0.230	5.818	-7.426
212323.151	NaN	1.946	7.152	-5.098	1509.890	1499.634	1499.634	-0.595	-3.130	3.634	-0.306	5.665	-7.502
212324.127	NaN	1.957	7.152	-5.087	1511.355	1500.366	1500.366	-0.626	-3.038	3.634	-0.230	5.742	-7.502
212325.104	NaN	1.957	7.163	-5.076	1510.623	1500.366	1499.634	-0.809	-2.962	3.756	-0.306	5.742	-7.426
212326.080	NaN	1.946	7.130	-5.087	1509.158	1500.366	1500.366	-0.855	-2.962	3.695	-0.077	5.895	-7.426
212327.057	NaN	1.946	7.152	-5.098	1512.088	1500.366	1501.099	-0.885	-2.901	3.588	-0.230	5.818	-7.349
212328.033	NaN	1.957	7.152	-5.098	1510.623	1500.366	1500.366	-1.023	-2.901	3.649	-0.383	5.742	-7.349
212329.010	NaN	1.957	7.163	-5.098	1510.623	1500.366	1500.366	-1.008	-2.962	3.588	-0.077	5.742	-7.502
212329.987	NaN	1.946	7.152	-5.109	1510.623	1500.366	1500.366	-0.687	-2.840	3.511	-0.077	5.742	-7.579
212330.963	NaN	1.946	7.152	-5.109	1510.623	1500.366	1500.366	-0.534	-2.748	3.618	-0.383	5.742	-7.502
212331.940	NaN	1.946	7.152	-5.098	1510.623	1501.099	1501.832	-0.702	-2.870	3.634	-0.230	5.818	-7.579
212332.916	NaN	1.957	7.163	-5.087	1510.623	1500.366	1499.634	-0.840	-2.947	3.466	-0.306	5.818	-7.502
212333.893	NaN	1.957	7.152	-5.076	1509.158	1500.366	1498.168	-0.916	-2.885	3.435	-0.230	5.742	-7.426
212334.869	NaN	1.946	7.152	-5.087	1509.890	1500.366	1500.366	-0.916	-2.794	3.695	-0.153	5.665	-7.426
212335.846	NaN	1.957	7.163	-5.098	1510.623	1501.832	1499.634	-0.931	-2.901	3.695	-0.230	5.818	-7.349
212336.823	NaN	1.946	7.152	-5.098	1510.623	1499.634	1501.099	-0.733	-3.038	3.664	-0.230	5.665	-7.579
212337.799	NaN	1.957	7.141	-5.098	1510.623	1499.634	1500.366	-0.626	-3.008	3.618	-0.306	5.742	-7.502
212338.776	NaN	1.957	7.141	-5.098	1512.088	1499.634	1499.634	-0.779	-2.763	3.740	-0.230	5.742	-7.426
212339.752	NaN	1.946	7.120	-5.098	1510.623	1501.099	1498.901	-0.733	-2.855	3.786	-0.153	5.742	-7.349
212340.729	NaN	1.957	7.120	-5.087	1511.355	1500.366	1499.634	-0.443	-2.870	3.649	-0.153	5.818	-7.502
212341.705	NaN	1.957	7.120	-5.087	1510.623	1500.366	1498.901	-0.321	-2.809	3.542	-0.230	5.665	-7.426
212342.682	NaN	1.946	7.120	-5.087	1509.890	1500.366	1498.168	-0.534	-2.931	3.542	-0.077	5.742	-7.426
212343.658	NaN	1.946	7.120	-5.087	1509.158	1499.634	1501.832	-0.931	-2.931	3.664	-0.230	5.742	-7.502
212344.635	NaN	1.957	7.141	-5.087	1511.355	1501.099	1499.634	-0.840	-2.794	3.649	-0.230	5.665	-7.426
212345.612	NaN	1.957	7.130	-5.076	1510.623	1501.099	1499.634	-0.885	-2.702	3.603	-0.153	5.665	-7.273
212346.588	NaN	1.967	7.130	-5.076	1511.355	1500.366	1498.901	-0.947	-2.931	3.634	-0.306	5.818	-7.502
212347.565	NaN	1.967	7.141	-5.065	1511.355	1499.634	1500.366	-0.870	-2.916	3.527	-0.230	5.742	-7.349
212348.541	NaN	1.957	7.141	-5.065	1510.623	1499.634	1500.366	-0.962	-2.779	3.603	-0.306	5.665	-7.502
212349.518	NaN	1.967	7.152	-5.054	1509.890	1501.099	1499.634	-0.885	-2.763	3.710	-0.230	5.818	-7.426
212350.494	NaN	1.967	7.152	-5.065	1511.355	1501.099	1499.634	-0.794	-2.733	3.863	-0.306	5.818	-7.426
212351.471	NaN	1.967	7.141	-5.065	1510.623	1500.366	1498.168	-0.763	-2.855	3.618	-0.077	5.818	-7.502
212352.448	NaN	1.967	7.141	-5.076	1510.623	1500.366	1498.901	-0.809	-3.008	3.511	-0.230	5.742	-7.502
212353.424	NaN	1.957	7.141	-5.087	1510.623	1501.099	1498.168	-0.779	-3.053	3.466	-0.306	5.665	-7.426
212354.401	NaN	1.957	7.152	-5.087	1510.623	1500.366	1498.901	-0.855	-2.947	3.542	-0.306	5.665	-7.502
212355.377	NaN	1.967	7.152	-5.076	1509.158	1501.099	1498.901	-0.809	-2.855	3.740	-0.230	5.971	-7.426
212356.354	NaN	1.957	7.152	-5.076	1510.623	1499.634	1501.099	-0.809	-2.748	3.863	-0.230	5.742	-7.349
212357.330	NaN	1.957	7.141	-5.087	1510.623	1499.634	1500.366	-0.763	-2.641	3.771	-0.153	5.742	-7.426
212358.307	NaN	1.957	7.152	-5.087	1511.355	1500.366	1501.099	-0.733	-2.840	3.573	-0.306	5.742	-7.426
212359.283	NaN	1.957	7.141	-5.087	1510.623	1499.634	1501.832	-0.763	-3.099	3.511	-0.230	5.742	-7.502
212360.260	NaN	1.957	7.141	-5.087	1509.890	1500.366	1500.366	-0.824	-2.977	3.420	-0.230	5.742	-7.579
212361.237	NaN	1.946	7.141	-5.087	1509.890	1500.366	1498.901	-0.702	-2.931	3.603	-0.306	5.665	-7.502
212362.213	NaN	1.946	7.141	-5.098	1511.355	1500.366	1497.436	-0.840	-3.038	3.664	-0.153	5.818	-7.579
212363.190	NaN	1.967	7.141	-5.087	1510.623	1500.366	1500.366	-0.870	-3.038	3.450	-0.153	5.589	-7.349
212364.166	NaN	1.967	7.141	-5.065	1510.623	1500.366	1498.901	-0.916	-2.763	3.344	-0.306	5.818	-7.502
212365.143	NaN	1.967	7.130	-5.065	1509.890	1500.366	1498.901	-0.901	-2.672	3.496	-0.230	5.742	-7.349
212366.119	NaN	1.957	7.130	-5.076	1510.623	1500.366	1498.901	-0.794	-2.824	3.603	-0.383	5.742	-7.426
212367.096	NaN	1.957	7.130	-5.076	1510.623	1501.099	1499.634	-0.656	-2.901	3.664	-0.306	5.895	-7.502
212368.073	NaN	1.957	7.130	-5.087	1510.623	1500.366	1499.634	-0.779	-2.870	3.618	-0.230	5.742	-7.502
212369.049	NaN	1.967	7.141	-5.076	1509.890	1500.366	1498.901	-1.008	-2.901	3.496	-0.306	5.742	-7.502
212370.026	NaN	1.957	7.130	-5.087	1509.158	1501.099	1500.366	-0.870	-2.794	3.603	-0.230	5.742	-7.502
212371.002	NaN	1.946	7.130	-5.087	1509.890	1499.634	1500.366	-0.748	-2.687	3.527	-0.230	5.742	-7.502
212371.979	NaN	1.957	7.130	-5.087	1510.623	1499.634	1499.634	-0.565	-2.794	3.511	-0.306	5.742	-7.579
212372.955	NaN	1.957	7.130	-5.098	1510.623	1500.366	1498.901	-0.672	-2.855	3.603	-0.153	5.818	-7.426
212373.932	NaN	1.957	7.120	-5.109	1509.158	1499.634	1500.366	-0.962	-2.748	3.603	-0.153	5.818	-7.426
212374.908	NaN	1.946	7.130	-5.109	1509.890	1500.366	1498.901	-0.901	-2.794	3.588	-0.306	5.665	-7.349
212375.885	NaN	1.946	7.130	-5.130	1509.158	1499.634	1500.366	-0.763	-2.901	3.389	-0.153	5.818	-7.426
212376.862	NaN	1.957	7.130	-5.120	1510.623	1501.099	1499.634	-0.641	-3.038	3.389	-0.153	5.818	-7.502
212377.838	NaN	1.946	7.130	-5.130	1510.623	1500.366	1499.634	-0.748	-2.931	3.634	-0.230	5.742	-7.579
212378.815	NaN	1.935	7.130	-5.130	1511.355	1498.901	1500.366	-0.779	-2.855	3.618	-0.306	5.742	-7.502
212379.791	NaN	1.946	7.141	-5.130	1509.158	1499.634	1499.634	-0.733	-2.824	3.634	-0.230	5.512	-7.426
212380.768	NaN	1.957	7.141	-5.120	1509.890	1499.634	1500.366	-0.794	-2.885	3.695	-0.306	5.665	-7.349
212381.744	NaN	1.967	7.152	-5.109	1509.890	1499.634	1499.634	-0.901	-2.992	3.695	-0.306	5.665	-7.502
212382.721	NaN	1.967	7.163	-5.109	1510.623	1499.634	1500.366	-0.733	-2.763	3.679	-0.077	5.742	-7.502
212383.698	NaN	1.967	7.163	-5.109	1508.425	1500.366	1499.634	-0.779	-2.809	3.634	-0.230	5.589	-7.502
212384.674	NaN	1.957	7.174	-5.098	1509.158	1500.366	1498.901	-0.931	-2.855	3.527	-0.230	5.742	-7.426
212385.651	NaN	1.957	7.163	-5.098	1510.623	1499.634	1499.634	-1.130	-2.992	3.573	-0.153	5.742	-7.426
212386.627	NaN	1.957	7.141	-5.098	1509.890	1499.634	1499.634	-0.931	-2.962	3.634	-0.230	5.665	-7.656
212387.604	NaN	1.957	7.152	-5.087	1509.890	1499.634	1499.634	-0.794	-3.084	3.771	-0.230	5.589	-7.502
212388.580	NaN	1.957	7.141	-5.098	1509.890	1499.634	1500.366	-0.931	-2.992	3.573	-0.153	5.742	-7.349
212389.557	NaN	1.946	7.141	-5.087	1509.890	1498.901	1498.168	-0.931	-2.748	3.557	-0.077	5.665	-7.502
212390.533	NaN	1.957	7.152	-5.087	1510.623	1499.634	1501.099	-0.855	-2.595	3.649	-0.306	5.742	-7.579
212391.510	NaN	1.957	7.141	-5.109	1510.623	1501.099	1500.366	-0.580	-2.748	3.710	-0.153	5.818	-7.502
212392.487	NaN	1.946	7.141	-5.120	1509.158	1498.901	1499.634	-0.702	-2.931	3.634	-0.383	5.742	-7.426
212393.463	NaN	1.957	7.152	-5.109	1510.623	1500.366	1500.366	-0.947	-2.916	3.756	-0.230	5.742	-7.349
212394.440	NaN	1.946	7.141	-5.098	1509.158	1499.634	1499.634	-0.901	-2.931	3.710	-0.153	5.742	-7.502
212395.416	NaN	1.967	7.152	-5.076	1509.890	1500.366	1500.366	-0.794	-2.916	3.649	-0.230	5.895	-7.349
212396.393	NaN	1.957	7.152	-5.087	1510.623	1500.366	1498.901	-0.733	-2.763	3.588	-0.153	5.665	-7.426
212397.369	NaN	1.957	7.141	-5.087	1508.425	1499.634	1499.634	-0.656	-2.840	3.527	-0.230	5.665	-7.349
212398.346	NaN	1.957	7.141	-5.076	1512.088	1501.099	1500.366	-0.733	-2.916	3.634	-0.306	5.818	-7.426
212399.323	NaN	1.946	7.130	-5.087	1507.692	1499.634	1500.366	-1.053	-2.962	3.679	-0.153	5.742	-7.502
212400.299	NaN	1.946	7.141	-5.076	1510.623	1499.634	1499.634	-1.053	-3.099	3.740	-0.230	5.742	-7.502
212401.276	NaN	1.946	7.130	-5.098	1512.821	1499.634	1501.832	-0.779	-2.840	3.756	-0.230	5.742	-7.579
212402.252	NaN	1.935	7.130	-5.098	1509.890	1499.634	1499.634	-0.687	-2.901	3.649	-0.306	5.818	-7.349
212403.229	NaN	1.946	7.130	-5.087	1511.355	1501.099	1501.099	-0.977	-2.992	3.588	-0.230	5.665	-7.426
212404.205	NaN	1.946	7.130	-5.109	1509.890	1499.634	1500.366	-0.855	-2.870	3.618	-0.230	5.818	-7.349
212405.182	NaN	1.957	7.130	-5.098	1509.158	1499.634	1498.901	-0.779	-2.885	3.573	-0.230	5.818	-7.502
212406.158	NaN	1.935	7.120	-5.098	1509.158	1499.634	1501.099	-0.641	-2.885	3.389	-0.230	5.742	-7.426
212407.135	NaN	1.935	7.141	-5.098	1511.355	1501.832	1499.634	-0.611	-2.947	3.496	-0.230	5.818	-7.502
212408.112	NaN	1.957	7.141	-5.098	1510.623	1500.366	1498.901	-0.947	-3.176	3.634	-0.230	5.665	-7.426
212409.088	NaN	1.946	7.141	-5.087	1509.890	1501.099	1499.634	-0.947	-3.160	3.710	-0.383	5.742	-7.426
212410.065	NaN	1.957	7.141	-5.098	1511.355	1499.634	1499.634	-0.885	-2.901	3.740	-0.153	5.742	-7.502
212411.041	NaN	1.957	7.130	-5.087	1509.158	1498.901	1498.901	-0.718	-2.748	3.557	-0.230	5.818	-7.426
212412.018	NaN	1.967	7.141	-5.065	1509.890	1500.366	1500.366	-0.626	-2.794	3.679	-0.230	5.818	-7.426
212412.994	NaN	1.946	7.120	-5.087	1510.623	1500.366	1499.634	-0.916	-2.870	3.618	-0.230	5.742	-7.426
212413.971	NaN	1.957	7.130	-5.076	1509.890	1499.634	1501.832	-0.901	-2.763	3.740	-0.230	5.742	-7.426
212414.948	NaN	1.957	7.120	-5.087	1511.355	1499.634	1499.634	-0.947	-2.779	3.588	-0.230	5.818	-7.426
212415.924	NaN	1.946	7.130	-5.076	1509.158	1498.901	1498.901	-0.962	-2.992	3.542	-0.230	5.895	-7.502
212416.901	NaN	1.957	7.141	-5.065	1510.623	1500.366	1498.901	-0.977	-3.145	3.511	-0.153	5.665	-7.502
212417.877	NaN	1.946	7.130	-5.087	1510.623	1500.366	1500.366	-1.053	-3.038	3.496	-0.153	5.665	-7.502
212418.854	NaN	1.946	7.141	-5.087	1509.890	1499.634	1500.366	-0.947	-3.023	3.557	-0.153	5.818	-7.426
212419.830	NaN	1.957	7.141	-5.087	1510.623	1500.366	1499.634	-0.947	-2.901	3.603	-0.230	5.665	-7.426
212420.807	NaN	1.946	7.141	-5.087	1509.158	1499.634	1499.634	-1.038	-2.809	3.740	-0.306	5.742	-7.426
212421.783	NaN	1.957	7.141	-5.098	1509.158	1499.634	1500.366	-0.855	-2.779	3.802	-0.230	5.665	-7.426
212422.760	NaN	1.957	7.152	-5.087	1510.623	1500.366	1500.366	-0.885	-2.947	3.634	-0.306	5.742	-7.426
212423.737	NaN	1.957	7.141	-5.087	1509.158	1499.634	1499.634	-0.794	-3.084	3.557	-0.306	5.742	-7.502
212424.713	NaN	1.957	7.141	-5.087	1511.355	1499.634	1501.099	-0.580	-2.901	3.618	-0.306	5.665	-7.579
212425.690	NaN	1.946	7.152	-5.087	1509.158	1500.366	1499.634	-0.763	-2.733	3.496	-0.153	5.742	-7.502
212426.666	NaN	1.957	7.152	-5.087	1511.355	1499.634	1501.099	-0.656	-2.809	3.450	-0.153	5.742	-7.579
212427.643	NaN	1.946	7.152	-5.087	1510.623	1499.634	1501.099	-0.519	-2.916	3.557	-0.230	5.665	-7.579
212428.619	NaN	1.935	7.152	-5.098	1509.890	1500.366	1500.366	-0.626	-2.977	3.496	-0.153	5.665	-7.502
212429.596	NaN	1.946	7.152	-5.109	1510.623	1501.099	1499.634	-0.901	-3.008	3.298	-0.230	5.818	-7.426
212430.573	NaN	1.946	7.152	-5.098	1510.623	1501.099	1498.901	-1.053	-2.870	3.374	-0.230	5.895	-7.426
212431.549	NaN	1.946	7.141	-5.098	1509.890	1499.634	1499.634	-1.023	-2.718	3.496	-0.230	5.818	-7.349
212432.526	NaN	1.946	7.141	-5.076	1509.890	1499.634	1499.634	-0.809	-2.672	3.603	-0.306	5.665	-7.426
212433.502	NaN	1.946	7.141	-5.087	1510.623	1501.099	1499.634	-0.947	-2.916	3.618	-0.230	5.818	-7.502
212434.479	NaN	1.946	7.152	-5.087	1511.355	1500.366	1500.366	-0.870	-3.053	3.664	-0.230	5.818	-7.502
212435.455	NaN	1.946	7.152	-5.109	1510.623	1499.634	1498.901	-0.947	-3.160	3.695	-0.153	5.589	-7.579
212436.432	NaN	1.957	7.152	-5.098	1509.890	1498.901	1499.634	-1.084	-3.023	3.725	-0.230	5.895	-7.502
212437.408	NaN	1.946	7.141	-5.109	1511.355	1500.366	1499.634	-1.008	-3.053	3.740	-0.230	5.895	-7.426
212438.385	NaN	1.946	7.141	-5.109	1512.088	1500.366	1499.634	-0.931	-2.794	3.618	-0.153	5.665	-7.426
212439.362	NaN	1.957	7.141	-5.109	1509.890	1500.366	1500.366	-0.947	-2.687	3.496	-0.230	5.742	-7.349
212440.338	NaN	1.946	7.152	-5.109	1510.623	1501.099	1499.634	-1.008	-2.718	3.374	-0.230	5.742	-7.426
212441.315	NaN	1.957	7.141	-5.098	1511.355	1499.634	1501.832	-0.870	-2.977	3.450	-0.230	5.665	-7.426
212442.291	NaN	1.946	7.141	-5.120	1510.623	1500.366	1498.901	-0.855	-2.977	3.634	-0.230	5.665	-7.502
212443.268	NaN	1.946	7.141	-5.098	1510.623	1500.366	1500.366	-0.947	-2.733	3.802	-0.306	5.818	-7.426
212444.244	NaN	1.946	7.141	-5.109	1510.623	1501.099	1498.901	-0.687	-2.901	3.649	-0.153	5.742	-7.273
212445.221	NaN	1.946	7.130	-5.109	1510.623	1500.366	1500.366	-0.580	-3.038	3.511	-0.230	5.665	-7.426
212446.198	NaN	1.946	7.141	-5.098	1510.623	1498.901	1499.634	-0.840	-2.916	3.389	-0.230	5.742	-7.579
212447.174	NaN	1.957	7.152	-5.098	1510.623	1501.099	1500.366	-0.870	-2.855	3.511	-0.306	5.742	-7.502
212448.151	NaN	1.967	7.152	-5.087	1509.890	1501.099	1499.634	-0.809	-3.084	3.496	-0.230	5.742	-7.502
212449.127	NaN	1.946	7.141	-5.087	1509.158	1500.366	1498.901	-0.748	-3.099	3.481	-0.230	5.665	-7.349
212450.104	NaN	1.946	7.152	-5.087	1509.890	1500.366	1499.634	-0.794	-3.069	3.573	-0.230	5.742	-7.426
212451.080	NaN	1.946	7.141	-5.098	1510.623	1498.901	1500.366	-0.870	-2.947	3.679	-0.306	5.818	-7.426
212452.057	NaN	1.946	7.141	-5.076	1509.890	1499.634	1501.099	-0.885	-2.916	3.679	-0.230	5.589	-7.426
212453.033	NaN	1.957	7.141	-5.087	1511.355	1500.366	1500.366	-0.870	-2.977	3.649	-0.230	5.742	-7.502
212454.010	NaN	1.946	7.141	-5.087	1511.355	1500.366	1499.634	-0.947	-2.977	3.557	-0.230	5.742	-7.502
212454.987	NaN	1.946	7.141	-5.087	1510.623	1500.366	1500.366	-1.023	-2.977	3.618	-0.230	5.742	-7.426
212455.963	NaN	1.935	7.152	-5.076	1510.623	1500.366	1499.634	-0.931	-3.069	3.557	-0.306	5.589	-7.426
212456.940	NaN	1.946	7.141	-5.076	1510.623	1499.634	1499.634	-0.733	-3.084	3.542	-0.306	5.589	-7.502
212457.916	NaN	1.957	7.130	-5.098	1509.890	1500.366	1498.901	-0.733	-3.069	3.695	-0.230	5.665	-7.502
212458.893	NaN	1.957	7.130	-5.098	1511.355	1500.366	1499.634	-0.519	-3.038	3.466	-0.153	5.742	-7.273
212459.869	3736844562.354	1.946	7.130	-5.098	1510.623	1499.634	1500.366	-0.595	-2.992	3.466	-0.306	5.665	-7.426
212460.846	NaN	1.946	7.141	-5.098	1511.355	1500.366	1499.634	-0.885	-3.038	3.603	-0.230	5.742	-7.502
212461.823	NaN	1.935	7.141	-5.098	1507.692	1500.366	1499.634	-1.176	-2.916	3.573	-0.153	5.665	-7.502
212462.799	NaN	1.924	7.141	-5.087	1510.623	1499.634	1500.366	-1.206	-2.855	3.679	-0.153	5.665	-7.502
212463.776	NaN	1.924	7.141	-5.087	1510.623	1500.366	1500.366	-0.855	-3.145	3.679	-0.306	5.818	-7.426
212464.752	NaN	1.913	7.141	-5.087	1510.623	1499.634	1499.634	-0.702	-2.977	3.649	-0.230	5.665	-7.579
212465.729	NaN	1.924	7.141	-5.087	1510.623	1500.366	1498.168	-0.733	-2.794	3.695	-0.306	5.742	-7.579
212466.705	NaN	1.946	7.141	-5.076	1509.890	1500.366	1500.366	-0.870	-2.794	3.679	-0.153	5.818	-7.502
212467.682	NaN	1.946	7.152	-5.076	1509.890	1499.634	1501.099	-1.176	-2.824	3.618	-0.306	5.742	-7.502
212468.658	NaN	1.946	7.141	-5.087	1509.890	1501.099	1500.366	-0.779	-2.870	3.573	-0.153	5.742	-7.426
212469.635	NaN	1.946	7.141	-5.076	1509.890	1499.634	1498.901	-0.870	-2.931	3.695	-0.230	5.818	-7.502
212470.612	NaN	1.957	7.152	-5.054	1508.425	1498.901	1500.366	-0.977	-2.977	3.649	-0.230	5.742	-7.426
212471.588	NaN	1.957	7.163	-5.043	1511.355	1499.634	1500.366	-0.947	-3.038	3.511	-0.306	5.665	-7.502
212472.565	NaN	1.946	7.163	-5.054	1510.623	1500.366	1501.099	-1.038	-2.779	3.511	-0.306	5.818	-7.502
212473.541	NaN	1.946	7.152	-5.065	1510.623	1500.366	1498.901	-1.115	-2.733	3.481	-0.230	5.818	-7.502
212474.518	NaN	1.957	7.163	-5.065	1510.623	1500.366	1498.901	-0.977	-2.916	3.679	-0.153	5.742	-7.349
212475.494	NaN	1.957	7.152	-5.065	1510.623	1499.634	1501.099	-0.931	-3.038	3.771	-0.230	5.742	-7.502
212476.471	NaN	1.957	7.152	-5.054	1510.623	1500.366	1498.901	-0.931	-2.977	3.740	-0.153	5.665	-7.579
212477.448	NaN	1.957	7.141	-5.065	1510.623	1499.634	1500.366	-0.840	-2.992	3.588	-0.230	5.818	-7.426
212478.424	NaN	1.957	7.152	-5.076	1509.890	1501.099	1498.901	-0.733	-2.870	3.481	-0.230	5.742	-7.579
212479.401	NaN	1.946	7.141	-5.076	1509.890	1499.634	1499.634	-0.931	-2.840	3.695	-0.230	5.665	-7.502
212480.377	NaN	1.957	7.152	-5.065	1509.158	1499.634	1500.366	-1.160	-2.855	3.695	-0.230	5.742	-7.502
212481.354	NaN	1.957	7.152	-5.076	1511.355	1500.366	1499.634	-0.931	-2.840	3.588	-0.306	5.895	-7.426
212482.330	NaN	1.946	7.130	-5.076	1510.623	1498.901	1500.366	-0.855	-2.855	3.679	-0.077	5.742	-6.278
212483.307	NaN	1.957	7.141	-5.076	1510.623	1501.099	1499.634	-0.901	-2.901	3.634	-0.230	5.665	-7.579
212484.283	NaN	1.935	7.130	-5.098	1509.890	1500.366	1498.901	-0.916	-2.931	3.573	-0.153	5.818	-7.502
212485.260	NaN	1.935	7.141	-5.098	1510.623	1499.634	1498.901	-0.855	-2.870	3.740	-0.230	5.665	-7.426
212486.237	NaN	1.946	7.141	-5.109	1510.623	1499.634	1500.366	-0.687	-2.870	3.634	-0.077	5.742	-7.349
212487.213	NaN	1.935	7.152	-5.109	1509.890	1499.634	1501.099	-0.794	-2.901	3.496	-0.153	5.742	-7.656
212488.190	NaN	1.957	7.152	-5.087	1510.623	1500.366	1498.901	-0.885	-2.977	3.679	-0.306	5.742	-7.426
212489.166	NaN	1.946	7.141	-5.109	1509.890	1499.634	1500.366	-0.977	-2.840	3.618	-0.153	5.742	-7.502
212490.143	NaN	1.946	7.141	-5.087	1510.623	1500.366	1500.366	-0.916	-2.733	3.557	-0.306	5.895	-7.273
212491.119	NaN	1.935	7.141	-5.098	1509.890	1500.366	1499.634	-0.901	-2.718	3.634	-0.230	5.742	-7.349
212492.096	NaN	1.946	7.130	-5.098	1511.355	1500.366	1500.366	-0.702	-2.947	3.679	-0.306	5.818	-7.502
212493.073	NaN	1.946	7.141	-5.087	1510.623	1500.366	1500.366	-0.840	-3.008	3.557	-0.306	5.818	-7.502
212494.049	NaN	1.935	7.152	-5.109	1510.623	1500.366	1500.366	-1.069	-2.992	3.527	-0.230	5.818	-7.502
212495.026	NaN	1.935	7.141	-5.098	1511.355	1498.901	1499.634	-1.191	-2.763	3.634	-0.230	5.665	-7.349
212496.002	NaN	1.946	7.141	-5.098	1509.158	1500.366	1498.168	-1.084	-2.718	3.588	-0.230	5.742	-7.426
212496.979	NaN	1.946	7.141	-5.087	1511.355	1501.832	1500.366	-0.855	-2.931	3.603	-0.153	5.742	-7.502
212497.955	NaN	1.946	7.141	-5.087	1509.890	1500.366	1500.366	-0.748	-3.145	3.802	-0.077	5.742	-7.502
212498.932	NaN	1.946	7.141	-5.098	1510.623	1500.366	1498.901	-0.855	-3.038	4.000	-0.230	5.818	-7.502
212499.908	NaN	1.946	7.130	-5.087	1509.890	1499.634	1500.366	-0.962	-2.885	3.756	-0.306	5.665	-7.502
212500.885	NaN	1.957	7.130	-5.098	1511.355	1501.099	1499.634	-0.809	-2.779	3.466	-0.230	5.589	-7.579
212501.862	NaN	1.946	7.120	-5.098	1508.425	1499.634	1500.366	-0.702	-2.824	3.450	-0.153	5.742	-7.349
212502.838	NaN	1.957	7.120	-5.087	1509.890	1498.901	1499.634	-1.053	-2.870	3.588	-0.306	5.818	-7.502
212503.815	NaN	1.946	7.130	-5.065	1509.890	1499.634	1500.366	-0.870	-2.809	3.466	-0.153	5.665	-7.426
212504.791	NaN	1.946	7.130	-5.076	1510.623	1499.634	1501.099	-0.824	-2.870	3.450	-0.077	5.818	-7.273
212505.768	NaN	1.957	7.141	-5.054	1510.623	1501.099	1500.366	-0.855	-3.053	3.450	-0.306	5.895	-7.426
212506.744	NaN	1.957	7.141	-5.065	1511.355	1499.634	1501.099	-0.901	-2.992	3.756	-0.306	5.742	-7.502
212507.721	NaN	1.957	7.141	-5.076	1510.623	1500.366	1499.634	-0.916	-2.947	3.740	-0.153	5.818	-7.502
212508.698	NaN	1.967	7.141	-5.087	1511.355	1500.366	1498.901	-0.763	-3.069	3.695	-0.306	5.742	-7.502
212509.674	NaN	1.967	7.141	-5.109	1511.355	1500.366	1500.366	-0.885	-3.145	3.679	-0.153	5.818	-7.426
212510.651	NaN	1.967	7.152	-5.098	1511.355	1500.366	1500.366	-0.840	-3.160	3.603	-0.230	5.742	-7.426
212511.627	NaN	1.967	7.141	-5.098	1509.890	1500.366	1500.366	-0.855	-2.885	3.603	-0.230	5.589	-7.426
212512.604	NaN	1.967	7.152	-5.109	1511.355	1500.366	1500.366	-0.916	-2.840	3.664	-0.230	5.818	-7.579
212513.580	NaN	1.967	7.141	-5.120	1509.890	1500.366	1498.901	-0.779	-2.901	3.511	-0.230	5.818	-7.502
212514.557	NaN	1.978	7.141	-5.109	1510.623	1501.832	1499.634	-0.733	-2.885	3.634	-0.230	5.665	-7.426
212515.533	NaN	1.967	7.141	-5.109	1511.355	1501.099	1500.366	-0.962	-2.840	3.649	-0.230	5.665	-7.579
212516.510	NaN	1.957	7.152	-5.098	1510.623	1501.099	1499.634	-0.870	-2.809	3.588	-0.230	5.742	-7.349
212517.487	NaN	1.957	7.152	-5.087	1509.890	1500.366	1500.366	-0.962	-2.870	3.557	-0.306	5.818	-7.656
212518.463	NaN	1.946	7.152	-5.109	1511.355	1501.099	1500.366	-1.038	-3.008	3.634	-0.153	5.895	-7.579
212519.440	NaN	1.957	7.152	-5.098	1509.890	1499.634	1501.832	-0.916	-3.160	3.588	-0.153	5.818	-7.502
212520.416	NaN	1.957	7.152	-5.109	1510.623	1501.099	1499.634	-0.626	-3.023	3.557	-0.153	5.742	-7.426
212521.393	NaN	1.946	7.141	-5.098	1510.623	1501.099	1500.366	-0.626	-3.023	3.405	-0.153	5.895	-7.426
212522.369	NaN	1.946	7.141	-5.098	1509.890	1499.634	1499.634	-0.718	-3.145	3.389	-0.230	5.742	-7.502
212523.346	NaN	1.957	7.141	-5.098	1510.623	1499.634	1501.099	-0.947	-3.038	3.634	-0.230	5.589	-7.502
212524.323	NaN	1.957	7.152	-5.087	1510.623	1501.099	1500.366	-1.053	-2.992	3.802	-0.230	5.742	-7.502
212525.299	NaN	1.957	7.141	-5.076	1510.623	1501.099	1500.366	-1.053	-2.977	3.786	-0.230	5.818	-7.502
212526.276	NaN	1.967	7.152	-5.076	1510.623	1500.366	1499.634	-0.809	-2.779	3.573	0.000	5.665	-7.579
212527.252	NaN	1.957	7.152	-5.076	1510.623	1500.366	1499.634	-0.595	-2.656	3.481	-0.306	5.895	-7.349
212528.229	NaN	1.967	7.152	-5.076	1510.623	1501.099	1499.634	-0.824	-2.885	3.527	-0.230	5.665	-7.349
212529.205	NaN	1.967	7.163	-5.076	1510.623	1501.099	1500.366	-1.099	-3.008	3.481	-0.230	5.818	-7.426
212530.182	NaN	1.957	7.163	-5.076	1510.623	1499.634	1501.099	-0.901	-3.069	3.496	-0.306	5.665	-7.426
212531.158	NaN	1.946	7.163	-5.076	1510.623	1500.366	1499.634	-0.702	-2.916	3.542	-0.153	5.742	-7.502
212532.135	NaN	1.957	7.163	-5.076	1511.355	1499.634	1499.634	-0.870	-2.901	3.557	-0.230	5.742	-7.426
212533.112	NaN	1.946	7.141	-5.087	1509.890	1499.634	1498.901	-1.023	-2.992	3.679	-0.153	5.742	-7.349
212534.088	NaN	1.957	7.141	-5.087	1511.355	1499.634	1501.099	-1.023	-3.084	3.557	-0.230	5.665	-7.426
212535.065	NaN	1.957	7.141	-5.098	1510.623	1500.366	1500.366	-0.977	-2.916	3.450	-0.230	5.665	-7.502
212536.041	NaN	1.957	7.152	-5.087	1509.890	1499.634	1500.366	-0.901	-2.947	3.496	-0.230	5.895	-7.502
212537.018	NaN	1.967	7.141	-5.098	1509.890	1501.099	1501.832	-0.779	-2.901	3.527	-0.230	5.742	-7.579
212537.994	NaN	1.946	7.141	-5.109	1509.890	1499.634	1499.634	-0.931	-2.794	3.756	-0.230	5.665	-7.426
212538.971	NaN	1.946	7.141	-5.098	1510.623	1500.366	1499.634	-0.824	-2.855	3.740	-0.306	5.742	-7.579
212539.948	NaN	1.935	7.152	-5.098	1510.623	1499.634	1500.366	-0.824	-2.885	3.756	-0.230	5.742	-7.502
212540.924	NaN	1.935	7.152	-5.098	1509.890	1499.634	1499.634	-0.641	-3.023	3.649	-0.306	5.818	-7.426
212541.901	NaN	1.935	7.152	-5.098	1509.890	1501.099	1501.099	-0.779	-3.115	3.573	-0.230	5.742	-7.349
212542.877	NaN	1.935	7.152	-5.098	1509.890	1499.634	1500.366	-0.885	-3.099	3.573	-0.153	5.818	-7.426
212543.854	NaN	1.946	7.152	-5.087	1509.890	1499.634	1501.099	-0.809	-3.038	3.450	-0.153	5.742	-7.426
212544.830	NaN	1.935	7.152	-5.109	1510.623	1499.634	1499.634	-0.748	-2.931	3.527	-0.077	5.665	-7.579
212545.807	NaN	1.946	7.141	-5.109	1509.890	1498.901	1499.634	-0.763	-2.733	3.634	-0.306	5.742	-7.426
212546.783	NaN	1.967	7.152	-5.087	1509.158	1499.634	1499.634	-0.931	-2.641	3.573	-0.077	5.742	-7.502
212547.760	NaN	1.957	7.152	-5.087	1510.623	1500.366	1499.634	-0.824	-2.656	3.557	-0.230	5.818	-7.426
212548.737	NaN	1.957	7.152	-5.087	1510.623	1499.634	1498.901	-0.733	-2.718	3.450	-0.230	5.818	-7.502
212549.713	NaN	1.957	7.152	-5.087	1511.355	1500.366	1500.366	-0.687	-2.916	3.588	-0.230	5.665	-7.349
212550.690	NaN	1.946	7.152	-5.087	1509.890	1499.634	1500.366	-0.534	-2.885	3.649	-0.077	5.589	-7.273
212551.666	NaN	1.946	7.163	-5.098	1509.890	1499.634	1500.366	-0.763	-3.038	3.679	-0.153	5.665	-7.426
212552.643	NaN	1.967	7.163	-5.087	1508.425	1500.366	1500.366	-1.008	-2.901	3.710	-0.383	5.818	-7.426
212553.619	NaN	1.946	7.163	-5.098	1509.158	1500.366	1500.366	-1.130	-2.779	3.725	-0.230	5.665	-7.502
212554.596	NaN	1.935	7.152	-5.087	1508.425	1500.366	1498.168	-1.069	-2.901	3.557	-0.306	5.818	-7.426
212555.573	NaN	1.946	7.152	-5.087	1511.355	1501.099	1501.099	-1.191	-3.115	3.298	-0.230	5.818	-7.349
212556.549	NaN	1.946	7.141	-5.098	1511.355	1498.901	1501.099	-0.901	-3.099	3.298	-0.306	5.665	-7.502
212557.526	NaN	1.946	7.152	-5.087	1509.890	1499.634	1499.634	-0.794	-3.099	3.420	-0.153	5.665	-7.349
212558.502	NaN	1.946	7.141	-5.098	1510.623	1500.366	1500.366	-0.855	-2.870	3.496	-0.306	5.665	-7.426
212559.479	NaN	1.957	7.152	-5.098	1510.623	1499.634	1499.634	-0.824	-2.947	3.511	-0.230	5.742	-7.579
212560.455	NaN	1.957	7.152	-5.087	1511.355	1500.366	1501.099	-0.672	-2.931	3.588	-0.153	5.742	-7.349
212561.432	NaN	1.957	7.152	-5.087	1509.890	1501.099	1499.634	-0.702	-2.885	3.695	-0.153	5.742	-7.426
212562.408	NaN	1.946	7.130	-5.087	1509.158	1498.901	1499.634	-0.840	-2.840	3.771	-0.230	5.895	-7.426
212563.385	NaN	1.957	7.120	-5.098	1510.623	1501.099	1499.634	-0.901	-2.931	3.725	-0.230	5.665	-7.426
212564.362	NaN	1.946	7.120	-5.098	1510.623	1500.366	1498.901	-0.885	-2.962	3.710	-0.153	5.818	-7.502
212565.338	NaN	1.946	7.130	-5.087	1509.890	1500.366	1499.634	-0.977	-2.794	3.649	-0.153	5.665	-7.426
212566.315	NaN	1.946	7.141	-5.098	1510.623	1500.366	1500.366	-0.901	-2.779	3.786	-0.306	5.742	-7.349
212567.291	NaN	1.935	7.141	-5.109	1510.623	1498.901	1498.901	-0.885	-2.702	3.740	-0.077	5.742	-7.273
212568.268	NaN	1.935	7.152	-5.098	1509.890	1501.832	1498.901	-1.115	-2.779	3.664	-0.153	5.895	-7.349
212569.244	NaN	1.946	7.152	-5.120	1510.623	1499.634	1498.168	-0.962	-2.794	3.557	-0.153	5.665	-7.426
212570.221	NaN	1.946	7.152	-5.109	1510.623	1499.634	1500.366	-0.931	-2.794	3.496	-0.230	5.742	-7.579
212571.198	NaN	1.946	7.141	-5.109	1510.623	1499.634	1499.634	-0.992	-2.855	3.511	-0.230	5.818	-7.502
212572.174	NaN	1.957	7.141	-5.109	1509.890	1499.634	1500.366	-1.084	-2.947	3.573	-0.459	5.742	-7.426
212573.151	NaN	1.957	7.163	-5.098	1509.890	1499.634	1501.099	-0.702	-3.023	3.511	-0.077	5.895	-7.579
212574.127	NaN	1.946	7.163	-5.109	1511.355	1500.366	1500.366	-0.580	-3.038	3.511	-0.153	5.818	-7.349
212575.104	NaN	1.967	7.163	-5.098	1510.623	1500.366	1500.366	-0.504	-2.916	3.573	-0.230	5.742	-7.349
212576.080	NaN	1.957	7.152	-5.120	1511.355	1499.634	1499.634	-0.611	-2.885	3.756	-0.230	5.665	-7.426
212577.057	NaN	1.967	7.141	-5.109	1508.425	1499.634	1500.366	-0.824	-2.870	3.725	-0.153	5.665	-7.502
212578.033	NaN	1.967	7.152	-5.087	1510.623	1500.366	1498.901	-1.008	-2.809	3.542	-0.306	5.742	-7.502
212579.010	NaN	1.967	7.152	-5.087	1510.623	1500.366	1498.168	-0.748	-2.931	3.405	-0.306	5.742	-7.502
212579.987	NaN	1.946	7.141	-5.076	1510.623	1500.366	1499.634	-0.840	-3.023	3.389	-0.153	5.665	-7.579
212580.963	NaN	1.946	7.152	-5.098	1509.890	1500.366	1498.901	-0.855	-2.947	3.527	-0.230	5.818	-7.502
212581.940	NaN	1.957	7.141	-5.087	1510.623	1501.099	1500.366	-0.901	-2.763	3.603	-0.077	5.742	-7.502
212582.916	NaN	1.967	7.152	-5.087	1510.623	1500.366	1500.366	-0.779	-2.855	3.679	-0.306	5.665	-7.349
212583.893	NaN	1.967	7.152	-5.087	1510.623	1500.366	1500.366	-0.840	-2.901	3.481	-0.230	5.818	-7.273
212584.869	NaN	1.967	7.152	-5.098	1510.623	1500.366	1498.901	-0.885	-2.840	3.588	-0.230	5.818	-7.273
212585.846	NaN	1.967	7.141	-5.087	1512.088	1501.099	1499.634	-0.656	-2.901	3.756	-0.230	5.742	-7.502
212586.823	NaN	1.957	7.152	-5.087	1510.623	1500.366	1499.634	-0.840	-3.008	3.802	-0.230	5.589	-7.502
212587.799	NaN	1.957	7.152	-5.098	1510.623	1500.366	1500.366	-1.008	-3.130	3.695	-0.153	5.895	-7.502
212588.776	NaN	1.946	7.163	-5.087	1511.355	1500.366	1498.901	-0.870	-3.130	3.557	-0.230	5.818	-7.426
212589.752	NaN	1.935	7.152	-5.098	1510.623	1500.366	1498.901	-0.855	-3.038	3.573	-0.153	5.818	-7.273
212590.729	NaN	1.946	7.163	-5.087	1511.355	1501.099	1500.366	-0.718	-3.023	3.588	-0.153	5.742	-7.349
212591.705	NaN	1.946	7.152	-5.076	1510.623	1500.366	1500.366	-0.718	-3.038	3.527	-0.153	5.895	-7.426
212592.682	NaN	1.935	7.152	-5.087	1509.890	1499.634	1499.634	-0.656	-2.992	3.481	-0.230	5.742	-7.656
212593.658	NaN	1.957	7.152	-5.098	1509.158	1498.901	1499.634	-0.763	-2.916	3.603	-0.153	5.742	-7.426
212594.635	NaN	1.967	7.163	-5.087	1511.355	1501.099	1499.634	-1.221	-2.931	3.695	-0.153	5.742	-7.426
212595.612	NaN	1.957	7.152	-5.098	1509.890	1500.366	1498.901	-1.160	-2.870	3.557	-0.153	5.818	-7.426
212596.588	NaN	1.946	7.141	-5.098	1509.890	1499.634	1499.634	-0.916	-2.870	3.496	-0.153	5.665	-7.426
212597.565	NaN	1.946	7.141	-5.098	1510.623	1500.366	1500.366	-0.809	-3.130	3.573	-0.306	5.818	-7.502
212598.541	NaN	1.946	7.130	-5.120	1510.623	1500.366	1499.634	-0.809	-3.130	3.618	-0.153	5.818	-7.426
212599.518	NaN	1.957	7.130	-5.098	1510.623	1501.099	1501.099	-1.038	-2.947	3.679	-0.230	5.665	-7.349
212600.494	NaN	1.946	7.130	-5.098	1509.890	1499.634	1501.099	-1.008	-2.809	3.771	-0.306	5.818	-7.426
212601.471	NaN	1.957	7.141	-5.065	1511.355	1499.634	1500.366	-0.824	-2.931	3.618	-0.077	5.742	-7.426
212602.448	NaN	1.957	7.141	-5.076	1510.623	1499.634	1500.366	-0.824	-3.130	3.649	-0.153	5.818	-7.426
212603.424	NaN	1.967	7.152	-5.087	1511.355	1500.366	1498.901	-0.779	-3.053	3.573	-0.230	5.589	-7.426
212604.401	NaN	1.957	7.141	-5.065	1509.890	1499.634	1501.099	-0.779	-2.885	3.618	-0.230	5.742	-7.426
212605.377	NaN	1.967	7.130	-5.065	1509.890	1501.099	1501.099	-0.870	-2.794	3.847	-0.306	5.665	-7.426
212606.354	NaN	1.957	7.141	-5.065	1509.890	1500.366	1500.366	-0.855	-2.870	3.618	-0.153	5.742	-7.426
212607.330	NaN	1.957	7.141	-5.076	1511.355	1498.901	1499.634	-0.733	-2.947	3.405	-0.153	5.742	-7.273
212608.307	NaN	1.957	7.141	-5.087	1510.623	1500.366	1499.634	-0.901	-2.794	3.313	-0.306	5.818	-7.502
212609.283	NaN	1.957	7.152	-5.087	1510.623	1500.366	1498.168	-0.779	-2.687	3.496	-0.306	5.665	-7.349
212610.260	NaN	1.946	7.152	-5.098	1510.623	1500.366	1498.901	-0.687	-2.733	3.664	-0.077	5.742	-7.426
212611.237	NaN	1.935	7.141	-5.098	1510.623	1501.099	1497.436	-0.595	-2.947	3.710	-0.077	5.818	-7.579
212612.213	NaN	1.935	7.141	-5.109	1511.355	1499.634	1500.366	-0.748	-3.053	3.725	-0.230	5.818	-7.426
212613.190	NaN	1.946	7.152	-5.109	1509.890	1500.366	1500.366	-0.855	-2.962	3.664	-0.230	5.665	-7.502
212614.166	NaN	1.946	7.152	-5.109	1510.623	1500.366	1500.366	-0.840	-2.733	3.527	-0.230	5.742	-7.426
212615.143	NaN	1.957	7.141	-5.120	1510.623	1500.366	1500.366	-0.855	-2.870	3.710	-0.230	5.895	-7.502
212616.119	NaN	1.957	7.141	-5.120	1509.158	1500.366	1500.366	-0.733	-3.008	3.679	-0.153	5.742	-7.426
212617.096	NaN	1.967	7.163	-5.130	1511.355	1500.366	1501.099	-0.779	-3.084	3.603	-0.306	5.742	-7.349
212618.073	NaN	1.967	7.152	-5.120	1510.623	1501.099	1498.901	-0.718	-2.947	3.466	-0.306	5.818	-7.426
212619.049	NaN	1.967	7.141	-5.109	1509.890	1500.366	1500.366	-0.489	-2.824	3.344	-0.230	5.665	-7.426
212620.026	NaN	1.967	7.152	-5.109	1509.890	1500.366	1498.901	-0.611	-2.901	3.542	-0.153	5.742	-7.349
212621.002	NaN	1.946	7.152	-5.120	1509.890	1498.901	1498.901	-0.702	-2.931	3.725	-0.230	5.895	-7.426
212621.979	NaN	1.957	7.163	-5.109	1511.355	1501.099	1499.634	-0.794	-2.992	3.695	-0.230	5.818	-7.426
212622.955	NaN	1.957	7.141	-5.098	1510.623	1501.099	1500.366	-0.748	-3.069	3.450	-0.153	5.742	-7.426
212623.932	NaN	1.957	7.141	-5.098	1510.623	1501.099	1499.634	-0.824	-3.069	3.435	-0.077	5.742	-7.426
212624.908	NaN	1.946	7.130	-5.098	1509.890	1500.366	1498.901	-0.901	-2.901	3.756	-0.306	5.742	-7.502
212625.885	NaN	1.957	7.141	-5.087	1510.623	1501.099	1498.901	-1.145	-2.779	3.710	-0.306	5.589	-7.349
212626.862	NaN	1.946	7.141	-5.076	1510.623	1500.366	1500.366	-0.824	-2.885	3.679	-0.306	5.665	-7.502
212627.838	NaN	1.946	7.152	-5.087	1510.623	1500.366	1500.366	-0.718	-2.992	3.542	-0.230	5.895	-7.349
212628.815	NaN	1.946	7.163	-5.098	1509.890	1500.366	1499.634	-0.733	-2.992	3.420	-0.230	5.665	-7.426
212629.791	NaN	1.935	7.152	-5.109	1510.623	1500.366	1499.634	-0.580	-3.023	3.649	-0.153	5.818	-7.273
212630.768	NaN	1.957	7.152	-5.109	1511.355	1501.099	1500.366	-0.947	-3.038	3.771	-0.153	5.818	-7.349
212631.744	NaN	1.957	7.163	-5.098	1510.623	1500.366	1499.634	-1.023	-2.947	3.573	-0.077	5.742	-7.502
212632.721	NaN	1.967	7.152	-5.098	1510.623	1500.366	1498.901	-0.931	-2.870	3.542	-0.230	5.742	-7.579
212633.698	NaN	1.957	7.152	-5.109	1509.890	1501.099	1500.366	-0.748	-2.824	3.725	-0.230	5.818	-7.502
212634.674	NaN	1.957	7.152	-5.120	1511.355	1500.366	1499.634	-0.687	-2.824	3.756	-0.306	5.742	-7.426
212635.651	NaN	1.957	7.152	-5.109	1510.623	1501.099	1498.901	-0.733	-3.053	3.618	-0.153	5.665	-7.426
212636.627	NaN	1.946	7.152	-5.109	1510.623	1500.366	1499.634	-0.916	-3.099	3.634	-0.306	5.895	-7.656
212637.604	NaN	1.946	7.152	-5.098	1511.355	1499.634	1499.634	-1.008	-3.069	3.618	-0.153	5.742	-7.273
212638.580	NaN	1.935	7.141	-5.109	1509.890	1499.634	1498.901	-1.115	-2.962	3.573	-0.077	5.895	-7.426
212639.557	NaN	1.935	7.152	-5.087	1511.355	1500.366	1500.366	-0.763	-3.023	3.435	-0.077	5.589	-7.426
212640.533	NaN	1.935	7.163	-5.076	1510.623	1500.366	1498.901	-0.489	-2.916	3.542	-0.153	5.742	-7.502
212641.510	NaN	1.946	7.163	-5.076	1510.623	1500.366	1499.634	-0.611	-3.008	3.435	-0.153	5.895	-7.426
212642.487	3736844562.523	1.946	7.152	-5.076	1510.623	1501.099	1500.366	-0.794	-3.023	3.573	-0.306	5.742	-7.349
212643.463	NaN	1.935	7.152	-5.087	1511.355	1501.099	1498.901	-0.641	-2.992	3.588	-0.230	5.818	-7.426
212644.440	NaN	1.946	7.141	-5.076	1510.623	1501.099	1500.366	-0.672	-2.885	3.511	-0.230	5.742	-7.426
212645.416	NaN	1.946	7.141	-5.098	1509.158	1500.366	1498.168	-0.763	-2.916	3.603	-0.383	5.818	-7.502
212646.393	NaN	1.957	7.152	-5.076	1509.158	1499.634	1499.634	-0.779	-3.008	3.603	-0.153	5.665	-7.273
212647.369	NaN	1.957	7.141	-5.098	1510.623	1500.366	1498.901	-0.779	-2.901	3.588	-0.230	5.818	-7.426
212648.346	NaN	1.946	7.141	-5.109	1509.890	1499.634	1500.366	-0.809	-2.794	3.466	-0.306	5.665	-7.502
212649.323	NaN	1.957	7.163	-5.087	1510.623	1500.366	1499.634	-0.824	-2.916	3.389	-0.153	5.818	-7.349
212650.299	NaN	1.935	7.141	-5.098	1509.890	1500.366	1498.901	-0.824	-2.962	3.450	-0.230	5.818	-7.502
212651.276	NaN	1.935	7.141	-5.087	1510.623	1499.634	1498.901	-0.626	-2.870	3.527	-0.306	5.665	-7.656
212652.252	NaN	1.924	7.141	-5.087	1511.355	1500.366	1500.366	-0.519	-2.809	3.511	-0.153	5.818	-7.656
212653.229	NaN	1.924	7.141	-5.098	1510.623	1499.634	1500.366	-0.748	-2.870	3.573	-0.230	5.665	-7.426
212654.205	NaN	1.935	7.141	-5.087	1510.623	1500.366	1500.366	-0.779	-2.779	3.679	-0.230	5.742	-7.349
212655.182	NaN	1.935	7.141	-5.087	1509.890	1500.366	1500.366	-0.962	-2.672	3.588	-0.306	5.742	-7.502
212656.158	NaN	1.946	7.141	-5.098	1509.890	1499.634	1501.099	-0.855	-2.824	3.634	-0.306	5.818	-7.349
212657.135	NaN	1.957	7.152	-5.087	1511.355	1499.634	1500.366	-0.885	-2.840	3.756	-0.230	5.818	-7.426
212658.112	NaN	1.946	7.141	-5.109	1509.890	1500.366	1498.901	-0.763	-2.885	3.649	-0.230	5.742	-7.426
212659.088	NaN	1.957	7.141	-5.098	1511.355	1500.366	1500.366	-0.672	-2.901	3.481	-0.230	5.742	-7.502
212660.065	NaN	1.946	7.130	-5.098	1511.355	1499.634	1500.366	-0.656	-2.992	3.557	-0.306	5.665	-7.579
212661.041	NaN	1.946	7.130	-5.098	1509.158	1499.634	1499.634	-0.901	-2.901	3.542	-0.153	5.895	-7.502
212662.018	NaN	1.957	7.130	-5.098	1510.623	1500.366	1500.366	-0.992	-2.687	3.405	-0.153	5.742	-7.349
212662.994	NaN	1.957	7.130	-5.109	1510.623	1500.366	1498.901	-0.916	-2.702	3.557	-0.230	5.665	-7.502
212663.971	NaN	1.957	7.130	-5.098	1509.158	1499.634	1500.366	-0.916	-2.748	3.679	-0.153	5.742	-7.502
212664.948	NaN	1.957	7.152	-5.098	1509.890	1499.634	1500.366	-0.763	-2.748	3.664	-0.153	5.742	-7.426
212665.924	NaN	1.957	7.141	-5.109	1508.425	1499.634	1500.366	-0.763	-2.947	3.603	-0.306	5.742	-7.426
212666.901	NaN	1.957	7.152	-5.087	1509.158	1498.901	1498.168	-1.053	-2.962	3.481	-0.077	5.665	-7.579
212667.877	NaN	1.967	7.152	-5.087	1509.890	1500.366	1498.901	-0.763	-2.962	3.450	-0.230	5.742	-7.656
212668.854	NaN	1.967	7.141	-5.087	1509.158	1498.901	1499.634	-0.611	-3.084	3.389	-0.153	5.665	-7.579
212669.830	NaN	1.957	7.141	-5.087	1511.355	1498.901	1501.832	-0.519	-3.115	3.466	-0.230	5.895	-7.349
212670.807	NaN	1.957	7.141	-5.087	1511.355	1501.099	1498.901	-0.626	-3.023	3.420	-0.153	5.742	-7.502
212671.783	NaN	1.946	7.130	-5.098	1510.623	1499.634	1499.634	-0.595	-2.931	3.420	-0.230	5.742	-7.426
212672.760	NaN	1.957	7.141	-5.087	1510.623	1499.634	1500.366	-0.580	-2.885	3.557	-0.230	5.818	-7.426
212673.737	NaN	1.957	7.152	-5.098	1509.890	1501.099	1500.366	-0.489	-2.947	3.496	-0.306	5.818	-7.502
212674.713	NaN	1.967	7.152	-5.098	1511.355	1501.099	1500.366	-0.748	-3.038	3.527	-0.230	5.895	-7.426
212675.690	NaN	1.967	7.141	-5.076	1510.623	1500.366	1501.832	-0.580	-2.947	3.588	-0.230	5.742	-7.349
212676.666	NaN	1.978	7.141	-5.076	1511.355	1501.099	1499.634	-0.427	-2.901	3.740	-0.230	5.818	-7.349
212677.643	NaN	1.967	7.141	-5.087	1510.623	1501.099	1499.634	-0.626	-3.069	3.679	-0.230	5.742	-7.349
212678.619	NaN	1.967	7.141	-5.098	1510.623	1500.366	1499.634	-0.947	-2.885	3.603	-0.230	5.742	-7.426
212679.596	NaN	1.967	7.141	-5.098	1510.623	1501.099	1500.366	-0.931	-2.702	3.603	-0.153	5.818	-7.349
