Timestamp	PC Timestamp	Low Noise Accelerometer X	Low Noise Accelerometer Y	Low Noise Accelerometer Z	Int A12	Int A13	Int A14	Gyroscope X	Gyroscope Y	Gyroscope Z	Wide Range Accelerometer X	Wide Range Accelerometer Y	Wide Range Accelerometer Z
101815.338	NaN	0.109	5.707	-5.707	1509.158	1500.366	1498.901	-1.038	0.061	-1.038	-2.297	4.211	-8.268
101816.315	NaN	0.120	5.696	-5.707	1510.623	1500.366	1497.436	-1.069	0.183	-0.992	-2.373	4.211	-8.268
101817.291	NaN	0.130	5.685	-5.717	1509.158	1501.099	1497.436	-1.115	0.260	-1.130	-2.297	4.134	-8.268
101818.268	NaN	0.130	5.696	-5.707	1510.623	1502.564	1498.901	-1.145	0.198	-1.267	-2.144	4.211	-8.191
101819.244	NaN	0.120	5.685	-5.728	1510.623	1501.832	1498.901	-1.344	0.229	-1.359	-2.220	4.364	-8.191
101820.221	NaN	0.120	5.696	-5.728	1509.158	1500.366	1497.436	-1.191	0.137	-1.115	-2.220	4.134	-8.344
101821.198	NaN	0.130	5.696	-5.717	1509.158	1501.099	1498.168	-0.870	0.046	-1.115	-2.220	4.134	-8.191
101822.174	NaN	0.141	5.707	-5.728	1509.890	1501.832	1498.168	-1.008	0.214	-1.206	-2.297	4.211	-8.268
101823.151	NaN	0.141	5.707	-5.707	1509.158	1501.099	1498.168	-1.176	0.214	-1.420	-2.220	4.134	-8.038
101824.127	NaN	0.130	5.707	-5.717	1509.890	1502.564	1499.634	-1.359	0.458	-1.374	-2.220	4.211	-8.191
101825.104	NaN	0.141	5.707	-5.717	1509.158	1501.099	1498.901	-1.282	0.366	-1.191	-2.220	4.211	-8.268
101826.080	NaN	0.130	5.707	-5.728	1510.623	1501.099	1498.168	-1.008	0.244	-1.160	-2.144	4.057	-8.115
101827.057	NaN	0.120	5.707	-5.728	1509.158	1501.099	1497.436	-1.282	0.260	-1.267	-2.144	4.211	-8.344
101828.033	NaN	0.130	5.717	-5.707	1509.158	1502.564	1498.168	-1.298	0.137	-1.252	-2.220	4.211	-8.268
101829.010	NaN	0.130	5.717	-5.717	1510.623	1500.366	1498.901	-1.069	0.153	-1.405	-2.220	4.134	-8.191
101829.987	NaN	0.130	5.717	-5.728	1509.158	1501.099	1498.168	-0.870	0.183	-1.466	-2.067	4.211	-8.344
101830.963	NaN	0.120	5.707	-5.739	1509.158	1500.366	1498.168	-0.901	0.305	-1.145	-2.297	3.981	-8.344
101831.940	NaN	0.130	5.728	-5.728	1505.495	1501.832	1498.168	-1.084	0.366	-0.947	-2.373	4.211	-8.191
101832.916	NaN	0.130	5.717	-5.717	1509.158	1501.832	1498.901	-1.099	0.290	-1.038	-2.220	4.057	-8.191
101833.893	NaN	0.130	5.717	-5.728	1509.890	1500.366	1498.901	-1.130	0.107	-1.023	-2.220	4.134	-8.191
101834.869	NaN	0.130	5.707	-5.739	1509.890	1501.832	1498.901	-1.099	-0.015	-1.053	-2.220	4.134	-8.191
101835.846	NaN	0.141	5.707	-5.728	1509.890	1501.832	1499.634	-0.901	-0.061	-1.237	-2.297	4.287	-8.115
101836.823	NaN	0.141	5.707	-5.728	1509.890	1502.564	1498.901	-1.069	0.229	-1.221	-2.297	4.211	-8.191
101837.799	NaN	0.141	5.717	-5.728	1510.623	1501.832	1498.168	-1.130	0.244	-1.176	-2.297	4.057	-8.268
101838.776	NaN	0.130	5.707	-5.739	1508.425	1502.564	1498.901	-0.916	0.168	-1.221	-2.220	4.287	-8.268
101839.752	NaN	0.120	5.707	-5.739	1509.890	1501.832	1499.634	-0.931	0.198	-1.176	-2.220	4.211	-8.268
101840.729	NaN	0.130	5.707	-5.728	1509.158	1501.099	1499.634	-1.115	0.107	-1.206	-2.067	4.364	-8.268
101841.705	NaN	0.130	5.696	-5.728	1509.890	1501.832	1498.168	-1.176	0.092	-1.206	-2.220	4.211	-8.191
101842.682	NaN	0.120	5.707	-5.739	1509.890	1501.832	1497.436	-1.221	0.153	-1.084	-2.220	4.211	-8.115
101843.658	NaN	0.109	5.707	-5.728	1510.623	1501.832	1497.436	-1.145	0.336	-1.099	-2.144	4.134	-8.115
101844.635	NaN	0.120	5.707	-5.707	1510.623	1501.832	1498.901	-1.115	0.229	-1.053	-2.220	4.057	-8.191
101845.612	NaN	0.109	5.707	-5.728	1509.890	1501.099	1497.436	-1.176	0.153	-1.145	-2.220	4.287	-8.115
101846.588	NaN	0.109	5.707	-5.728	1509.158	1501.099	1499.634	-1.160	0.153	-1.267	-2.220	4.134	-8.191
101847.565	NaN	0.120	5.717	-5.707	1509.158	1501.099	1498.901	-1.115	0.214	-1.328	-2.220	4.287	-8.115
101848.541	NaN	0.120	5.707	-5.717	1509.158	1502.564	1498.901	-0.916	0.275	-1.206	-2.373	4.211	-8.191
101849.518	NaN	0.120	5.707	-5.717	1509.890	1501.099	1498.168	-1.008	0.122	-1.282	-2.220	4.211	-8.268
101850.494	NaN	0.130	5.707	-5.728	1509.890	1500.366	1498.168	-0.824	0.076	-1.237	-2.144	4.287	-8.191
101851.471	NaN	0.120	5.707	-5.728	1509.158	1500.366	1498.168	-0.947	0.092	-1.145	-2.220	4.057	-8.115
101852.448	NaN	0.120	5.707	-5.717	1509.158	1501.099	1498.901	-1.084	0.153	-1.191	-2.297	4.057	-8.268
101853.424	NaN	0.130	5.707	-5.728	1509.890	1501.099	1497.436	-1.359	0.137	-1.023	-2.297	4.134	-8.268
101854.401	NaN	0.141	5.728	-5.717	1509.890	1501.832	1499.634	-1.191	0.076	-1.160	-2.220	4.287	-8.191
101855.377	NaN	0.141	5.717	-5.707	1509.890	1502.564	1498.168	-1.023	0.137	-1.053	-2.144	4.057	-8.191
101856.354	NaN	0.141	5.717	-5.707	1509.890	1501.832	1498.901	-0.931	0.153	-1.130	-2.220	4.134	-8.191
101857.330	NaN	0.130	5.717	-5.717	1509.890	1501.099	1498.168	-0.962	0.137	-1.191	-2.297	4.211	-8.191
101858.307	NaN	0.141	5.707	-5.717	1509.890	1501.832	1498.901	-1.191	0.015	-1.206	-2.297	4.287	-8.268
101859.283	NaN	0.141	5.707	-5.717	1509.158	1501.832	1498.901	-1.084	-0.092	-1.191	-2.220	4.211	-8.268
101860.260	NaN	0.130	5.696	-5.728	1509.890	1501.832	1498.901	-0.962	-0.137	-1.267	-2.297	4.364	-8.191
101861.237	NaN	0.130	5.696	-5.739	1509.890	1499.634	1501.832	-0.885	0.031	-1.344	-2.297	4.134	-8.191
101862.213	NaN	0.130	5.696	-5.717	1511.355	1501.099	1500.366	-0.870	0.305	-1.176	-2.297	4.287	-8.115
101863.190	NaN	0.130	5.707	-5.707	1510.623	1501.832	1498.901	-1.084	0.153	-1.038	-2.373	3.981	-8.268
101864.166	NaN	0.130	5.696	-5.696	1509.158	1501.832	1498.168	-1.115	0.015	-1.023	-2.144	4.211	-8.115
101865.143	NaN	0.141	5.707	-5.696	1509.158	1501.099	1498.168	-1.038	0.000	-1.221	-2.144	4.364	-8.191
101866.119	NaN	0.141	5.696	-5.696	1509.890	1501.832	1498.901	-1.008	0.168	-1.099	-2.144	4.211	-8.191
101867.096	NaN	0.130	5.707	-5.707	1509.890	1500.366	1498.168	-1.099	0.214	-1.176	-2.220	4.134	-8.191
101868.073	NaN	0.141	5.717	-5.696	1509.890	1501.832	1498.168	-0.992	0.015	-1.374	-2.297	4.211	-8.268
101869.049	NaN	0.141	5.717	-5.707	1510.623	1501.832	1498.901	-1.099	-0.031	-1.405	-2.220	4.211	-8.268
101870.026	NaN	0.141	5.707	-5.707	1509.890	1501.099	1498.901	-1.069	0.198	-1.328	-2.067	4.134	-8.038
101871.002	NaN	0.152	5.717	-5.707	1510.623	1501.832	1498.901	-1.115	0.244	-1.069	-2.144	4.287	-8.191
101871.979	NaN	0.141	5.717	-5.707	1509.890	1501.832	1498.901	-1.130	0.275	-0.977	-2.220	4.211	-8.191
101872.955	NaN	0.130	5.717	-5.707	1509.890	1501.099	1498.901	-0.901	0.122	-1.115	-2.144	4.211	-8.191
101873.932	NaN	0.130	5.707	-5.717	1509.158	1501.832	1499.634	-0.809	0.061	-1.206	-2.144	4.287	-8.115
101874.908	NaN	0.130	5.707	-5.717	1509.890	1501.832	1498.901	-0.962	0.107	-1.328	-2.297	4.211	-8.191
101875.885	NaN	0.130	5.707	-5.717	1510.623	1501.832	1500.366	-1.191	0.061	-1.344	-2.144	4.057	-8.191
101876.862	NaN	0.130	5.717	-5.717	1509.890	1501.832	1498.901	-1.099	0.183	-1.191	-2.144	4.211	-8.344
101877.838	NaN	0.130	5.707	-5.728	1509.890	1501.099	1499.634	-0.962	0.229	-1.313	-2.297	4.134	-8.115
101878.815	NaN	0.141	5.696	-5.717	1509.158	1501.099	1500.366	-0.870	0.275	-1.130	-2.220	4.211	-8.268
101879.791	NaN	0.130	5.707	-5.707	1510.623	1501.832	1498.901	-0.916	0.321	-0.855	-2.220	4.287	-8.115
101880.768	NaN	0.141	5.707	-5.696	1510.623	1501.832	1498.901	-0.977	0.168	-0.840	-2.297	4.134	-8.268
101881.744	NaN	0.130	5.707	-5.717	1509.890	1501.832	1498.168	-0.947	0.229	-0.931	-2.297	4.287	-8.191
101882.721	NaN	0.141	5.707	-5.717	1509.890	1501.099	1495.971	-0.870	0.015	-1.176	-2.220	4.287	-8.191
101883.698	NaN	0.130	5.696	-5.728	1509.158	1501.099	1498.168	-0.992	0.000	-1.405	-2.220	4.211	-8.115
101884.674	NaN	0.130	5.696	-5.728	1510.623	1499.634	1498.901	-0.885	0.260	-1.282	-2.373	4.134	-8.344
101885.651	NaN	0.130	5.696	-5.728	1509.890	1501.832	1499.634	-0.794	0.321	-1.252	-2.144	4.287	-8.115
101886.627	NaN	0.130	5.707	-5.728	1509.158	1502.564	1498.901	-0.763	0.351	-1.206	-2.220	4.287	-8.268
101887.604	NaN	0.120	5.696	-5.728	1509.890	1501.832	1499.634	-1.008	0.260	-1.221	-2.144	4.211	-8.268
101888.580	NaN	0.130	5.717	-5.750	1509.158	1501.832	1498.168	-1.221	0.305	-1.206	-2.297	4.287	-8.115
101889.557	NaN	0.141	5.707	-5.728	1510.623	1501.832	1498.901	-1.328	0.183	-1.023	-2.373	4.287	-8.115
101890.533	NaN	0.130	5.707	-5.739	1509.890	1501.099	1498.168	-1.023	0.076	-1.206	-2.144	4.287	-8.115
101891.510	NaN	0.130	5.707	-5.728	1509.158	1500.366	1498.168	-0.824	0.061	-1.084	-2.144	4.134	-8.191
101892.487	NaN	0.141	5.707	-5.717	1509.158	1500.366	1498.168	-0.794	0.122	-1.115	-2.220	4.211	-8.115
101893.463	NaN	0.130	5.707	-5.717	1509.890	1501.832	1498.901	-0.916	0.076	-1.084	-2.297	4.287	-8.191
101894.440	NaN	0.130	5.707	-5.707	1509.890	1501.099	1498.901	-1.053	0.137	-0.901	-2.373	4.211	-8.115
101895.416	NaN	0.120	5.717	-5.717	1510.623	1501.832	1498.168	-1.023	0.229	-1.023	-2.373	4.364	-8.191
101896.393	NaN	0.120	5.707	-5.707	1509.890	1500.366	1495.971	-0.809	0.336	-1.237	-2.297	4.211	-8.191
101897.369	NaN	0.130	5.707	-5.717	1510.623	1501.832	1498.168	-0.779	0.214	-1.206	-2.220	4.211	-8.191
101898.346	NaN	0.141	5.717	-5.707	1509.890	1502.564	1498.168	-0.870	0.061	-1.176	-2.220	4.057	-8.115
101899.323	NaN	0.141	5.717	-5.717	1510.623	1501.099	1498.168	-1.023	0.183	-1.115	-2.297	4.134	-8.268
101900.299	NaN	0.141	5.717	-5.728	1509.158	1502.564	1499.634	-1.267	0.321	-1.084	-2.144	4.211	-8.191
101901.276	NaN	0.120	5.707	-5.728	1509.890	1501.099	1497.436	-1.389	0.275	-1.130	-2.297	4.211	-8.115
101902.252	NaN	0.120	5.717	-5.728	1510.623	1501.832	1498.168	-1.481	0.198	-1.237	-2.220	4.134	-8.191
101903.229	NaN	0.130	5.707	-5.717	1509.890	1501.099	1499.634	-1.145	0.214	-1.237	-2.220	4.211	-8.191
101904.205	NaN	0.130	5.696	-5.717	1510.623	1501.099	1498.901	-0.840	0.153	-1.053	-2.373	4.211	-8.268
101905.182	NaN	0.120	5.707	-5.717	1509.158	1501.099	1498.168	-0.687	0.137	-1.115	-2.220	4.211	-8.268
101906.158	NaN	0.109	5.696	-5.728	1509.158	1501.099	1498.901	-0.672	0.137	-1.237	-2.067	4.134	-8.038
101907.135	NaN	0.120	5.696	-5.717	1510.623	1501.832	1498.168	-0.840	0.214	-1.359	-2.220	4.287	-8.268
101908.112	NaN	0.109	5.696	-5.717	1509.890	1501.832	1499.634	-0.916	0.137	-1.176	-2.144	4.287	-8.115
101909.088	NaN	0.120	5.685	-5.707	1509.890	1501.099	1498.168	-1.053	0.153	-1.053	-2.220	4.211	-8.191
101910.065	NaN	0.109	5.696	-5.707	1509.890	1501.099	1498.901	-1.237	0.260	-1.084	-2.220	4.134	-8.115
101911.041	NaN	0.109	5.685	-5.707	1510.623	1501.832	1498.168	-1.298	0.382	-1.176	-2.220	4.211	-8.191
101912.018	NaN	0.109	5.685	-5.707	1509.890	1501.832	1501.099	-1.069	0.183	-1.206	-2.220	4.287	-8.115
101912.994	NaN	0.120	5.685	-5.717	1510.623	1501.832	1498.168	-0.962	0.168	-1.084	-2.220	4.211	-8.191
101913.971	NaN	0.120	5.685	-5.728	1509.890	1501.099	1498.901	-0.962	0.412	-1.099	-2.144	4.134	-8.268
101914.948	NaN	0.120	5.685	-5.728	1509.890	1501.099	1498.168	-1.023	0.336	-1.389	-2.144	4.287	-8.191
101915.924	NaN	0.120	5.707	-5.728	1511.355	1501.832	1498.901	-1.053	0.137	-1.328	-2.297	4.364	-8.191
101916.901	NaN	0.130	5.707	-5.728	1509.890	1501.832	1498.901	-1.053	0.015	-1.206	-2.297	4.211	-8.038
101917.877	NaN	0.130	5.707	-5.728	1509.890	1501.099	1499.634	-1.069	0.137	-1.237	-2.373	4.364	-8.191
101918.854	NaN	0.141	5.717	-5.717	1509.158	1502.564	1498.168	-1.084	0.214	-1.099	-2.220	4.211	-8.268
101919.830	NaN	0.130	5.717	-5.728	1510.623	1502.564	1498.168	-0.870	0.336	-1.221	-2.297	4.211	-8.191
101920.807	NaN	0.120	5.707	-5.728	1509.158	1501.099	1498.901	-0.840	0.244	-1.160	-2.373	4.134	-8.268
101921.783	NaN	0.130	5.728	-5.717	1510.623	1500.366	1498.168	-0.794	0.168	-0.977	-2.144	4.211	-8.115
101922.760	NaN	0.130	5.707	-5.717	1509.890	1501.099	1498.901	-1.084	0.076	-0.962	-2.144	4.211	-8.191
101923.737	NaN	0.120	5.707	-5.707	1509.158	1500.366	1497.436	-1.374	0.153	-1.115	-2.220	4.057	-8.268
101924.713	NaN	0.130	5.707	-5.717	1509.158	1502.564	1498.168	-1.130	0.336	-1.221	-2.220	4.134	-8.268
101925.690	NaN	0.130	5.707	-5.728	1509.158	1500.366	1497.436	-1.008	0.122	-1.191	-2.297	4.364	-8.344
101926.666	NaN	0.130	5.707	-5.717	1507.692	1501.099	1497.436	-1.069	-0.015	-1.282	-2.297	4.134	-8.115
101927.643	NaN	0.141	5.717	-5.707	1509.890	1501.832	1497.436	-0.885	0.076	-1.252	-2.144	4.287	-8.268
101928.619	NaN	0.130	5.696	-5.728	1509.158	1502.564	1498.168	-0.763	0.321	-1.237	-2.297	4.211	-8.115
101929.596	NaN	0.130	5.707	-5.739	1510.623	1500.366	1498.168	-1.221	0.275	-1.145	-2.220	4.211	-8.344
101930.573	NaN	0.130	5.707	-5.728	1509.890	1501.099	1498.901	-1.420	0.061	-1.191	-2.297	4.440	-8.191
101931.549	NaN	0.130	5.707	-5.739	1510.623	1501.832	1498.168	-1.099	0.061	-1.160	-2.220	4.287	-8.115
101932.526	NaN	0.130	5.707	-5.739	1509.158	1501.099	1496.703	-0.763	0.107	-1.145	-2.297	4.134	-8.115
101933.502	NaN	0.141	5.717	-5.728	1510.623	1501.099	1498.168	-0.809	0.153	-1.344	-2.144	4.211	-8.038
101934.479	NaN	0.130	5.707	-5.728	1509.158	1501.832	1499.634	-0.855	0.260	-1.221	-2.373	4.211	-8.115
101935.455	NaN	0.120	5.707	-5.728	1510.623	1501.832	1498.901	-0.824	0.305	-1.099	-2.144	4.364	-8.115
101936.432	NaN	0.120	5.707	-5.739	1509.158	1501.099	1498.901	-0.885	0.290	-1.176	-2.297	4.211	-8.191
101937.408	NaN	0.120	5.707	-5.739	1510.623	1501.099	1498.901	-0.947	0.305	-1.160	-2.144	4.134	-8.038
101938.385	NaN	0.130	5.707	-5.717	1509.890	1501.832	1498.901	-1.176	0.214	-1.221	-2.220	4.211	-8.038
101939.362	NaN	0.120	5.707	-5.739	1509.890	1500.366	1497.436	-1.282	0.061	-1.160	-2.297	4.134	-8.191
101940.338	NaN	0.120	5.707	-5.728	1509.890	1499.634	1498.901	-1.130	-0.061	-1.053	-2.373	4.134	-8.038
101941.315	NaN	0.130	5.717	-5.717	1509.158	1500.366	1498.168	-0.870	0.061	-1.130	-2.220	4.211	-8.191
101942.291	NaN	0.130	5.728	-5.717	1509.890	1502.564	1498.901	-0.977	0.214	-1.115	-2.220	4.211	-8.115
101943.268	NaN	0.130	5.717	-5.707	1510.623	1501.832	1499.634	-0.992	0.168	-1.191	-2.297	4.364	-8.191
101944.244	NaN	0.130	5.717	-5.717	1509.158	1501.832	1497.436	-0.992	0.214	-1.344	-2.220	4.211	-8.268
101945.221	NaN	0.141	5.717	-5.728	1510.623	1501.832	1497.436	-1.206	0.229	-1.191	-2.144	4.211	-8.191
101946.198	NaN	0.130	5.696	-5.739	1509.158	1501.832	1500.366	-1.115	0.366	-1.282	-2.297	4.287	-8.268
101947.174	NaN	0.130	5.696	-5.728	1510.623	1502.564	1498.168	-1.130	0.305	-1.313	-2.220	4.211	-8.191
101948.151	NaN	0.130	5.696	-5.728	1509.890	1501.099	1498.901	-0.962	0.244	-1.206	-2.373	4.134	-8.115
101949.127	NaN	0.130	5.685	-5.739	1509.158	1501.099	1498.901	-1.084	0.122	-1.206	-2.220	4.134	-8.421
101950.104	NaN	0.120	5.674	-5.739	1509.890	1500.366	1498.901	-1.069	-0.061	-1.389	-2.144	4.287	-8.115
101951.080	NaN	0.120	5.696	-5.728	1509.158	1501.099	1496.703	-0.916	0.137	-1.389	-2.220	4.211	-8.115
101952.057	NaN	0.130	5.696	-5.717	1511.355	1501.099	1498.901	-0.809	0.092	-1.237	-2.297	4.211	-8.115
101953.033	NaN	0.109	5.696	-5.728	1509.890	1501.832	1498.901	-0.840	0.061	-1.084	-2.144	4.364	-8.115
101954.010	NaN	0.130	5.717	-5.717	1509.890	1501.832	1499.634	-0.931	0.198	-1.069	-2.297	4.211	-8.115
101954.987	NaN	0.120	5.717	-5.728	1510.623	1501.099	1497.436	-1.084	0.321	-1.038	-2.144	4.287	-8.268
101955.963	NaN	0.130	5.728	-5.750	1509.890	1501.099	1498.168	-1.160	0.351	-1.130	-2.144	4.211	-8.115
101956.940	NaN	0.130	5.728	-5.728	1509.158	1501.832	1498.168	-1.084	0.229	-1.069	-2.220	4.287	-8.191
101957.916	NaN	0.120	5.707	-5.739	1509.890	1501.832	1498.901	-0.977	0.198	-1.038	-2.297	4.211	-8.115
101958.893	NaN	0.109	5.707	-5.750	1509.158	1501.099	1498.901	-0.916	0.183	-1.023	-2.220	4.134	-8.268
101959.869	NaN	0.120	5.696	-5.739	1510.623	1501.832	1498.168	-0.992	0.122	-1.069	-2.220	4.134	-8.191
101960.846	NaN	0.120	5.707	-5.728	1509.158	1501.099	1498.901	-1.084	0.061	-1.160	-2.373	4.134	-8.191
101961.823	NaN	0.130	5.707	-5.717	1508.425	1501.099	1499.634	-1.267	0.137	-1.084	-2.220	4.134	-8.038
101962.799	NaN	0.141	5.707	-5.717	1510.623	1501.832	1498.168	-1.115	0.290	-1.115	-2.220	4.211	-8.115
101963.776	NaN	0.120	5.696	-5.728	1509.890	1502.564	1498.168	-1.023	0.275	-1.298	-2.220	4.211	-8.268
101964.752	NaN	0.109	5.707	-5.728	1510.623	1501.832	1498.901	-1.038	0.198	-1.252	-2.297	4.134	-8.115
101965.729	NaN	0.098	5.696	-5.739	1509.890	1501.832	1498.901	-0.977	0.214	-1.023	-2.373	4.057	-8.038
101966.705	NaN	0.109	5.707	-5.717	1509.890	1501.832	1498.901	-1.038	0.290	-1.084	-2.144	4.134	-8.191
101967.682	3736848035.773	0.109	5.696	-5.717	1509.890	1501.832	1498.168	-1.069	0.015	-1.313	-2.067	4.211	-8.115
101968.658	NaN	0.109	5.685	-5.728	1509.158	1501.099	1497.436	-1.160	0.076	-1.130	-2.220	4.211	-8.191
101969.635	NaN	0.120	5.685	-5.707	1510.623	1501.832	1500.366	-0.992	0.061	-0.931	-2.297	4.134	-8.191
101970.612	NaN	0.109	5.696	-5.717	1509.158	1501.832	1498.901	-0.977	0.244	-0.962	-2.220	4.287	-7.962
101971.588	NaN	0.130	5.707	-5.717	1509.158	1501.832	1498.901	-1.008	0.260	-1.191	-2.144	4.057	-8.191
101972.565	NaN	0.130	5.707	-5.707	1509.158	1501.832	1498.168	-1.053	0.321	-1.160	-2.297	4.287	-8.191
101973.541	NaN	0.120	5.707	-5.707	1509.890	1500.366	1498.901	-0.992	0.427	-1.053	-2.144	4.287	-8.038
101974.518	NaN	0.141	5.728	-5.707	1509.890	1500.366	1498.901	-0.947	0.229	-1.145	-2.220	4.134	-8.268
101975.494	NaN	0.130	5.707	-5.717	1509.158	1501.832	1498.168	-1.023	-0.107	-1.099	-2.297	4.211	-8.268
101976.471	NaN	0.130	5.707	-5.717	1509.158	1501.099	1497.436	-1.160	0.076	-1.176	-2.297	4.211	-8.115
101977.448	NaN	0.130	5.717	-5.717	1509.158	1500.366	1498.168	-1.267	0.153	-1.191	-2.220	4.287	-8.115
101978.424	NaN	0.130	5.717	-5.707	1509.158	1501.832	1498.901	-1.053	0.305	-1.267	-2.144	4.211	-8.115
101979.401	NaN	0.120	5.717	-5.717	1509.890	1501.832	1498.901	-0.962	0.321	-1.176	-2.144	4.211	-8.191
101980.377	NaN	0.120	5.728	-5.728	1509.890	1501.099	1498.168	-1.038	0.290	-1.176	-2.220	4.287	-8.038
101981.354	NaN	0.130	5.707	-5.728	1509.158	1501.099	1498.901	-1.344	0.214	-1.191	-2.297	4.287	-8.191
101982.330	NaN	0.130	5.707	-5.728	1510.623	1501.832	1498.168	-1.176	0.183	-1.206	-2.220	4.211	-8.344
101983.307	NaN	0.141	5.717	-5.707	1509.890	1501.099	1499.634	-1.008	0.214	-1.267	-2.067	4.287	-8.268
101984.283	NaN	0.130	5.707	-5.707	1509.890	1501.832	1498.901	-1.084	0.183	-1.313	-2.297	4.211	-8.115
101985.260	NaN	0.130	5.696	-5.696	1509.890	1501.099	1497.436	-1.084	0.122	-1.344	-2.297	4.364	-8.038
101986.237	NaN	0.141	5.696	-5.685	1509.890	1501.099	1497.436	-1.099	0.168	-1.191	-2.220	4.134	-8.038
101987.213	NaN	0.130	5.696	-5.707	1511.355	1501.832	1498.901	-1.145	0.321	-0.901	-2.220	4.211	-8.191
101988.190	NaN	0.130	5.707	-5.707	1509.890	1502.564	1499.634	-0.931	0.275	-0.947	-2.144	4.057	-8.115
101989.166	NaN	0.130	5.707	-5.717	1509.890	1501.099	1498.168	-1.008	0.122	-1.191	-2.220	4.134	-8.115
101990.143	NaN	0.130	5.707	-5.717	1509.890	1501.099	1498.168	-1.053	0.076	-1.405	-2.373	4.287	-8.268
101991.119	NaN	0.120	5.717	-5.728	1509.890	1501.099	1498.901	-1.160	0.015	-1.328	-2.297	4.134	-8.191
101992.096	NaN	0.120	5.707	-5.728	1509.890	1501.832	1499.634	-1.160	0.015	-1.267	-2.297	4.287	-8.191
101993.073	NaN	0.130	5.717	-5.728	1510.623	1501.099	1499.634	-1.069	0.061	-1.298	-2.450	4.211	-8.038
101994.049	NaN	0.130	5.707	-5.728	1509.890	1501.099	1498.901	-0.809	0.244	-1.221	-2.297	4.211	-8.268
101995.026	NaN	0.130	5.696	-5.728	1508.425	1501.099	1497.436	-0.763	0.137	-1.374	-2.144	4.287	-8.191
101996.002	NaN	0.120	5.696	-5.728	1509.890	1501.832	1498.901	-0.855	0.244	-1.252	-2.297	4.287	-8.115
101996.979	NaN	0.120	5.696	-5.717	1510.623	1502.564	1499.634	-0.947	0.260	-1.130	-2.220	4.287	-8.191
101997.955	NaN	0.120	5.707	-5.707	1509.890	1501.832	1498.901	-0.931	0.244	-1.221	-2.220	4.211	-8.191
101998.932	NaN	0.120	5.707	-5.717	1509.890	1501.099	1498.901	-1.206	0.229	-1.313	-2.220	4.134	-8.115
101999.908	NaN	0.120	5.707	-5.717	1510.623	1501.099	1498.168	-1.252	0.214	-1.069	-2.144	4.287	-8.191
102000.885	NaN	0.120	5.707	-5.728	1509.890	1500.366	1498.901	-1.359	0.336	-0.992	-2.373	4.211	-8.268
102001.862	NaN	0.120	5.717	-5.717	1509.890	1502.564	1498.901	-1.374	0.397	-0.962	-2.373	4.057	-8.115
102002.838	NaN	0.120	5.707	-5.717	1509.890	1501.832	1498.901	-1.237	0.336	-1.176	-2.220	4.134	-8.115
102003.815	NaN	0.120	5.707	-5.707	1509.890	1500.366	1498.168	-1.084	0.198	-1.267	-2.067	4.287	-8.191
102004.791	NaN	0.130	5.717	-5.707	1509.890	1501.832	1498.901	-1.206	0.137	-1.298	-2.373	4.211	-8.191
102005.768	NaN	0.130	5.707	-5.707	1509.158	1501.099	1498.168	-1.160	-0.061	-1.221	-2.297	4.211	-8.268
102006.744	NaN	0.130	5.707	-5.717	1511.355	1501.832	1498.901	-1.252	0.031	-1.069	-2.373	4.211	-8.191
102007.721	NaN	0.120	5.696	-5.707	1509.158	1500.366	1498.901	-1.053	0.305	-1.038	-2.373	4.211	-8.191
102008.698	NaN	0.130	5.696	-5.707	1509.158	1501.099	1497.436	-0.916	0.366	-0.901	-2.144	4.211	-8.115
102009.674	NaN	0.130	5.707	-5.707	1511.355	1501.832	1498.901	-0.947	0.183	-1.008	-2.373	4.057	-8.191
102010.651	NaN	0.120	5.707	-5.707	1510.623	1501.099	1497.436	-0.947	0.168	-1.252	-2.144	4.211	-8.191
102011.627	NaN	0.130	5.707	-5.707	1510.623	1501.832	1500.366	-0.855	0.137	-1.282	-2.297	4.211	-8.268
102012.604	NaN	0.130	5.696	-5.707	1509.890	1500.366	1498.168	-0.977	0.229	-1.160	-2.220	4.287	-8.115
102013.580	NaN	0.120	5.696	-5.707	1509.890	1501.832	1497.436	-1.160	0.260	-1.069	-2.220	4.211	-8.268
102014.557	NaN	0.130	5.696	-5.696	1510.623	1501.832	1500.366	-1.053	0.107	-0.977	-2.220	4.211	-8.038
102015.533	NaN	0.141	5.707	-5.707	1509.158	1501.832	1498.901	-0.840	0.137	-1.069	-2.144	3.981	-8.191
102016.510	NaN	0.152	5.707	-5.707	1509.890	1501.099	1498.901	-0.702	0.214	-1.130	-2.220	4.134	-8.268
102017.487	NaN	0.141	5.707	-5.707	1509.890	1501.099	1499.634	-1.023	0.229	-1.313	-2.220	4.211	-8.191
102018.463	NaN	0.130	5.717	-5.717	1509.890	1502.564	1498.901	-1.099	0.031	-1.221	-2.220	4.287	-8.038
102019.440	NaN	0.130	5.707	-5.717	1509.158	1501.832	1499.634	-1.023	-0.076	-1.160	-2.220	4.134	-8.344
102020.416	NaN	0.141	5.707	-5.717	1509.158	1501.832	1498.901	-0.779	0.000	-1.267	-2.144	4.211	-8.115
102021.393	NaN	0.141	5.696	-5.717	1509.890	1500.366	1499.634	-0.702	0.198	-1.176	-2.144	4.134	-8.115
102022.369	NaN	0.130	5.685	-5.728	1509.890	1501.099	1498.168	-0.885	0.260	-1.084	-2.220	4.057	-8.268
102023.346	NaN	0.141	5.696	-5.707	1510.623	1501.099	1500.366	-1.130	0.229	-1.145	-2.220	4.211	-8.268
102024.323	NaN	0.120	5.696	-5.717	1510.623	1501.832	1498.901	-1.344	0.290	-1.160	-2.220	4.134	-8.038
102025.299	NaN	0.141	5.696	-5.696	1510.623	1501.099	1498.901	-1.160	0.229	-1.084	-2.220	4.211	-8.038
102026.276	NaN	0.120	5.696	-5.707	1509.890	1501.832	1497.436	-1.191	0.198	-1.130	-2.220	4.057	-8.191
102027.252	NaN	0.130	5.696	-5.707	1509.890	1501.099	1498.901	-1.008	0.321	-1.023	-2.297	4.211	-8.038
102028.229	NaN	0.130	5.707	-5.717	1509.890	1501.099	1496.703	-0.885	0.336	-1.359	-2.297	4.211	-8.115
102029.205	NaN	0.130	5.707	-5.707	1509.890	1501.099	1498.901	-0.916	0.183	-1.359	-2.144	4.134	-8.191
102030.182	NaN	0.130	5.707	-5.707	1509.890	1501.099	1497.436	-0.794	0.336	-1.130	-2.297	4.057	-8.191
102031.158	NaN	0.120	5.696	-5.728	1509.890	1501.832	1497.436	-0.779	0.275	-1.099	-2.297	4.057	-8.191
102032.135	NaN	0.120	5.707	-5.707	1510.623	1501.832	1499.634	-1.038	0.244	-1.069	-2.220	4.211	-8.268
102033.112	NaN	0.130	5.696	-5.707	1509.890	1501.832	1500.366	-1.145	0.061	-1.069	-2.220	4.287	-8.191
102034.088	NaN	0.141	5.696	-5.717	1509.158	1502.564	1498.901	-1.099	0.092	-1.145	-2.297	4.057	-8.191
102035.065	NaN	0.141	5.685	-5.717	1510.623	1501.099	1499.634	-0.962	0.214	-1.328	-2.220	4.287	-8.191
102036.041	NaN	0.130	5.696	-5.739	1509.890	1501.832	1498.901	-0.885	0.382	-1.328	-2.297	4.211	-8.115
102037.018	NaN	0.141	5.696	-5.728	1509.890	1501.832	1499.634	-1.206	0.290	-1.206	-2.297	4.134	-8.268
102037.994	NaN	0.141	5.707	-5.728	1509.890	1501.832	1498.168	-1.176	0.168	-1.084	-2.297	4.134	-8.191
102040.924	NaN	0.130	5.685	-5.750	1508.425	1501.832	1497.436	-1.069	0.321	-1.160	-2.297	4.287	-8.268
102041.901	NaN	0.130	5.685	-5.717	1509.890	1501.099	1498.901	-1.053	0.198	-1.191	-2.220	4.134	-8.191
102042.877	NaN	0.130	5.685	-5.728	1509.890	1501.832	1497.436	-0.947	0.153	-1.145	-2.220	4.211	-8.191
102043.854	NaN	0.120	5.685	-5.717	1509.158	1501.099	1496.703	-0.763	0.061	-1.221	-2.220	4.134	-8.191
102044.830	NaN	0.120	5.685	-5.707	1509.158	1501.099	1498.168	-0.901	0.046	-1.084	-2.297	4.134	-8.191
102045.807	NaN	0.120	5.696	-5.728	1509.158	1501.832	1498.168	-0.840	0.168	-1.008	-2.220	4.287	-8.191
102046.783	NaN	0.120	5.696	-5.728	1507.692	1501.099	1497.436	-1.084	0.305	-1.160	-2.373	4.211	-8.115
102047.760	NaN	0.130	5.707	-5.728	1509.158	1501.832	1499.634	-1.069	0.336	-1.206	-2.144	4.211	-8.191
102048.737	NaN	0.120	5.707	-5.717	1509.158	1501.099	1498.168	-0.885	0.214	-1.313	-2.297	4.134	-8.268
102049.713	NaN	0.130	5.707	-5.728	1509.158	1501.832	1498.168	-0.901	0.122	-1.191	-2.144	4.134	-8.268
102050.690	NaN	0.141	5.707	-5.728	1509.890	1501.832	1498.901	-0.870	0.061	-1.038	-2.297	4.211	-8.268
102051.666	NaN	0.141	5.707	-5.728	1510.623	1501.832	1498.168	-1.023	0.183	-1.115	-2.297	4.134	-8.038
102052.643	NaN	0.141	5.696	-5.728	1509.158	1501.832	1498.901	-0.962	0.168	-1.099	-2.144	4.134	-8.115
102053.619	NaN	0.130	5.696	-5.717	1509.890	1500.366	1497.436	-0.718	0.153	-1.176	-2.220	4.211	-8.268
102054.596	NaN	0.141	5.707	-5.707	1509.890	1501.099	1498.901	-0.702	0.397	-1.130	-2.220	4.134	-8.191
102055.573	NaN	0.141	5.707	-5.707	1510.623	1501.099	1498.901	-0.809	0.427	-1.115	-2.297	4.211	-8.191
102056.549	NaN	0.141	5.707	-5.717	1509.890	1501.832	1498.901	-1.099	0.397	-1.359	-2.220	4.211	-8.268
102057.526	NaN	0.130	5.707	-5.728	1509.890	1501.099	1498.168	-1.176	0.351	-1.542	-2.144	4.287	-8.115
102058.502	NaN	0.130	5.707	-5.717	1510.623	1501.832	1498.901	-1.206	0.397	-1.282	-2.220	4.057	-8.191
102059.479	NaN	0.109	5.707	-5.717	1509.890	1501.832	1498.901	-1.099	0.122	-0.962	-2.297	4.211	-8.191
102060.455	NaN	0.109	5.717	-5.707	1509.890	1501.832	1497.436	-0.855	-0.122	-1.099	-2.144	4.287	-8.191
102061.432	NaN	0.109	5.707	-5.707	1509.890	1501.832	1498.901	-1.008	0.061	-1.191	-2.373	4.287	-8.038
102062.408	NaN	0.098	5.696	-5.717	1509.890	1501.832	1498.168	-1.069	0.107	-1.115	-2.220	4.134	-8.191
102063.385	NaN	0.098	5.696	-5.717	1509.158	1501.099	1496.703	-1.130	0.305	-1.038	-2.220	4.134	-8.268
102064.362	NaN	0.120	5.707	-5.717	1509.158	1502.564	1498.901	-1.053	0.351	-1.053	-2.297	4.287	-8.115
102065.338	NaN	0.120	5.696	-5.717	1510.623	1501.832	1497.436	-0.931	0.336	-1.176	-2.297	4.211	-8.191
102066.315	NaN	0.130	5.696	-5.717	1508.425	1501.832	1500.366	-0.962	0.122	-1.252	-2.297	4.211	-8.038
102067.291	NaN	0.130	5.717	-5.728	1510.623	1502.564	1498.901	-0.962	-0.046	-1.328	-2.144	4.057	-8.191
102068.268	NaN	0.130	5.707	-5.728	1509.890	1501.099	1497.436	-1.160	0.092	-1.252	-2.144	4.134	-8.038
102069.244	NaN	0.130	5.707	-5.717	1508.425	1501.099	1497.436	-1.237	0.244	-1.099	-2.297	4.287	-8.344
102070.221	NaN	0.130	5.707	-5.717	1509.890	1501.832	1500.366	-1.038	0.168	-1.084	-2.144	4.287	-8.115
102071.198	NaN	0.120	5.696	-5.739	1510.623	1500.366	1498.901	-1.023	0.214	-1.176	-2.220	4.134	-8.191
102072.174	NaN	0.120	5.685	-5.717	1510.623	1501.832	1500.366	-1.023	0.214	-1.221	-2.144	4.134	-8.268
102073.151	NaN	0.141	5.685	-5.717	1510.623	1501.832	1498.901	-1.191	0.260	-1.130	-2.220	4.134	-8.191
102074.127	NaN	0.141	5.696	-5.728	1509.158	1501.832	1497.436	-1.313	0.183	-1.023	-2.144	4.287	-8.191
102075.104	NaN	0.130	5.696	-5.728	1509.158	1501.832	1498.901	-1.160	0.275	-1.145	-2.297	4.287	-8.191
102076.080	NaN	0.130	5.707	-5.728	1509.890	1501.832	1498.168	-1.084	0.321	-1.237	-2.220	4.134	-8.268
102077.057	NaN	0.130	5.707	-5.717	1510.623	1501.832	1497.436	-0.977	0.275	-1.099	-2.297	4.211	-8.038
102078.033	NaN	0.120	5.696	-5.728	1509.158	1501.832	1500.366	-0.977	0.275	-1.130	-2.067	4.057	-8.268
102079.010	NaN	0.120	5.696	-5.728	1509.158	1501.832	1496.703	-0.962	0.153	-1.160	-2.373	4.287	-8.268
102079.987	NaN	0.130	5.707	-5.728	1509.890	1501.099	1496.703	-0.870	0.244	-1.237	-2.220	4.211	-8.191
102080.963	NaN	0.130	5.707	-5.717	1510.623	1502.564	1498.901	-0.977	0.305	-1.038	-2.144	4.287	-8.191
102081.940	NaN	0.130	5.707	-5.707	1509.158	1501.832	1497.436	-1.130	0.305	-1.084	-2.297	4.211	-8.191
102082.916	NaN	0.141	5.717	-5.696	1509.158	1501.832	1498.901	-1.008	0.031	-1.023	-2.144	4.211	-8.268
102083.893	NaN	0.130	5.707	-5.707	1509.158	1501.832	1498.168	-1.053	0.107	-1.099	-2.373	4.211	-8.038
102084.869	NaN	0.120	5.707	-5.717	1509.890	1501.832	1498.168	-0.885	0.443	-1.099	-2.297	4.134	-8.191
102085.846	NaN	0.120	5.707	-5.707	1506.227	1501.832	1498.901	-1.053	0.382	-1.053	-2.297	4.287	-8.268
102086.823	NaN	0.120	5.717	-5.717	1508.425	1501.099	1499.634	-1.282	0.397	-1.023	-2.297	4.211	-8.038
102087.799	NaN	0.120	5.728	-5.707	1509.158	1502.564	1498.901	-1.313	0.473	-1.038	-2.297	4.134	-8.268
102088.776	NaN	0.120	5.707	-5.717	1509.890	1501.832	1498.168	-1.237	0.382	-1.206	-2.220	4.211	-8.268
102089.752	NaN	0.120	5.707	-5.717	1509.890	1501.832	1498.901	-1.160	0.214	-1.359	-2.297	4.134	-8.115
102090.729	NaN	0.120	5.707	-5.707	1510.623	1502.564	1500.366	-0.840	0.290	-1.374	-2.297	4.211	-8.115
102091.705	NaN	0.120	5.707	-5.696	1509.890	1501.832	1498.901	-0.916	0.183	-1.145	-2.220	4.287	-8.268
102092.682	NaN	0.130	5.707	-5.707	1509.890	1501.832	1498.168	-1.130	0.153	-1.221	-2.297	4.287	-8.191
102093.658	NaN	0.120	5.696	-5.728	1509.158	1501.099	1498.168	-1.420	0.137	-1.099	-2.220	4.211	-8.191
102094.635	NaN	0.120	5.696	-5.717	1507.692	1501.832	1497.436	-1.466	0.031	-0.992	-2.144	4.134	-8.191
102095.612	NaN	0.130	5.707	-5.707	1509.890	1501.099	1498.901	-1.389	0.092	-1.252	-2.220	4.211	-8.115
102096.588	NaN	0.130	5.707	-5.728	1509.158	1501.099	1498.168	-1.206	0.153	-1.237	-2.220	4.287	-8.268
102097.565	NaN	0.141	5.696	-5.728	1509.890	1500.366	1497.436	-0.916	0.229	-1.237	-2.144	4.211	-8.268
102098.541	NaN	0.130	5.707	-5.717	1510.623	1501.832	1498.168	-0.855	0.321	-1.206	-2.297	4.057	-8.191
102099.518	NaN	0.141	5.696	-5.707	1509.890	1502.564	1500.366	-0.794	0.321	-1.191	-2.220	4.134	-8.115
102100.494	NaN	0.141	5.696	-5.717	1510.623	1501.832	1497.436	-1.053	0.366	-1.298	-2.297	4.134	-8.191
102101.471	NaN	0.152	5.707	-5.696	1509.890	1501.832	1498.901	-1.038	0.061	-1.267	-2.297	4.211	-8.115
102102.448	NaN	0.141	5.707	-5.707	1510.623	1501.099	1498.901	-1.130	0.183	-1.221	-2.220	4.211	-8.191
102103.424	NaN	0.130	5.717	-5.707	1509.890	1502.564	1499.634	-1.099	0.275	-1.130	-2.067	4.211	-8.268
102104.401	NaN	0.141	5.728	-5.696	1509.890	1501.099	1498.901	-1.053	0.198	-1.176	-2.144	4.211	-8.191
102105.377	NaN	0.141	5.728	-5.696	1509.158	1501.832	1498.168	-1.099	0.305	-1.130	-2.220	4.211	-8.191
102106.354	NaN	0.130	5.717	-5.707	1509.158	1500.366	1498.168	-1.084	0.183	-1.313	-2.220	4.287	-8.191
102107.330	NaN	0.130	5.728	-5.707	1509.890	1501.832	1498.168	-1.221	0.168	-1.252	-2.220	4.134	-8.038
102108.307	NaN	0.141	5.728	-5.707	1510.623	1501.099	1501.099	-0.916	0.153	-1.313	-2.144	4.211	-8.115
102109.283	NaN	0.130	5.728	-5.707	1510.623	1501.832	1499.634	-0.901	-0.015	-1.282	-2.297	4.211	-8.191
102110.260	NaN	0.130	5.707	-5.717	1509.890	1502.564	1497.436	-0.916	0.061	-1.237	-2.297	4.211	-8.115
102111.237	NaN	0.130	5.707	-5.707	1509.890	1501.832	1498.168	-0.901	0.122	-1.252	-2.220	4.134	-8.038
102112.213	NaN	0.130	5.717	-5.707	1510.623	1501.832	1499.634	-0.947	0.351	-1.115	-2.220	4.287	-8.115
102113.190	NaN	0.130	5.707	-5.707	1509.890	1501.832	1498.901	-1.130	0.473	-0.977	-2.220	4.287	-8.268
102114.166	NaN	0.141	5.707	-5.707	1509.890	1501.099	1498.901	-1.115	0.366	-0.947	-2.297	4.211	-8.115
102115.143	NaN	0.130	5.696	-5.717	1509.890	1501.832	1498.168	-1.176	0.382	-1.115	-2.220	4.134	-8.115
102116.119	NaN	0.130	5.685	-5.717	1509.890	1502.564	1497.436	-1.130	0.321	-1.008	-2.067	4.134	-8.115
102117.096	NaN	0.141	5.707	-5.707	1509.890	1502.564	1498.901	-1.084	0.214	-1.282	-2.220	4.211	-8.268
102118.073	NaN	0.130	5.707	-5.717	1509.890	1501.099	1498.168	-1.206	0.366	-1.359	-2.297	4.287	-8.268
102119.049	NaN	0.141	5.707	-5.728	1509.890	1500.366	1498.901	-1.206	0.397	-1.221	-2.373	4.211	-8.268
102120.026	NaN	0.141	5.707	-5.717	1509.158	1502.564	1498.901	-0.977	0.351	-1.160	-2.297	4.134	-8.038
102121.002	NaN	0.141	5.707	-5.728	1509.890	1502.564	1497.436	-0.748	0.366	-1.298	-2.144	4.364	-8.191
102121.979	NaN	0.141	5.707	-5.717	1510.623	1501.099	1498.168	-0.763	0.168	-1.084	-2.144	4.211	-8.344
102122.955	NaN	0.130	5.696	-5.717	1509.158	1501.832	1498.168	-0.840	0.107	-1.053	-2.297	4.134	-8.115
102123.932	NaN	0.120	5.707	-5.728	1509.890	1501.099	1498.168	-1.145	0.244	-1.115	-2.297	4.287	-8.191
102124.908	NaN	0.109	5.707	-5.717	1509.890	1501.832	1499.634	-1.206	0.351	-1.466	-2.297	4.211	-8.268
102132.721	NaN	0.120	5.707	-5.728	1509.158	1501.099	1498.901	-1.069	0.275	-0.992	-2.297	4.211	-8.191
102133.698	NaN	0.120	5.707	-5.728	1509.158	1501.099	1498.901	-0.992	0.198	-0.916	-2.297	4.134	-8.115
102134.674	NaN	0.130	5.717	-5.717	1510.623	1502.564	1499.634	-0.870	0.076	-1.160	-2.297	4.287	-8.191
102135.651	NaN	0.141	5.717	-5.717	1509.890	1501.832	1498.168	-0.779	0.198	-1.267	-2.220	4.211	-8.268
102136.627	NaN	0.120	5.707	-5.717	1509.890	1501.099	1498.901	-0.947	0.275	-1.191	-2.297	4.211	-8.191
102137.604	NaN	0.130	5.707	-5.739	1509.158	1501.832	1498.901	-0.809	0.366	-1.069	-2.220	4.364	-8.191
102138.580	NaN	0.130	5.707	-5.728	1509.890	1500.366	1498.168	-0.794	0.443	-0.962	-2.144	4.211	-8.191
102139.557	NaN	0.130	5.717	-5.728	1509.158	1501.832	1499.634	-0.962	0.443	-0.977	-2.144	4.287	-8.344
102140.533	NaN	0.130	5.717	-5.728	1510.623	1501.832	1497.436	-1.145	0.366	-1.084	-2.144	4.211	-8.038
102141.510	NaN	0.130	5.707	-5.728	1509.890	1501.832	1498.901	-1.252	0.168	-1.145	-2.220	4.211	-8.191
102142.487	NaN	0.130	5.696	-5.728	1509.890	1501.832	1498.901	-0.992	0.153	-1.053	-2.144	4.287	-8.191
102143.463	NaN	0.141	5.717	-5.728	1510.623	1501.832	1500.366	-1.008	0.183	-1.145	-2.220	4.134	-8.191
102144.440	NaN	0.141	5.707	-5.728	1509.890	1501.832	1499.634	-0.824	0.000	-1.130	-2.220	4.211	-8.191
102145.416	NaN	0.130	5.717	-5.717	1509.890	1501.099	1498.901	-0.947	0.092	-1.145	-2.220	4.211	-8.191
102146.393	NaN	0.141	5.707	-5.717	1510.623	1501.099	1498.901	-1.038	0.046	-1.176	-2.220	3.981	-8.191
102147.369	NaN	0.141	5.707	-5.728	1510.623	1501.832	1498.901	-1.038	0.122	-1.344	-2.373	4.134	-8.191
102148.346	NaN	0.141	5.707	-5.717	1510.623	1502.564	1498.901	-1.023	0.275	-1.389	-2.220	4.211	-8.191
102149.323	NaN	0.141	5.707	-5.739	1510.623	1501.832	1497.436	-1.160	0.321	-1.221	-2.297	4.211	-8.115
102150.299	NaN	0.141	5.707	-5.739	1509.158	1500.366	1496.703	-1.115	0.214	-1.038	-2.220	4.211	-8.038
102151.276	NaN	0.141	5.707	-5.728	1509.890	1501.832	1498.168	-1.053	0.305	-0.931	-2.297	4.287	-8.191
102152.252	NaN	0.130	5.707	-5.739	1509.890	1502.564	1498.901	-1.053	0.275	-1.099	-2.220	4.211	-8.268
102153.229	NaN	0.141	5.707	-5.728	1510.623	1501.832	1498.168	-1.084	0.137	-1.313	-2.220	4.211	-8.268
102154.205	NaN	0.130	5.707	-5.717	1509.158	1501.832	1498.901	-1.038	0.168	-1.481	-2.144	4.134	-8.268
102155.182	NaN	0.130	5.707	-5.728	1509.890	1501.099	1498.901	-0.916	0.260	-1.405	-2.220	4.287	-8.038
102156.158	NaN	0.130	5.696	-5.739	1509.890	1501.832	1498.901	-0.779	0.198	-1.359	-2.220	4.134	-8.191
102157.135	NaN	0.130	5.707	-5.728	1510.623	1501.099	1499.634	-0.916	0.198	-1.084	-2.220	4.211	-8.191
102158.112	NaN	0.130	5.696	-5.739	1510.623	1501.099	1498.901	-1.053	0.198	-0.992	-2.067	4.057	-8.191
102159.088	NaN	0.130	5.707	-5.750	1509.158	1501.832	1498.901	-1.160	0.229	-1.206	-2.297	4.134	-8.268
102160.065	NaN	0.120	5.707	-5.739	1509.890	1501.099	1498.168	-0.901	0.137	-1.405	-2.144	4.134	-8.268
102161.041	NaN	0.109	5.707	-5.739	1510.623	1501.832	1498.901	-0.901	0.122	-1.206	-2.220	4.287	-8.191
102162.018	NaN	0.109	5.707	-5.739	1509.890	1501.832	1498.901	-1.069	0.321	-1.099	-2.297	4.287	-8.191
102162.994	NaN	0.109	5.707	-5.739	1510.623	1501.832	1498.901	-1.053	0.275	-1.023	-2.220	4.134	-8.191
102163.971	NaN	0.109	5.707	-5.739	1509.890	1501.099	1498.168	-1.008	0.092	-0.947	-2.297	4.211	-8.191
102164.948	NaN	0.120	5.696	-5.739	1509.890	1501.832	1499.634	-0.992	0.214	-0.962	-2.297	4.211	-8.115
102165.924	3736848035.940	0.130	5.707	-5.717	1510.623	1501.832	1499.634	-1.099	0.229	-1.069	-2.144	4.134	-8.191
241095.612	NaN	-3.207	1.250	9.413	1506.227	1504.029	1509.158	-3.221	-1.023	2.611	-5.895	-0.536	8.421
241096.588	NaN	-3.185	1.261	9.424	1505.495	1504.029	1510.623	-3.176	-0.870	2.702	-5.818	-0.536	8.344
241097.565	NaN	-3.185	1.250	9.413	1506.227	1504.029	1510.623	-2.962	-0.809	2.779	-5.818	-0.689	8.498
241098.541	NaN	-3.196	1.250	9.413	1505.495	1504.029	1510.623	-2.779	-0.885	2.763	-5.818	-0.612	8.421
241099.518	NaN	-3.196	1.239	9.402	1505.495	1503.297	1509.890	-2.794	-1.038	2.702	-5.895	-0.612	8.344
241100.494	NaN	-3.185	1.250	9.391	1505.495	1505.495	1509.890	-2.763	-1.069	2.626	-5.895	-0.612	8.498
241101.471	NaN	-3.207	1.250	9.402	1506.227	1504.029	1509.890	-2.794	-0.947	2.641	-5.742	-0.612	8.344
241102.448	NaN	-3.207	1.228	9.413	1505.495	1504.029	1510.623	-2.855	-0.962	2.656	-5.971	-0.612	8.498
241103.424	NaN	-3.207	1.228	9.413	1504.762	1503.297	1511.355	-3.130	-1.038	2.550	-5.971	-0.536	8.421
241104.401	NaN	-3.217	1.239	9.413	1505.495	1504.762	1508.425	-3.115	-1.130	2.641	-5.818	-0.689	8.344
241105.377	NaN	-3.207	1.239	9.413	1505.495	1504.029	1510.623	-2.916	-1.099	2.763	-5.895	-0.536	8.344
241106.354	NaN	-3.207	1.239	9.424	1505.495	1504.029	1509.890	-2.931	-0.931	2.718	-5.971	-0.689	8.268
241107.330	NaN	-3.207	1.250	9.424	1504.762	1504.029	1511.355	-2.977	-0.763	2.550	-6.048	-0.536	8.421
241108.307	NaN	-3.207	1.250	9.424	1504.762	1504.029	1509.158	-3.038	-0.824	2.626	-5.971	-0.689	8.344
241109.283	NaN	-3.196	1.250	9.435	1506.227	1504.029	1510.623	-2.962	-0.992	2.702	-5.818	-0.689	8.268
241110.260	NaN	-3.196	1.239	9.435	1505.495	1504.029	1511.355	-2.824	-1.221	2.733	-6.048	-0.536	8.268
241111.237	NaN	-3.207	1.239	9.435	1506.227	1503.297	1512.088	-3.038	-1.084	2.626	-5.818	-0.536	8.344
241112.213	NaN	-3.196	1.239	9.435	1505.495	1504.029	1511.355	-3.069	-0.718	2.565	-5.742	-0.766	8.268
241113.190	NaN	-3.196	1.228	9.424	1506.227	1504.029	1509.890	-3.115	-0.718	2.473	-5.818	-0.536	8.191
241114.166	NaN	-3.196	1.228	9.424	1504.762	1504.029	1510.623	-2.931	-0.809	2.397	-5.895	-0.612	8.498
241115.143	NaN	-3.207	1.228	9.424	1504.762	1503.297	1508.425	-2.809	-1.115	2.611	-5.895	-0.766	8.344
241116.119	NaN	-3.196	1.239	9.424	1504.029	1503.297	1512.088	-2.885	-1.145	2.641	-5.971	-0.536	8.268
241117.096	NaN	-3.185	1.239	9.435	1505.495	1503.297	1509.890	-3.160	-1.008	2.519	-5.971	-0.689	8.421
241118.073	NaN	-3.174	1.239	9.424	1506.227	1504.029	1510.623	-3.176	-0.916	2.519	-5.818	-0.689	8.344
241119.049	NaN	-3.174	1.239	9.424	1505.495	1504.762	1509.890	-2.901	-0.901	2.611	-5.971	-0.689	8.421
241120.026	NaN	-3.185	1.239	9.413	1506.227	1503.297	1509.890	-2.931	-0.809	2.565	-5.971	-0.612	8.344
241121.002	NaN	-3.185	1.239	9.413	1505.495	1503.297	1511.355	-3.145	-0.870	2.672	-5.818	-0.612	8.191
241121.979	NaN	-3.196	1.239	9.402	1504.762	1504.029	1509.158	-3.130	-1.053	2.672	-5.895	-0.536	8.344
241122.955	NaN	-3.196	1.239	9.402	1503.297	1503.297	1509.158	-2.794	-1.008	2.626	-5.971	-0.536	8.344
241123.932	NaN	-3.196	1.250	9.402	1506.227	1503.297	1510.623	-2.947	-1.115	2.840	-5.895	-0.689	8.421
241124.908	NaN	-3.185	1.250	9.424	1504.762	1504.029	1509.890	-2.992	-1.115	2.763	-5.818	-0.766	8.344
241125.885	NaN	-3.196	1.239	9.435	1504.762	1504.029	1509.158	-3.206	-1.069	2.641	-5.895	-0.612	8.421
241126.862	NaN	-3.185	1.250	9.424	1504.762	1504.762	1510.623	-2.977	-0.962	2.550	-5.895	-0.612	8.344
241127.838	NaN	-3.185	1.250	9.424	1505.495	1504.029	1511.355	-2.885	-1.099	2.580	-5.818	-0.536	8.421
241128.815	NaN	-3.196	1.250	9.413	1505.495	1504.029	1509.890	-2.931	-1.115	2.595	-5.895	-0.689	8.421
241129.791	NaN	-3.185	1.250	9.402	1506.227	1504.029	1510.623	-3.130	-1.069	2.473	-5.971	-0.536	8.344
241130.768	NaN	-3.196	1.250	9.391	1504.762	1503.297	1510.623	-3.145	-1.038	2.443	-5.895	-0.612	8.498
241131.744	NaN	-3.196	1.250	9.402	1505.495	1504.762	1509.158	-2.824	-1.023	2.489	-5.818	-0.689	8.344
241132.721	NaN	-3.207	1.239	9.402	1505.495	1504.029	1510.623	-2.733	-0.977	2.748	-5.895	-0.536	8.344
241133.698	NaN	-3.207	1.239	9.402	1505.495	1504.029	1510.623	-2.885	-1.008	2.901	-5.895	-0.536	8.344
241134.674	NaN	-3.196	1.239	9.402	1505.495	1504.762	1509.158	-2.992	-1.023	2.672	-5.971	-0.612	8.421
241135.651	NaN	-3.196	1.239	9.413	1505.495	1504.762	1510.623	-2.931	-0.947	2.489	-5.971	-0.612	8.421
241136.627	NaN	-3.196	1.239	9.424	1505.495	1504.029	1509.890	-3.206	-0.931	2.611	-6.048	-0.612	8.421
241137.604	NaN	-3.196	1.239	9.424	1505.495	1504.762	1510.623	-3.221	-0.931	2.885	-5.895	-0.536	8.344
241138.580	NaN	-3.185	1.239	9.413	1504.762	1503.297	1511.355	-2.794	-0.901	2.992	-5.742	-0.612	8.421
241139.557	NaN	-3.196	1.239	9.413	1504.029	1503.297	1509.890	-2.763	-1.069	2.763	-5.971	-0.612	8.344
241140.533	NaN	-3.185	1.239	9.424	1504.762	1505.495	1511.355	-2.794	-0.947	2.733	-5.895	-0.689	8.344
241141.510	NaN	-3.185	1.239	9.424	1504.762	1504.029	1509.890	-3.130	-0.947	2.809	-5.971	-0.689	8.344
241142.487	NaN	-3.185	1.228	9.424	1504.762	1503.297	1510.623	-3.130	-0.885	2.687	-5.895	-0.536	8.268
241143.463	NaN	-3.185	1.239	9.413	1505.495	1504.029	1510.623	-3.130	-0.855	2.595	-5.818	-0.536	8.268
241144.440	NaN	-3.196	1.239	9.413	1505.495	1503.297	1509.890	-3.069	-0.916	2.595	-5.895	-0.612	8.344
241145.416	NaN	-3.185	1.250	9.413	1505.495	1503.297	1509.890	-3.038	-1.069	2.641	-5.818	-0.689	8.421
241146.393	NaN	-3.185	1.250	9.402	1504.762	1503.297	1509.890	-3.130	-1.145	2.687	-5.895	-0.612	8.421
241147.369	NaN	-3.207	1.250	9.391	1505.495	1503.297	1509.890	-3.176	-1.084	2.580	-5.971	-0.689	8.344
241148.346	NaN	-3.217	1.250	9.413	1506.227	1503.297	1509.890	-3.191	-1.053	2.565	-5.742	-0.536	8.421
241149.323	NaN	-3.207	1.261	9.413	1506.227	1503.297	1510.623	-2.947	-0.885	2.672	-5.895	-0.612	8.344
241150.299	NaN	-3.196	1.250	9.413	1505.495	1504.762	1509.890	-2.779	-0.916	2.656	-5.895	-0.459	8.421
241151.276	NaN	-3.196	1.239	9.413	1505.495	1504.029	1509.890	-2.885	-1.115	2.794	-5.971	-0.536	8.344
241152.252	NaN	-3.207	1.239	9.413	1504.762	1504.029	1510.623	-3.145	-1.069	2.595	-5.895	-0.612	8.421
241153.229	NaN	-3.207	1.228	9.402	1505.495	1504.029	1510.623	-3.282	-0.931	2.504	-5.818	-0.612	8.344
241154.205	NaN	-3.196	1.228	9.402	1504.762	1504.762	1510.623	-3.191	-1.008	2.626	-5.971	-0.536	8.344
241155.182	NaN	-3.207	1.217	9.391	1504.762	1503.297	1509.890	-2.947	-0.916	2.626	-5.818	-0.536	8.268
241156.158	NaN	-3.185	1.228	9.391	1504.762	1504.029	1509.158	-2.901	-0.931	2.824	-6.048	-0.612	8.421
241157.135	NaN	-3.207	1.217	9.402	1505.495	1504.029	1509.158	-2.977	-1.038	2.718	-5.971	-0.612	8.421
241158.112	NaN	-3.196	1.228	9.402	1504.762	1504.029	1509.890	-2.947	-0.992	2.656	-5.895	-0.689	8.421
241159.088	NaN	-3.196	1.239	9.402	1504.762	1504.029	1510.623	-3.008	-1.023	2.718	-5.742	-0.536	8.268
241160.065	NaN	-3.185	1.239	9.402	1505.495	1504.029	1509.158	-3.160	-1.130	2.687	-5.971	-0.766	8.268
241161.041	NaN	-3.185	1.239	9.402	1505.495	1504.029	1510.623	-3.038	-1.176	2.687	-5.818	-0.612	8.344
241162.018	NaN	-3.185	1.239	9.402	1504.762	1503.297	1510.623	-2.809	-1.038	2.992	-5.818	-0.689	8.344
241162.994	NaN	-3.174	1.239	9.413	1505.495	1504.762	1510.623	-2.885	-0.931	2.931	-5.818	-0.612	8.268
241163.971	NaN	-3.174	1.239	9.413	1504.029	1504.029	1509.890	-3.237	-1.053	2.626	-5.742	-0.612	8.421
241164.948	NaN	-3.185	1.239	9.402	1505.495	1502.564	1509.890	-3.298	-0.962	2.489	-5.895	-0.689	8.268
241165.924	NaN	-3.185	1.228	9.402	1504.762	1504.029	1509.890	-3.008	-0.840	2.565	-5.742	-0.612	8.268
241166.901	NaN	-3.185	1.239	9.402	1505.495	1504.029	1510.623	-2.947	-0.977	2.656	-5.818	-0.612	8.268
241167.877	NaN	-3.174	1.239	9.413	1505.495	1504.029	1510.623	-2.916	-1.099	2.641	-5.895	-0.689	8.421
241168.854	NaN	-3.174	1.239	9.413	1505.495	1504.029	1511.355	-2.947	-1.115	2.763	-5.818	-0.612	8.421
241169.830	NaN	-3.174	1.239	9.402	1504.029	1503.297	1509.158	-2.855	-1.084	2.718	-5.742	-0.612	8.421
241170.807	NaN	-3.174	1.239	9.402	1504.762	1504.029	1509.890	-2.977	-1.023	2.626	-5.971	-0.612	8.344
241171.783	NaN	-3.174	1.239	9.413	1505.495	1504.762	1509.890	-2.947	-0.916	2.809	-5.895	-0.612	8.421
241172.760	NaN	-3.174	1.228	9.391	1505.495	1504.029	1510.623	-3.069	-0.901	2.748	-5.895	-0.612	8.421
241173.737	NaN	-3.185	1.228	9.380	1505.495	1503.297	1509.158	-3.038	-1.038	2.794	-5.818	-0.612	8.268
241174.713	NaN	-3.185	1.228	9.380	1506.227	1504.029	1509.890	-3.084	-1.160	2.824	-5.895	-0.689	8.268
241175.690	NaN	-3.185	1.239	9.391	1505.495	1504.029	1509.158	-2.962	-1.053	2.794	-5.818	-0.612	8.344
241176.666	NaN	-3.185	1.239	9.413	1504.762	1504.029	1511.355	-3.084	-0.718	2.870	-5.895	-0.766	8.421
241177.643	NaN	-3.185	1.239	9.413	1505.495	1503.297	1510.623	-3.160	-0.794	2.962	-5.895	-0.536	8.268
241178.619	NaN	-3.185	1.239	9.413	1505.495	1504.762	1509.158	-3.084	-1.038	2.840	-5.818	-0.536	8.421
241179.596	NaN	-3.196	1.239	9.413	1504.029	1504.029	1510.623	-3.023	-1.115	2.748	-5.971	-0.689	8.421
241180.573	NaN	-3.196	1.250	9.424	1506.227	1504.762	1509.890	-2.977	-1.008	2.733	-6.048	-0.536	8.498
241181.549	NaN	-3.196	1.228	9.435	1505.495	1504.029	1509.890	-3.191	-0.992	2.916	-5.818	-0.612	8.268
241182.526	NaN	-3.185	1.239	9.435	1504.762	1504.029	1509.158	-2.962	-0.962	3.038	-5.895	-0.689	8.268
241183.502	NaN	-3.196	1.239	9.435	1505.495	1504.029	1510.623	-3.023	-0.901	2.977	-5.971	-0.536	8.268
241184.479	NaN	-3.196	1.228	9.413	1506.227	1504.029	1510.623	-3.145	-0.916	2.885	-5.818	-0.536	8.344
241185.455	NaN	-3.185	1.239	9.424	1505.495	1504.029	1510.623	-3.069	-1.008	2.840	-5.895	-0.689	8.344
241186.432	NaN	-3.196	1.239	9.402	1505.495	1503.297	1509.158	-2.794	-0.931	2.901	-5.971	-0.612	8.191
241187.408	NaN	-3.185	1.239	9.413	1503.297	1503.297	1510.623	-3.084	-0.885	2.962	-5.818	-0.536	8.268
241188.385	NaN	-3.185	1.228	9.413	1505.495	1503.297	1510.623	-3.115	-0.870	2.840	-5.818	-0.766	8.344
241189.362	NaN	-3.174	1.228	9.413	1506.227	1504.029	1509.890	-3.099	-0.947	2.763	-6.048	-0.459	8.421
241190.338	NaN	-3.185	1.239	9.424	1505.495	1504.029	1509.890	-3.221	-1.053	2.916	-5.895	-0.612	8.421
241191.315	NaN	-3.185	1.228	9.424	1504.762	1504.762	1509.158	-3.237	-1.160	2.916	-5.895	-0.612	8.344
241192.291	NaN	-3.185	1.228	9.424	1504.762	1504.029	1509.890	-3.069	-1.038	2.947	-5.742	-0.612	8.268
241193.268	NaN	-3.196	1.228	9.424	1505.495	1504.029	1509.890	-2.931	-1.115	2.916	-5.818	-0.689	8.344
241194.244	NaN	-3.196	1.228	9.424	1505.495	1504.762	1510.623	-2.992	-0.901	2.824	-5.895	-0.536	8.344
241195.221	NaN	-3.196	1.239	9.424	1504.762	1504.029	1509.890	-3.344	-0.794	2.748	-5.818	-0.612	8.268
241196.198	NaN	-3.196	1.239	9.424	1504.762	1503.297	1509.890	-3.298	-0.885	2.840	-5.971	-0.612	8.191
241197.174	NaN	-3.207	1.239	9.435	1505.495	1504.029	1510.623	-3.038	-0.947	2.840	-5.742	-0.612	8.421
241198.151	NaN	-3.207	1.250	9.424	1506.227	1504.029	1509.890	-3.084	-0.992	2.763	-5.895	-0.689	8.268
241199.127	NaN	-3.207	1.250	9.424	1505.495	1504.762	1511.355	-3.038	-1.008	2.748	-5.895	-0.459	8.191
241200.104	NaN	-3.207	1.250	9.413	1505.495	1504.762	1509.158	-2.962	-0.947	2.794	-5.742	-0.612	8.344
241201.080	NaN	-3.207	1.239	9.402	1506.227	1503.297	1509.890	-3.221	-1.053	2.779	-5.818	-0.689	8.344
241202.057	NaN	-3.207	1.228	9.402	1504.029	1504.029	1509.890	-3.267	-0.962	2.702	-5.895	-0.536	8.344
241203.033	NaN	-3.196	1.239	9.402	1505.495	1504.029	1511.355	-3.038	-0.992	2.611	-5.818	-0.536	8.268
241204.010	NaN	-3.196	1.239	9.402	1504.762	1503.297	1509.890	-2.992	-1.145	2.824	-5.895	-0.612	8.268
241204.987	NaN	-3.185	1.239	9.402	1504.029	1501.832	1509.890	-2.916	-1.252	2.855	-5.818	-0.612	8.421
241205.963	NaN	-3.163	1.250	9.402	1504.762	1503.297	1510.623	-2.901	-1.053	2.901	-5.818	-0.612	8.268
241206.940	NaN	-3.174	1.239	9.391	1504.029	1503.297	1510.623	-2.870	-0.901	2.992	-5.818	-0.612	8.268
241207.916	NaN	-3.185	1.250	9.391	1504.762	1504.029	1510.623	-2.977	-0.870	2.779	-5.818	-0.536	8.421
241208.893	NaN	-3.174	1.250	9.402	1505.495	1504.029	1512.088	-3.237	-0.962	2.611	-5.742	-0.536	8.421
241209.869	NaN	-3.185	1.239	9.413	1506.227	1504.029	1511.355	-3.328	-1.084	2.550	-5.895	-0.689	8.498
241210.846	NaN	-3.174	1.239	9.413	1504.762	1503.297	1511.355	-3.389	-1.069	2.809	-5.665	-0.612	8.268
241211.823	NaN	-3.174	1.250	9.413	1504.029	1502.564	1509.158	-3.344	-0.885	3.099	-5.818	-0.689	8.421
241212.799	NaN	-3.174	1.250	9.413	1505.495	1504.029	1509.890	-3.160	-0.855	2.992	-5.895	-0.536	8.268
241213.776	NaN	-3.174	1.250	9.402	1505.495	1504.762	1510.623	-3.130	-1.038	2.885	-5.818	-0.612	8.268
241214.752	NaN	-3.185	1.239	9.413	1504.762	1502.564	1509.158	-3.176	-1.206	2.733	-5.818	-0.612	8.268
241215.729	NaN	-3.185	1.250	9.402	1506.227	1503.297	1510.623	-3.252	-1.206	2.855	-5.818	-0.612	8.344
241216.705	NaN	-3.174	1.239	9.402	1505.495	1502.564	1509.890	-3.344	-1.023	2.885	-5.818	-0.689	8.421
241217.682	NaN	-3.185	1.239	9.413	1504.762	1503.297	1509.890	-3.130	-0.809	2.901	-5.818	-0.689	8.421
241218.658	NaN	-3.174	1.228	9.413	1503.297	1504.029	1508.425	-3.023	-0.718	2.840	-5.971	-0.536	8.344
241219.635	NaN	-3.174	1.228	9.413	1505.495	1502.564	1510.623	-3.221	-0.916	2.870	-5.895	-0.536	8.344
241220.612	NaN	-3.185	1.228	9.402	1504.762	1503.297	1509.890	-3.389	-1.023	2.824	-5.895	-0.612	8.344
241221.588	NaN	-3.185	1.228	9.402	1503.297	1503.297	1509.158	-3.176	-1.084	2.763	-5.818	-0.536	8.421
241222.565	NaN	-3.185	1.228	9.402	1504.029	1503.297	1508.425	-3.115	-1.176	2.763	-6.048	-0.612	8.268
241223.541	NaN	-3.185	1.239	9.413	1505.495	1504.029	1510.623	-3.328	-1.084	2.885	-5.895	-0.612	8.421
241224.518	NaN	-3.196	1.228	9.413	1504.762	1502.564	1509.158	-3.221	-0.870	2.962	-5.895	-0.689	8.268
241225.494	NaN	-3.185	1.239	9.402	1504.762	1503.297	1509.890	-3.099	-0.733	2.809	-5.818	-0.612	8.268
241226.471	NaN	-3.207	1.228	9.391	1504.762	1503.297	1509.890	-2.931	-0.809	2.809	-5.818	-0.459	8.421
241227.448	NaN	-3.174	1.250	9.402	1506.227	1503.297	1510.623	-3.359	-1.023	2.977	-5.818	-0.612	8.498
241228.424	NaN	-3.196	1.239	9.391	1505.495	1503.297	1509.890	-3.328	-1.084	3.099	-5.895	-0.689	8.421
241229.401	NaN	-3.185	1.239	9.391	1504.029	1503.297	1509.158	-3.466	-1.130	2.916	-5.895	-0.689	8.344
241230.377	NaN	-3.174	1.250	9.424	1504.762	1503.297	1509.890	-3.450	-0.977	2.748	-5.818	-0.689	8.421
241231.354	NaN	-3.185	1.250	9.413	1506.227	1504.029	1509.890	-3.389	-0.901	2.870	-5.818	-0.536	8.344
241232.330	NaN	-3.185	1.239	9.424	1504.029	1503.297	1509.158	-3.267	-0.916	2.809	-5.818	-0.612	8.344
241233.307	NaN	-3.185	1.239	9.424	1504.762	1504.029	1510.623	-2.947	-0.901	2.885	-5.895	-0.612	8.268
241234.283	NaN	-3.174	1.239	9.435	1506.227	1504.029	1511.355	-2.885	-0.992	2.855	-5.971	-0.612	8.344
241235.260	NaN	-3.174	1.239	9.435	1504.762	1503.297	1509.158	-2.794	-0.794	2.763	-5.895	-0.689	8.268
241236.237	NaN	-3.185	1.228	9.435	1505.495	1503.297	1511.355	-2.748	-0.779	2.733	-5.895	-0.536	8.498
241237.213	NaN	-3.174	1.228	9.424	1505.495	1504.029	1510.623	-2.977	-0.794	2.794	-5.895	-0.536	8.498
241238.190	NaN	-3.196	1.228	9.435	1505.495	1504.029	1510.623	-3.237	-0.855	2.733	-5.971	-0.536	8.268
241239.166	NaN	-3.185	1.239	9.435	1504.762	1504.029	1509.890	-3.099	-0.656	2.748	-5.818	-0.536	8.344
241240.143	NaN	-3.196	1.239	9.424	1504.762	1504.762	1510.623	-2.947	-0.687	2.718	-5.895	-0.536	8.344
241241.119	NaN	-3.196	1.250	9.413	1504.029	1504.762	1511.355	-3.084	-0.855	2.779	-5.665	-0.612	8.421
241242.096	NaN	-3.207	1.250	9.413	1505.495	1503.297	1509.890	-3.130	-0.794	2.855	-5.895	-0.612	8.268
241243.073	NaN	-3.196	1.250	9.424	1505.495	1504.762	1509.158	-3.130	-0.794	2.977	-5.818	-0.766	8.421
241244.049	NaN	-3.196	1.250	9.424	1505.495	1504.762	1509.158	-3.145	-0.931	2.809	-5.971	-0.612	8.268
241245.026	NaN	-3.207	1.261	9.413	1505.495	1503.297	1509.890	-3.008	-0.947	2.855	-5.895	-0.612	8.344
241246.002	NaN	-3.207	1.250	9.413	1504.762	1504.762	1509.890	-3.115	-1.023	3.008	-6.048	-0.612	8.268
241246.979	NaN	-3.196	1.261	9.424	1503.297	1503.297	1510.623	-3.053	-0.962	2.916	-5.895	-0.536	8.421
241247.955	NaN	-3.207	1.261	9.435	1504.762	1504.762	1510.623	-3.038	-0.947	2.947	-5.895	-0.459	8.268
241248.932	NaN	-3.207	1.250	9.435	1505.495	1504.029	1509.890	-3.176	-0.885	2.947	-5.818	-0.689	8.574
241249.908	NaN	-3.196	1.239	9.424	1505.495	1504.029	1510.623	-3.344	-0.931	3.069	-5.971	-0.612	8.498
241250.885	NaN	-3.217	1.239	9.413	1504.762	1504.029	1510.623	-3.298	-0.885	3.008	-5.895	-0.612	8.268
241251.862	NaN	-3.207	1.250	9.413	1505.495	1504.029	1509.890	-3.328	-0.901	2.885	-5.895	-0.766	8.268
241252.838	NaN	-3.196	1.250	9.424	1505.495	1504.762	1510.623	-3.298	-0.748	2.931	-5.895	-0.612	8.498
241253.815	NaN	-3.196	1.228	9.424	1504.762	1504.029	1510.623	-3.115	-0.824	2.947	-5.818	-0.612	8.421
241254.791	NaN	-3.196	1.239	9.424	1504.762	1504.029	1510.623	-3.206	-0.947	3.099	-5.895	-0.689	8.421
241255.768	NaN	-3.196	1.228	9.424	1504.029	1504.029	1509.158	-3.191	-0.763	3.099	-5.971	-0.766	8.115
241256.744	NaN	-3.196	1.250	9.413	1505.495	1504.029	1510.623	-3.344	-0.779	2.901	-5.818	-0.689	8.191
241257.721	NaN	-3.196	1.261	9.413	1505.495	1504.029	1509.890	-3.435	-0.824	2.885	-5.818	-0.612	8.344
241258.698	NaN	-3.207	1.261	9.402	1504.762	1504.762	1511.355	-3.344	-0.809	3.191	-5.818	-0.612	8.344
241259.674	NaN	-3.196	1.250	9.413	1506.227	1503.297	1511.355	-3.344	-1.099	3.145	-5.665	-0.612	8.344
241260.651	NaN	-3.196	1.261	9.413	1506.227	1504.762	1511.355	-3.237	-1.221	3.115	-5.818	-0.612	8.344
241261.627	NaN	-3.196	1.239	9.424	1504.762	1504.029	1509.890	-3.191	-1.008	2.901	-5.971	-0.689	8.268
241262.604	NaN	-3.174	1.250	9.446	1504.762	1503.297	1509.158	-3.252	-0.779	2.870	-5.818	-0.612	8.344
241263.580	NaN	-3.196	1.239	9.446	1505.495	1503.297	1509.158	-3.405	-0.672	2.992	-5.895	-0.612	8.421
241264.557	NaN	-3.207	1.239	9.446	1504.029	1504.029	1509.890	-3.267	-0.809	2.992	-5.818	-0.536	8.268
241265.533	NaN	-3.196	1.239	9.435	1504.029	1502.564	1509.890	-3.221	-0.870	2.962	-5.742	-0.536	8.268
241266.510	NaN	-3.196	1.261	9.424	1506.227	1504.029	1510.623	-3.359	-1.008	3.160	-5.818	-0.689	8.344
241267.487	NaN	-3.196	1.261	9.424	1505.495	1504.029	1510.623	-3.588	-0.962	3.099	-6.048	-0.689	8.344
241268.463	NaN	-3.185	1.261	9.413	1506.227	1504.029	1509.890	-3.267	-0.901	3.145	-5.895	-0.536	8.268
241269.440	NaN	-3.185	1.250	9.402	1505.495	1504.762	1509.158	-3.191	-0.870	3.160	-5.818	-0.612	8.421
241270.416	NaN	-3.185	1.250	9.413	1506.227	1504.762	1509.890	-3.221	-0.931	3.084	-5.895	-0.689	8.268
241271.393	NaN	-3.196	1.250	9.413	1504.762	1503.297	1511.355	-3.115	-0.855	2.977	-5.818	-0.536	8.344
241272.369	NaN	-3.185	1.250	9.413	1505.495	1503.297	1509.890	-3.115	-0.718	2.931	-5.818	-0.612	8.421
241273.346	NaN	-3.196	1.228	9.413	1505.495	1504.029	1511.355	-3.389	-0.595	2.779	-5.895	-0.536	8.574
241274.323	NaN	-3.185	1.250	9.424	1506.227	1504.029	1510.623	-3.542	-0.687	2.809	-5.895	-0.766	8.344
241275.299	NaN	-3.185	1.250	9.424	1506.960	1503.297	1510.623	-3.405	-0.916	3.053	-5.818	-0.612	8.344
241276.276	NaN	-3.174	1.239	9.413	1505.495	1504.762	1510.623	-3.282	-0.992	3.023	-5.818	-0.612	8.268
241277.252	NaN	-3.174	1.239	9.413	1504.029	1504.029	1509.158	-3.282	-1.023	2.855	-5.895	-0.612	8.421
241278.229	NaN	-3.185	1.250	9.413	1504.762	1504.762	1509.890	-3.344	-0.947	2.840	-5.895	-0.612	8.344
241279.205	NaN	-3.174	1.250	9.424	1505.495	1504.029	1510.623	-3.435	-0.885	2.962	-5.895	-0.612	8.344
241280.182	NaN	-3.174	1.239	9.413	1505.495	1504.762	1509.890	-3.191	-0.885	2.977	-5.971	-0.612	8.344
241281.158	NaN	-3.174	1.239	9.402	1504.762	1504.029	1510.623	-3.023	-1.069	3.115	-5.818	-0.536	8.344
241282.135	NaN	-3.185	1.239	9.402	1504.762	1504.029	1509.158	-3.008	-1.038	2.962	-5.895	-0.612	8.421
241283.112	NaN	-3.174	1.239	9.402	1505.495	1504.762	1510.623	-3.313	-0.962	2.779	-5.895	-0.689	8.344
241284.088	NaN	-3.185	1.239	9.413	1504.762	1504.029	1509.890	-3.176	-0.824	2.779	-5.895	-0.612	8.344
241285.065	NaN	-3.196	1.239	9.424	1505.495	1504.029	1509.890	-3.206	-0.794	2.870	-5.895	-0.612	8.344
241286.041	NaN	-3.196	1.239	9.424	1506.227	1503.297	1510.623	-3.496	-0.901	3.099	-5.971	-0.689	8.344
241287.018	NaN	-3.196	1.228	9.413	1506.227	1503.297	1510.623	-3.527	-0.840	2.977	-5.971	-0.536	8.268
241287.994	NaN	-3.185	1.239	9.413	1505.495	1504.762	1512.088	-3.282	-0.809	2.809	-5.818	-0.612	8.268
241288.971	NaN	-3.185	1.239	9.413	1504.762	1504.029	1511.355	-3.298	-0.718	2.611	-5.895	-0.536	8.498
241289.948	NaN	-3.174	1.228	9.402	1506.227	1504.029	1510.623	-3.130	-0.809	2.733	-5.895	-0.459	8.344
241290.924	NaN	-3.196	1.239	9.402	1504.029	1504.029	1508.425	-2.977	-0.779	2.840	-5.971	-0.612	8.344
241291.901	NaN	-3.196	1.239	9.402	1504.762	1503.297	1508.425	-3.267	-0.779	2.840	-5.818	-0.612	8.268
241292.877	NaN	-3.196	1.250	9.413	1506.227	1503.297	1510.623	-3.344	-0.916	2.962	-5.971	-0.612	8.344
241293.854	NaN	-3.196	1.250	9.424	1505.495	1504.029	1511.355	-3.313	-0.870	3.053	-5.818	-0.536	8.344
241294.830	NaN	-3.207	1.250	9.446	1505.495	1503.297	1511.355	-3.328	-0.794	3.145	-5.971	-0.766	8.498
241295.807	NaN	-3.196	1.239	9.435	1504.762	1503.297	1510.623	-3.267	-0.992	3.176	-5.742	-0.612	8.268
241296.783	NaN	-3.196	1.261	9.435	1504.762	1504.762	1509.890	-3.206	-1.084	3.252	-5.895	-0.459	8.421
241297.760	NaN	-3.196	1.250	9.435	1504.762	1504.029	1510.623	-3.420	-1.069	2.931	-5.895	-0.612	8.268
241298.737	NaN	-3.196	1.250	9.435	1504.762	1504.762	1509.890	-3.359	-0.824	2.687	-5.895	-0.536	8.268
241299.713	NaN	-3.207	1.239	9.424	1504.762	1504.762	1510.623	-3.145	-0.550	2.977	-5.971	-0.612	8.344
241300.690	NaN	-3.207	1.261	9.424	1504.762	1504.029	1509.890	-2.992	-0.641	3.206	-5.895	-0.612	8.421
241301.666	NaN	-3.185	1.261	9.413	1505.495	1503.297	1510.623	-3.008	-0.824	3.221	-5.895	-0.536	8.344
241302.643	NaN	-3.174	1.261	9.424	1504.762	1503.297	1510.623	-3.405	-0.901	3.084	-5.818	-0.536	8.268
241303.619	NaN	-3.185	1.250	9.424	1505.495	1504.029	1509.158	-3.481	-0.794	2.992	-5.895	-0.612	8.344
241304.596	NaN	-3.185	1.239	9.424	1504.762	1503.297	1510.623	-3.405	-0.718	3.023	-5.895	-0.689	8.344
241305.573	NaN	-3.185	1.250	9.424	1506.227	1504.029	1509.890	-3.344	-0.733	2.931	-5.818	-0.536	8.344
241306.549	NaN	-3.174	1.250	9.424	1505.495	1504.029	1509.158	-3.221	-0.718	3.069	-5.818	-0.612	8.344
241307.526	NaN	-3.185	1.250	9.424	1505.495	1504.029	1511.355	-3.206	-0.885	2.947	-5.895	-0.766	8.268
241308.502	NaN	-3.174	1.250	9.413	1505.495	1504.029	1509.890	-3.466	-0.855	2.855	-6.048	-0.536	8.344
241309.479	NaN	-3.174	1.250	9.402	1505.495	1503.297	1509.890	-3.710	-0.809	2.885	-5.895	-0.536	8.191
241310.455	NaN	-3.174	1.261	9.402	1505.495	1504.762	1512.088	-3.618	-0.855	3.130	-5.895	-0.689	8.268
241311.432	NaN	-3.185	1.261	9.413	1505.495	1504.029	1509.158	-3.542	-1.038	3.069	-5.895	-0.612	8.268
241312.408	NaN	-3.196	1.239	9.402	1504.762	1505.495	1510.623	-3.267	-0.947	3.023	-5.895	-0.612	8.421
241313.385	NaN	-3.185	1.239	9.402	1502.564	1504.029	1509.890	-3.252	-0.824	2.824	-5.895	-0.766	8.344
241314.362	NaN	-3.185	1.228	9.402	1505.495	1504.029	1509.890	-3.313	-0.702	2.840	-5.895	-0.689	8.344
241315.338	NaN	-3.196	1.239	9.402	1504.762	1504.029	1509.890	-3.252	-0.779	3.053	-5.818	-0.689	8.344
241316.315	NaN	-3.207	1.250	9.402	1505.495	1504.762	1510.623	-3.252	-0.916	2.916	-5.971	-0.536	8.344
241317.291	NaN	-3.207	1.239	9.402	1504.762	1504.029	1509.890	-3.145	-0.931	2.901	-5.895	-0.612	8.344
241318.268	NaN	-3.207	1.239	9.402	1504.762	1504.762	1508.425	-3.115	-0.763	2.840	-5.895	-0.689	8.344
241319.244	NaN	-3.196	1.239	9.402	1505.495	1503.297	1511.355	-3.267	-0.779	3.053	-5.818	-0.536	8.421
241320.221	NaN	-3.207	1.228	9.391	1505.495	1503.297	1509.890	-3.542	-0.824	3.282	-6.048	-0.689	8.344
241321.198	NaN	-3.196	1.228	9.402	1503.297	1502.564	1509.890	-3.527	-0.824	3.145	-5.971	-0.842	8.268
241322.174	NaN	-3.196	1.250	9.402	1505.495	1504.029	1508.425	-3.588	-0.809	3.191	-5.818	-0.689	8.344
241323.151	NaN	-3.196	1.239	9.402	1506.227	1504.029	1510.623	-3.389	-0.855	3.176	-5.818	-0.612	8.344
241324.127	NaN	-3.196	1.250	9.402	1505.495	1503.297	1509.890	-3.160	-0.992	3.130	-5.895	-0.459	8.344
241325.104	NaN	-3.196	1.228	9.402	1505.495	1504.029	1509.890	-3.176	-0.931	3.008	-5.818	-0.612	8.268
241326.080	NaN	-3.207	1.239	9.413	1506.227	1504.029	1510.623	-3.206	-0.931	3.038	-5.818	-0.766	8.421
241327.057	NaN	-3.217	1.228	9.402	1504.029	1503.297	1509.890	-3.191	-0.931	2.977	-5.971	-0.689	8.344
241328.033	NaN	-3.207	1.250	9.413	1505.495	1504.762	1509.158	-3.221	-0.779	2.901	-5.895	-0.612	8.344
241329.010	NaN	-3.196	1.250	9.402	1505.495	1504.029	1510.623	-3.282	-0.855	3.008	-5.895	-0.612	8.344
241329.987	NaN	-3.207	1.239	9.402	1505.495	1504.762	1511.355	-3.542	-0.733	3.008	-5.895	-0.536	8.344
241330.963	NaN	-3.207	1.228	9.402	1504.029	1503.297	1509.890	-3.618	-0.763	2.962	-5.742	-0.536	8.344
241331.940	NaN	-3.207	1.239	9.402	1505.495	1504.029	1509.158	-3.435	-0.977	2.962	-5.971	-0.536	8.344
241332.916	NaN	-3.196	1.239	9.413	1504.762	1503.297	1510.623	-3.328	-0.840	2.779	-5.971	-0.612	8.268
241333.893	NaN	-3.185	1.250	9.424	1504.762	1503.297	1509.890	-3.267	-0.672	2.824	-5.971	-0.689	8.421
241334.869	NaN	-3.185	1.250	9.413	1504.762	1503.297	1509.158	-3.389	-0.702	3.053	-5.895	-0.612	8.268
241335.846	NaN	-3.196	1.239	9.413	1505.495	1504.029	1509.890	-3.389	-0.779	3.038	-5.818	-0.536	8.344
241336.823	NaN	-3.185	1.228	9.402	1505.495	1504.029	1509.158	-3.267	-0.702	3.053	-5.895	-0.612	8.344
241337.799	NaN	-3.185	1.239	9.424	1504.762	1503.297	1509.890	-3.344	-0.733	3.053	-5.971	-0.536	8.268
241338.776	NaN	-3.185	1.228	9.424	1505.495	1504.029	1511.355	-3.389	-0.779	3.206	-5.971	-0.612	8.344
241339.752	NaN	-3.185	1.239	9.424	1505.495	1504.029	1509.890	-3.481	-0.870	3.160	-5.895	-0.536	8.344
241340.729	NaN	-3.196	1.239	9.424	1505.495	1504.029	1511.355	-3.282	-0.977	3.145	-5.971	-0.766	8.421
241341.705	NaN	-3.196	1.239	9.402	1506.227	1504.762	1510.623	-3.252	-0.992	2.931	-5.818	-0.612	8.268
241342.682	NaN	-3.196	1.239	9.402	1505.495	1504.029	1510.623	-3.374	-0.901	2.870	-5.895	-0.612	8.498
241343.658	NaN	-3.196	1.239	9.413	1504.762	1504.029	1509.890	-3.191	-0.641	3.099	-5.895	-0.612	8.498
241344.635	NaN	-3.196	1.228	9.413	1504.029	1504.029	1510.623	-3.405	-0.702	3.130	-5.818	-0.689	8.344
241345.612	NaN	-3.196	1.228	9.413	1504.762	1502.564	1509.890	-3.542	-0.840	3.038	-5.818	-0.612	8.344
241346.588	NaN	-3.185	1.228	9.413	1504.762	1503.297	1509.890	-3.481	-0.626	2.947	-5.895	-0.536	8.498
241347.565	NaN	-3.185	1.239	9.413	1504.762	1504.029	1509.890	-3.496	-0.824	3.160	-5.818	-0.536	8.498
241348.541	NaN	-3.185	1.239	9.413	1504.029	1503.297	1509.158	-3.527	-0.824	3.313	-5.971	-0.689	8.268
241349.518	NaN	-3.185	1.250	9.413	1504.762	1504.029	1510.623	-3.573	-0.748	3.176	-5.742	-0.612	8.498
241350.494	NaN	-3.196	1.239	9.424	1505.495	1504.029	1511.355	-3.618	-0.962	2.916	-5.895	-0.689	8.498
241351.471	NaN	-3.207	1.228	9.424	1504.029	1503.297	1509.890	-3.527	-0.977	3.053	-5.895	-0.612	8.421
241352.448	NaN	-3.196	1.228	9.435	1504.029	1504.029	1511.355	-3.435	-0.733	3.176	-5.895	-0.689	8.344
241353.424	NaN	-3.196	1.239	9.446	1503.297	1504.029	1508.425	-3.466	-0.565	3.130	-5.742	-0.612	8.191
241354.401	NaN	-3.196	1.250	9.424	1506.227	1504.029	1510.623	-3.466	-0.672	3.053	-5.971	-0.612	8.344
241355.377	NaN	-3.185	1.250	9.424	1504.762	1504.029	1510.623	-3.420	-0.763	2.931	-5.971	-0.689	8.498
241356.354	NaN	-3.196	1.239	9.424	1505.495	1502.564	1510.623	-3.069	-0.733	3.099	-5.895	-0.536	8.421
241357.330	NaN	-3.196	1.239	9.424	1505.495	1504.762	1511.355	-3.115	-0.702	3.191	-5.818	-0.612	8.191
241358.307	NaN	-3.196	1.239	9.424	1504.762	1503.297	1509.158	-3.450	-0.656	3.160	-5.818	-0.536	8.498
241359.283	NaN	-3.185	1.261	9.435	1506.227	1504.029	1509.890	-3.588	-0.626	3.038	-5.895	-0.612	8.268
241360.260	NaN	-3.185	1.261	9.424	1505.495	1504.762	1509.890	-3.420	-0.641	2.901	-5.895	-0.459	8.191
241361.237	NaN	-3.185	1.250	9.424	1504.762	1504.762	1509.890	-3.298	-0.595	2.885	-5.971	-0.612	8.344
241362.213	NaN	-3.174	1.239	9.413	1505.495	1504.029	1509.890	-3.221	-0.550	2.992	-5.818	-0.536	8.344
241363.190	NaN	-3.185	1.250	9.402	1505.495	1504.029	1510.623	-3.359	-0.733	2.992	-5.971	-0.689	8.498
241364.166	NaN	-3.185	1.239	9.402	1505.495	1502.564	1509.890	-3.771	-0.687	3.038	-5.818	-0.766	8.344
241365.143	NaN	-3.185	1.250	9.413	1506.227	1504.029	1509.158	-3.557	-0.702	3.191	-5.895	-0.766	8.421
241366.119	NaN	-3.185	1.250	9.413	1506.227	1504.029	1510.623	-3.344	-0.672	3.053	-5.742	-0.459	8.344
241367.096	NaN	-3.207	1.239	9.413	1504.029	1504.029	1509.158	-3.252	-0.763	3.008	-6.048	-0.612	8.421
241368.073	NaN	-3.196	1.239	9.413	1506.227	1504.029	1509.890	-3.435	-0.763	2.977	-5.818	-0.612	8.268
241369.049	NaN	-3.185	1.250	9.424	1505.495	1503.297	1509.890	-3.481	-0.870	3.069	-5.818	-0.536	8.421
241370.026	NaN	-3.196	1.250	9.446	1504.762	1504.762	1509.890	-3.435	-1.160	3.130	-5.971	-0.689	8.344
241371.002	NaN	-3.196	1.250	9.446	1505.495	1503.297	1509.158	-3.389	-0.901	3.145	-5.971	-0.766	8.344
241371.979	NaN	-3.196	1.250	9.446	1505.495	1502.564	1509.158	-3.420	-0.672	3.115	-5.742	-0.612	8.421
241372.955	NaN	-3.207	1.250	9.446	1503.297	1504.029	1509.890	-3.466	-0.702	3.176	-5.971	-0.612	8.268
241373.932	NaN	-3.185	1.261	9.446	1506.227	1504.029	1510.623	-3.710	-0.809	3.267	-5.818	-0.612	8.421
241374.908	NaN	-3.207	1.250	9.446	1504.029	1504.029	1510.623	-3.527	-0.855	3.130	-5.895	-0.612	8.344
241375.885	3736848175.177	-3.217	1.250	9.435	1504.029	1503.297	1510.623	-3.389	-0.687	3.053	-5.895	-0.536	8.421
241376.862	NaN	-3.196	1.250	9.446	1504.029	1503.297	1510.623	-3.344	-0.595	3.023	-5.895	-0.536	8.421
241377.838	NaN	-3.207	1.250	9.435	1504.762	1504.029	1510.623	-3.466	-0.611	2.885	-5.895	-0.536	8.344
241378.815	NaN	-3.207	1.250	9.424	1504.762	1504.029	1510.623	-3.618	-0.748	2.992	-5.895	-0.612	8.344
241379.791	NaN	-3.207	1.239	9.424	1504.762	1502.564	1509.158	-3.557	-0.855	3.115	-6.048	-0.612	8.344
241380.768	NaN	-3.185	1.239	9.424	1505.495	1504.762	1509.158	-3.450	-0.733	2.870	-5.895	-0.689	8.344
241381.744	NaN	-3.196	1.239	9.435	1505.495	1504.029	1510.623	-3.344	-0.763	2.870	-5.895	-0.689	8.421
241382.721	NaN	-3.196	1.250	9.435	1506.227	1504.029	1510.623	-3.282	-0.702	2.885	-5.895	-0.689	8.191
241383.698	NaN	-3.196	1.239	9.424	1505.495	1504.762	1509.890	-3.542	-0.656	2.855	-5.971	-0.766	8.268
241384.674	NaN	-3.207	1.239	9.424	1505.495	1503.297	1509.158	-3.664	-0.733	2.992	-5.895	-0.536	8.191
241385.651	NaN	-3.207	1.239	9.402	1506.227	1503.297	1509.158	-3.618	-0.687	3.069	-5.895	-0.689	8.344
241386.627	NaN	-3.207	1.239	9.402	1504.762	1504.029	1509.890	-3.496	-0.595	2.992	-5.895	-0.689	8.191
241387.604	NaN	-3.207	1.228	9.402	1505.495	1503.297	1511.355	-3.298	-0.595	3.099	-5.742	-0.689	8.344
241388.580	NaN	-3.207	1.250	9.413	1506.227	1503.297	1509.158	-3.359	-0.702	3.053	-5.818	-0.689	8.344
241389.557	NaN	-3.207	1.228	9.424	1505.495	1503.297	1510.623	-3.420	-0.809	2.947	-5.971	-0.536	8.344
241390.533	NaN	-3.196	1.250	9.424	1506.227	1503.297	1512.088	-3.344	-0.718	2.916	-5.818	-0.689	8.421
241391.510	NaN	-3.196	1.250	9.424	1505.495	1504.762	1511.355	-3.313	-0.687	2.855	-5.895	-0.536	8.498
241392.487	NaN	-3.196	1.250	9.424	1504.762	1504.762	1509.890	-3.374	-0.763	2.977	-5.971	-0.689	8.421
241393.463	NaN	-3.185	1.228	9.424	1504.762	1504.029	1509.890	-3.634	-0.809	2.962	-6.048	-0.536	8.344
241394.440	NaN	-3.196	1.228	9.413	1504.762	1504.762	1509.890	-3.634	-0.763	3.099	-5.818	-0.536	8.344
241395.416	NaN	-3.196	1.228	9.402	1504.762	1504.029	1509.890	-3.542	-0.779	3.130	-5.895	-0.612	8.344
241396.393	NaN	-3.196	1.228	9.413	1504.029	1503.297	1509.890	-3.710	-0.595	3.023	-5.895	-0.689	8.268
241397.369	NaN	-3.185	1.239	9.402	1504.762	1504.029	1509.890	-3.756	-0.550	3.099	-5.895	-0.612	8.191
241398.346	NaN	-3.196	1.239	9.391	1505.495	1504.762	1509.890	-3.649	-0.641	3.008	-5.971	-0.689	8.344
241399.323	NaN	-3.185	1.239	9.402	1503.297	1503.297	1510.623	-3.588	-0.656	2.977	-5.895	-0.536	8.498
241400.299	NaN	-3.196	1.239	9.413	1506.227	1504.029	1509.158	-3.466	-0.718	3.145	-5.895	-0.689	8.344
241401.276	NaN	-3.185	1.250	9.413	1504.029	1504.029	1510.623	-3.634	-0.763	3.145	-5.818	-0.689	8.421
241402.252	NaN	-3.185	1.239	9.424	1504.762	1504.029	1509.890	-3.710	-0.702	2.977	-5.895	-0.612	8.268
241403.229	NaN	-3.196	1.228	9.424	1504.029	1503.297	1508.425	-3.557	-0.687	2.855	-5.971	-0.536	8.421
241404.205	NaN	-3.196	1.239	9.424	1506.227	1504.762	1510.623	-3.466	-0.733	2.962	-5.818	-0.689	8.191
241405.182	NaN	-3.196	1.228	9.424	1505.495	1503.297	1509.890	-3.420	-0.794	3.115	-5.818	-0.689	8.268
241406.158	NaN	-3.185	1.250	9.424	1505.495	1504.029	1509.890	-3.481	-0.702	3.191	-5.895	-0.612	8.191
241407.135	NaN	-3.196	1.228	9.424	1504.762	1504.029	1508.425	-3.466	-0.595	2.962	-5.895	-0.612	8.344
241408.112	NaN	-3.196	1.239	9.424	1506.227	1503.297	1509.890	-3.374	-0.611	2.870	-5.895	-0.689	8.191
241409.088	NaN	-3.196	1.239	9.435	1505.495	1504.029	1509.890	-3.176	-0.550	2.947	-6.048	-0.689	8.268
241410.065	NaN	-3.207	1.239	9.424	1506.227	1504.029	1510.623	-3.237	-0.672	3.084	-5.818	-0.766	8.421
241411.041	NaN	-3.217	1.239	9.424	1506.227	1503.297	1510.623	-3.496	-0.733	3.160	-5.895	-0.766	8.268
241412.018	NaN	-3.228	1.239	9.413	1506.227	1504.029	1509.890	-3.664	-0.809	3.099	-5.895	-0.536	8.421
241412.994	NaN	-3.228	1.239	9.413	1504.762	1503.297	1509.158	-3.542	-0.718	2.962	-5.971	-0.536	8.344
241413.971	NaN	-3.217	1.250	9.424	1505.495	1504.029	1509.890	-3.359	-0.718	3.084	-5.971	-0.536	8.191
241414.948	NaN	-3.217	1.239	9.413	1505.495	1504.762	1511.355	-3.679	-0.763	3.160	-5.818	-0.612	8.344
241415.924	NaN	-3.207	1.239	9.424	1505.495	1504.029	1509.158	-3.695	-0.718	3.191	-5.895	-0.766	8.268
241416.901	NaN	-3.207	1.239	9.413	1505.495	1503.297	1509.158	-3.573	-0.809	3.206	-5.742	-0.536	8.421
241417.877	NaN	-3.185	1.239	9.413	1504.762	1504.029	1510.623	-3.481	-0.565	3.328	-5.895	-0.612	8.268
241418.854	NaN	-3.196	1.228	9.413	1505.495	1504.029	1510.623	-3.511	-0.534	3.359	-5.818	-0.612	8.498
241419.830	NaN	-3.196	1.239	9.413	1504.029	1504.762	1509.890	-3.450	-0.565	3.221	-6.048	-0.612	8.421
241420.807	NaN	-3.196	1.228	9.402	1505.495	1503.297	1510.623	-3.176	-0.718	3.191	-5.971	-0.612	8.421
241421.783	NaN	-3.196	1.250	9.413	1506.227	1503.297	1510.623	-3.298	-0.733	3.115	-5.818	-0.536	8.268
241422.760	NaN	-3.196	1.250	9.402	1505.495	1504.029	1510.623	-3.435	-0.626	3.145	-5.971	-0.612	8.344
241423.737	NaN	-3.185	1.250	9.402	1505.495	1503.297	1510.623	-3.466	-0.779	3.206	-5.895	-0.612	8.344
241424.713	NaN	-3.185	1.239	9.402	1504.762	1504.762	1509.890	-3.420	-0.947	3.145	-5.818	-0.536	8.344
241425.690	NaN	-3.196	1.250	9.391	1505.495	1504.762	1509.158	-3.466	-0.962	3.221	-5.895	-0.612	8.344
241426.666	NaN	-3.196	1.239	9.402	1505.495	1504.029	1510.623	-3.298	-0.779	3.191	-5.895	-0.612	8.344
241427.643	NaN	-3.196	1.239	9.413	1505.495	1504.029	1509.890	-3.313	-0.580	3.115	-5.895	-0.536	8.421
241428.619	NaN	-3.207	1.228	9.413	1506.227	1504.029	1509.158	-3.450	-0.519	3.053	-5.818	-0.689	8.191
241429.596	NaN	-3.207	1.228	9.413	1504.029	1504.029	1509.890	-3.527	-0.458	3.206	-5.742	-0.689	8.268
241430.573	NaN	-3.207	1.228	9.424	1504.029	1501.832	1509.890	-3.511	-0.534	3.145	-5.895	-0.766	8.191
241431.549	NaN	-3.196	1.239	9.435	1505.495	1504.029	1509.890	-3.756	-0.748	3.084	-5.895	-0.612	8.421
241432.526	NaN	-3.185	1.239	9.424	1506.227	1504.029	1509.890	-3.969	-0.779	3.023	-5.818	-0.612	8.421
241433.502	NaN	-3.196	1.250	9.413	1505.495	1502.564	1510.623	-3.710	-0.748	3.038	-5.818	-0.612	8.344
241434.479	NaN	-3.207	1.239	9.413	1504.029	1502.564	1509.158	-3.603	-0.718	3.069	-5.895	-0.612	8.191
241435.455	NaN	-3.196	1.250	9.413	1506.227	1504.762	1509.890	-3.374	-0.702	3.084	-5.895	-0.689	8.344
241436.432	NaN	-3.207	1.239	9.413	1505.495	1503.297	1509.890	-3.664	-0.687	3.053	-5.971	-0.536	8.421
241437.408	NaN	-3.207	1.250	9.402	1504.029	1504.029	1510.623	-3.908	-0.748	3.099	-5.818	-0.536	8.421
241438.385	NaN	-3.207	1.250	9.391	1504.762	1504.029	1508.425	-3.847	-0.824	3.221	-5.818	-0.689	8.191
241439.362	NaN	-3.196	1.250	9.402	1506.227	1504.029	1509.890	-3.878	-0.809	3.298	-5.895	-0.612	8.421
241440.338	NaN	-3.196	1.239	9.402	1505.495	1504.029	1509.890	-3.435	-0.641	3.221	-5.895	-0.536	8.421
241441.315	NaN	-3.207	1.239	9.413	1505.495	1504.029	1510.623	-3.237	-0.672	3.191	-5.742	-0.689	8.344
241442.291	NaN	-3.196	1.239	9.413	1507.692	1504.029	1510.623	-3.389	-0.626	3.069	-5.818	-0.766	8.268
241443.268	NaN	-3.207	1.239	9.402	1505.495	1504.762	1509.158	-3.603	-0.580	3.176	-6.048	-0.612	8.344
241444.244	NaN	-3.196	1.239	9.413	1505.495	1504.029	1510.623	-3.695	-0.595	3.176	-5.895	-0.612	8.344
241445.221	NaN	-3.196	1.250	9.424	1506.227	1504.029	1510.623	-3.710	-0.733	2.947	-5.895	-0.612	8.268
241446.198	NaN	-3.207	1.250	9.424	1505.495	1504.029	1509.890	-3.557	-0.733	2.931	-5.971	-0.536	8.344
241447.174	NaN	-3.207	1.239	9.435	1504.762	1504.029	1509.890	-3.573	-0.550	3.176	-5.895	-0.612	8.498
241448.151	NaN	-3.207	1.250	9.424	1505.495	1504.029	1511.355	-3.527	-0.580	3.008	-5.895	-0.689	8.268
241449.127	NaN	-3.207	1.239	9.424	1505.495	1503.297	1509.158	-3.466	-0.656	2.901	-5.818	-0.689	8.498
241450.104	NaN	-3.185	1.239	9.446	1504.029	1502.564	1509.158	-3.542	-0.672	3.115	-5.895	-0.612	8.344
241451.080	NaN	-3.185	1.239	9.435	1504.762	1503.297	1510.623	-3.664	-0.687	3.191	-5.895	-0.612	8.574
241452.057	NaN	-3.185	1.250	9.424	1504.762	1503.297	1509.890	-3.771	-0.641	3.344	-5.971	-0.459	8.268
241453.033	NaN	-3.185	1.250	9.413	1505.495	1503.297	1509.158	-3.511	-0.763	3.237	-5.818	-0.612	8.268
241454.010	NaN	-3.163	1.250	9.402	1506.227	1504.029	1510.623	-3.557	-0.947	3.176	-5.971	-0.536	8.191
241454.987	NaN	-3.174	1.250	9.391	1505.495	1504.029	1510.623	-3.756	-0.885	3.099	-5.742	-0.766	8.268
241455.963	NaN	-3.185	1.250	9.391	1505.495	1503.297	1509.890	-3.725	-0.550	3.328	-5.818	-0.536	8.421
241456.940	NaN	-3.185	1.250	9.391	1505.495	1504.029	1510.623	-3.664	-0.489	3.405	-5.818	-0.536	8.191
241457.916	NaN	-3.196	1.239	9.391	1505.495	1504.029	1511.355	-3.573	-0.702	3.221	-5.895	-0.612	8.191
241458.893	NaN	-3.196	1.228	9.402	1504.762	1504.029	1510.623	-3.511	-0.885	3.053	-5.818	-0.536	8.344
241459.869	NaN	-3.196	1.228	9.402	1503.297	1503.297	1509.158	-3.695	-0.885	2.931	-5.742	-0.459	8.268
241460.846	NaN	-3.185	1.239	9.402	1505.495	1504.029	1509.890	-3.786	-0.824	3.008	-5.818	-0.612	8.268
241461.823	NaN	-3.185	1.239	9.413	1505.495	1504.762	1509.158	-3.725	-0.595	3.160	-5.818	-0.689	8.344
241462.799	NaN	-3.185	1.250	9.424	1505.495	1504.029	1508.425	-3.740	-0.550	3.130	-5.895	-0.612	8.421
241463.776	NaN	-3.185	1.250	9.413	1504.762	1504.762	1510.623	-3.817	-0.611	3.252	-5.742	-0.612	8.191
241464.752	NaN	-3.196	1.250	9.413	1504.762	1504.029	1509.890	-3.695	-0.672	3.221	-5.818	-0.536	8.421
241465.729	NaN	-3.207	1.250	9.413	1505.495	1503.297	1509.890	-3.771	-0.565	3.008	-5.971	-0.612	8.191
241466.705	NaN	-3.207	1.261	9.424	1504.762	1504.762	1511.355	-3.634	-0.580	2.992	-5.895	-0.689	8.344
241467.682	NaN	-3.207	1.261	9.424	1505.495	1504.029	1511.355	-3.618	-0.702	3.282	-5.971	-0.612	8.421
241468.658	NaN	-3.196	1.261	9.435	1504.762	1504.029	1510.623	-3.786	-0.702	3.328	-6.048	-0.689	8.191
241469.635	NaN	-3.207	1.250	9.435	1504.762	1502.564	1509.158	-3.817	-0.733	3.374	-5.818	-0.536	8.421
241470.612	NaN	-3.185	1.250	9.435	1505.495	1504.762	1509.890	-3.588	-0.840	3.450	-5.818	-0.536	8.344
241471.588	NaN	-3.174	1.250	9.446	1504.762	1504.029	1511.355	-3.634	-0.779	3.328	-5.895	-0.689	8.344
241472.565	NaN	-3.185	1.250	9.424	1504.762	1503.297	1511.355	-3.832	-0.595	3.191	-5.895	-0.612	8.421
241473.541	NaN	-3.185	1.250	9.424	1504.762	1504.029	1512.088	-3.802	-0.534	3.099	-5.971	-0.612	8.344
241474.518	NaN	-3.185	1.239	9.424	1505.495	1504.029	1510.623	-3.542	-0.550	3.145	-5.971	-0.689	8.498
241475.494	NaN	-3.174	1.239	9.424	1505.495	1503.297	1510.623	-3.496	-0.672	3.221	-5.818	-0.612	8.268
241476.471	NaN	-3.185	1.261	9.435	1505.495	1504.029	1510.623	-3.725	-0.565	3.328	-5.971	-0.689	8.344
241477.448	NaN	-3.196	1.261	9.446	1505.495	1504.762	1510.623	-3.664	-0.626	3.313	-5.818	-0.612	8.268
241478.424	NaN	-3.196	1.250	9.446	1506.227	1504.029	1510.623	-3.496	-0.718	3.176	-5.971	-0.689	8.268
241479.401	NaN	-3.207	1.239	9.435	1506.227	1504.029	1509.890	-3.511	-0.733	3.145	-5.971	-0.536	8.344
241480.377	NaN	-3.196	1.239	9.435	1505.495	1504.762	1509.890	-3.740	-0.763	3.206	-5.971	-0.612	8.421
241481.354	NaN	-3.196	1.250	9.446	1504.762	1502.564	1509.890	-3.618	-0.595	3.237	-5.895	-0.612	8.421
241482.330	NaN	-3.196	1.239	9.446	1505.495	1504.029	1509.890	-3.511	-0.550	3.191	-5.818	-0.383	8.421
241483.307	NaN	-3.185	1.239	9.435	1503.297	1503.297	1510.623	-3.573	-0.656	3.237	-5.818	-0.612	8.191
241484.283	NaN	-3.185	1.239	9.424	1504.762	1503.297	1508.425	-3.649	-0.779	3.252	-5.895	-0.612	8.344
241485.260	NaN	-3.185	1.250	9.424	1506.227	1503.297	1509.158	-3.817	-0.656	3.237	-5.971	-0.689	8.191
241486.237	NaN	-3.185	1.272	9.424	1505.495	1503.297	1511.355	-4.031	-0.687	3.237	-5.895	-0.536	8.268
241487.213	NaN	-3.185	1.250	9.413	1504.762	1504.762	1510.623	-4.031	-0.779	2.947	-5.818	-0.459	8.268
241488.190	NaN	-3.185	1.250	9.424	1506.960	1503.297	1509.890	-4.000	-0.840	2.931	-5.818	-0.689	8.421
241489.166	NaN	-3.174	1.261	9.435	1504.762	1504.029	1510.623	-3.954	-0.809	3.008	-5.818	-0.689	8.344
241490.143	NaN	-3.185	1.261	9.424	1505.495	1504.029	1510.623	-3.679	-0.641	3.374	-5.818	-0.689	8.498
241491.119	NaN	-3.185	1.250	9.413	1504.762	1504.029	1511.355	-3.664	-0.779	3.389	-5.818	-0.612	8.191
241492.096	NaN	-3.196	1.239	9.413	1504.762	1503.297	1509.890	-3.710	-0.779	3.267	-5.971	-0.459	8.344
241493.073	NaN	-3.174	1.250	9.413	1505.495	1503.297	1509.890	-3.802	-0.672	3.053	-6.048	-0.612	8.191
241494.049	NaN	-3.185	1.239	9.413	1505.495	1503.297	1509.158	-3.786	-0.611	3.069	-5.971	-0.689	8.268
241495.026	NaN	-3.185	1.239	9.424	1505.495	1503.297	1509.158	-3.710	-0.611	3.069	-5.818	-0.612	8.191
241496.002	NaN	-3.174	1.250	9.413	1504.762	1504.029	1509.158	-3.817	-0.595	3.221	-5.742	-0.612	8.344
241496.979	NaN	-3.174	1.250	9.391	1504.762	1504.029	1510.623	-3.908	-0.580	3.099	-5.818	-0.612	8.344
241497.955	NaN	-3.174	1.250	9.391	1506.227	1503.297	1511.355	-3.771	-0.763	3.160	-5.818	-0.536	8.268
241498.932	NaN	-3.185	1.239	9.402	1505.495	1503.297	1510.623	-3.817	-0.733	3.267	-5.895	-0.766	8.191
241499.908	NaN	-3.185	1.239	9.402	1504.762	1504.029	1509.158	-3.985	-0.748	3.282	-5.818	-0.612	8.498
241500.885	NaN	-3.196	1.228	9.413	1504.762	1504.029	1510.623	-3.939	-0.580	3.359	-5.818	-0.689	8.421
241501.862	NaN	-3.196	1.239	9.413	1504.762	1504.029	1510.623	-3.802	-0.580	3.344	-5.895	-0.612	8.344
241502.838	NaN	-3.185	1.250	9.413	1505.495	1504.029	1510.623	-3.710	-0.565	3.206	-5.818	-0.612	8.344
241503.815	NaN	-3.185	1.239	9.413	1505.495	1504.029	1508.425	-3.634	-0.611	3.160	-5.971	-0.689	8.268
241504.791	NaN	-3.196	1.239	9.391	1504.762	1504.029	1510.623	-3.679	-0.733	3.130	-5.895	-0.689	8.344
241505.768	NaN	-3.196	1.250	9.391	1504.762	1504.762	1510.623	-3.756	-0.870	3.160	-5.818	-0.612	8.344
241506.744	NaN	-3.185	1.250	9.413	1505.495	1504.029	1509.890	-3.679	-0.687	3.206	-5.895	-0.689	8.421
241507.721	NaN	-3.185	1.250	9.413	1504.029	1503.297	1510.623	-3.634	-0.580	3.298	-5.895	-0.612	8.344
241508.698	NaN	-3.196	1.239	9.402	1504.762	1504.029	1510.623	-3.786	-0.641	3.145	-5.818	-0.689	8.344
241509.674	NaN	-3.207	1.239	9.413	1506.227	1503.297	1509.158	-3.878	-0.611	2.992	-5.895	-0.536	8.344
241510.651	NaN	-3.196	1.250	9.424	1505.495	1504.029	1509.890	-3.954	-0.611	2.947	-5.895	-0.612	8.268
241511.627	NaN	-3.207	1.261	9.424	1504.762	1504.029	1510.623	-4.000	-0.687	3.252	-5.895	-0.612	8.268
241512.604	NaN	-3.207	1.272	9.424	1505.495	1503.297	1509.158	-3.939	-0.733	3.389	-5.971	-0.536	8.344
241513.580	NaN	-3.217	1.261	9.424	1506.227	1503.297	1509.890	-4.107	-0.656	3.313	-5.818	-0.689	8.268
241514.557	NaN	-3.207	1.250	9.413	1505.495	1503.297	1510.623	-4.046	-0.580	3.221	-5.742	-0.689	8.191
241515.533	NaN	-3.196	1.250	9.424	1505.495	1504.762	1511.355	-3.908	-0.519	3.053	-5.895	-0.612	8.421
241516.510	NaN	-3.185	1.228	9.413	1504.762	1504.029	1511.355	-3.832	-0.672	3.038	-5.895	-0.536	8.421
241517.487	NaN	-3.196	1.228	9.413	1505.495	1504.029	1510.623	-3.847	-0.718	3.344	-5.895	-0.536	8.268
241518.463	NaN	-3.196	1.217	9.424	1504.762	1503.297	1509.890	-3.893	-0.809	3.313	-6.048	-0.689	8.268
241519.440	NaN	-3.207	1.228	9.424	1504.762	1503.297	1509.890	-3.924	-0.748	3.267	-5.818	-0.612	8.421
241520.416	NaN	-3.196	1.228	9.424	1504.762	1503.297	1509.158	-3.893	-0.687	3.252	-5.818	-0.766	8.498
241521.393	NaN	-3.196	1.239	9.413	1505.495	1504.029	1510.623	-3.802	-0.519	3.282	-5.818	-0.612	8.268
241522.369	NaN	-3.207	1.239	9.413	1505.495	1504.029	1507.692	-3.863	-0.550	3.221	-5.818	-0.612	8.191
241523.346	NaN	-3.217	1.239	9.402	1504.762	1502.564	1510.623	-3.832	-0.565	3.130	-5.742	-0.612	8.268
241524.323	NaN	-3.196	1.239	9.413	1505.495	1504.029	1510.623	-3.969	-0.580	3.206	-5.818	-0.612	8.421
241525.299	NaN	-3.196	1.239	9.413	1505.495	1504.029	1509.890	-3.924	-0.580	3.221	-5.895	-0.612	8.344
241526.276	NaN	-3.196	1.239	9.402	1504.762	1504.762	1510.623	-3.710	-0.565	3.160	-5.895	-0.612	8.268
241527.252	NaN	-3.185	1.239	9.402	1504.762	1505.495	1510.623	-3.740	-0.641	3.038	-5.971	-0.689	8.421
241528.229	NaN	-3.196	1.239	9.402	1505.495	1503.297	1509.158	-3.710	-0.656	2.977	-5.742	-0.536	8.268
241529.205	NaN	-3.185	1.250	9.413	1504.762	1504.762	1510.623	-3.740	-0.641	3.038	-5.895	-0.766	8.268
241530.182	NaN	-3.196	1.239	9.424	1505.495	1504.029	1509.158	-3.802	-0.748	3.191	-5.895	-0.459	8.421
241531.158	NaN	-3.207	1.239	9.424	1505.495	1504.029	1509.890	-3.695	-0.748	3.282	-5.895	-0.536	8.268
241532.135	NaN	-3.217	1.228	9.435	1505.495	1504.029	1509.890	-3.786	-0.840	3.466	-5.971	-0.689	8.344
241533.112	NaN	-3.207	1.239	9.413	1506.227	1504.762	1510.623	-3.817	-0.840	3.557	-5.971	-0.536	8.191
241534.088	NaN	-3.217	1.250	9.413	1505.495	1503.297	1510.623	-3.756	-0.656	3.206	-6.048	-0.689	8.344
241535.065	NaN	-3.207	1.239	9.402	1506.227	1503.297	1510.623	-3.893	-0.534	2.977	-6.048	-0.689	8.268
241536.041	NaN	-3.207	1.239	9.391	1505.495	1504.029	1510.623	-3.985	-0.534	2.901	-5.971	-0.612	8.421
241537.018	NaN	-3.217	1.228	9.391	1504.762	1504.029	1509.890	-4.015	-0.656	3.038	-5.895	-0.536	8.344
241537.994	NaN	-3.196	1.250	9.402	1504.762	1504.762	1512.821	-3.969	-0.656	3.298	-5.818	-0.689	8.268
241538.971	NaN	-3.196	1.239	9.402	1505.495	1504.029	1510.623	-3.893	-0.687	3.359	-6.048	-0.689	8.344
241539.948	NaN	-3.196	1.250	9.413	1504.762	1504.029	1509.890	-3.893	-0.794	3.252	-5.818	-0.689	8.268
241540.924	3736848175.328	-3.196	1.239	9.413	1505.495	1504.029	1510.623	-3.893	-0.718	3.084	-5.895	-0.612	8.268
241541.901	NaN	-3.207	1.239	9.402	1506.227	1504.029	1511.355	-3.954	-0.718	3.099	-5.742	-0.689	8.344
241542.877	NaN	-3.207	1.250	9.424	1506.227	1504.762	1510.623	-4.000	-0.656	3.344	-5.895	-0.612	8.421
241543.854	NaN	-3.217	1.250	9.402	1504.029	1504.029	1510.623	-3.863	-0.580	3.374	-5.895	-0.612	8.344
241544.830	NaN	-3.196	1.261	9.402	1503.297	1503.297	1509.158	-3.817	-0.611	3.282	-5.971	-0.612	8.421
241545.807	NaN	-3.196	1.250	9.402	1504.029	1504.029	1509.158	-3.756	-0.641	3.252	-6.048	-0.612	8.344
241546.783	NaN	-3.196	1.250	9.413	1506.227	1504.029	1510.623	-3.695	-0.748	3.313	-5.818	-0.536	8.268
241547.760	NaN	-3.196	1.250	9.413	1505.495	1504.029	1510.623	-3.786	-0.748	3.267	-5.895	-0.689	8.344
241548.737	NaN	-3.196	1.261	9.413	1506.227	1504.029	1509.890	-3.710	-0.718	3.130	-5.895	-0.536	8.344
241549.713	NaN	-3.217	1.261	9.413	1505.495	1503.297	1510.623	-3.802	-0.763	3.145	-5.895	-0.459	8.268
241550.690	NaN	-3.217	1.250	9.402	1506.227	1504.029	1510.623	-3.786	-0.794	3.145	-5.895	-0.689	8.421
241551.666	NaN	-3.207	1.250	9.413	1504.762	1504.029	1510.623	-3.847	-0.595	3.237	-5.742	-0.689	8.498
241552.643	NaN	-3.207	1.261	9.413	1503.297	1504.762	1511.355	-3.832	-0.427	3.298	-5.895	-0.612	8.268
241553.619	NaN	-3.207	1.261	9.413	1505.495	1504.762	1509.158	-3.634	-0.458	3.359	-5.971	-0.612	8.344
241554.596	NaN	-3.207	1.250	9.413	1504.762	1504.029	1510.623	-3.695	-0.687	3.374	-5.742	-0.612	8.344
241555.573	NaN	-3.196	1.250	9.413	1505.495	1504.762	1509.158	-4.000	-0.748	3.405	-6.048	-0.689	8.498
241556.549	NaN	-3.217	1.239	9.413	1504.762	1504.029	1509.890	-3.802	-0.656	3.466	-5.818	-0.689	8.421
241557.526	NaN	-3.207	1.250	9.424	1504.029	1503.297	1509.890	-3.817	-0.626	3.573	-5.895	-0.536	8.344
241558.502	NaN	-3.196	1.250	9.413	1503.297	1504.762	1510.623	-4.046	-0.611	3.389	-5.895	-0.689	8.421
241559.479	NaN	-3.185	1.250	9.402	1505.495	1503.297	1510.623	-4.290	-0.687	3.115	-5.895	-0.536	8.344
241560.455	NaN	-3.196	1.239	9.413	1504.762	1503.297	1509.890	-4.244	-0.656	3.130	-5.971	-0.612	8.115
241561.432	NaN	-3.185	1.250	9.402	1504.762	1502.564	1509.890	-4.015	-0.550	3.344	-5.971	-0.612	8.421
241562.408	NaN	-3.185	1.250	9.413	1504.762	1504.029	1509.890	-3.786	-0.519	3.603	-5.818	-0.689	8.268
241563.385	NaN	-3.207	1.250	9.413	1504.762	1502.564	1509.158	-3.893	-0.641	3.679	-5.895	-0.689	8.268
241564.362	NaN	-3.196	1.261	9.424	1504.762	1503.297	1509.158	-4.015	-0.794	3.496	-5.895	-0.612	8.344
241565.338	NaN	-3.217	1.250	9.402	1504.762	1503.297	1509.158	-4.031	-0.763	3.344	-5.971	-0.689	8.344
241566.315	NaN	-3.196	1.250	9.413	1504.029	1504.029	1509.890	-3.771	-0.779	3.389	-5.895	-0.612	8.344
241567.291	NaN	-3.207	1.239	9.413	1505.495	1502.564	1509.890	-3.832	-0.718	3.466	-5.895	-0.689	8.268
241568.268	NaN	-3.217	1.228	9.424	1504.762	1503.297	1509.158	-3.908	-0.611	3.389	-5.895	-0.536	8.574
241569.244	NaN	-3.207	1.228	9.424	1504.762	1503.297	1509.158	-3.863	-0.626	3.420	-5.895	-0.612	8.421
241570.221	NaN	-3.196	1.239	9.435	1506.227	1504.029	1509.890	-3.649	-0.595	3.450	-5.895	-0.612	8.344
241571.198	NaN	-3.207	1.239	9.424	1505.495	1504.029	1510.623	-3.588	-0.656	3.389	-5.971	-0.536	8.498
241572.174	NaN	-3.207	1.228	9.413	1506.227	1503.297	1509.158	-3.771	-0.702	3.221	-5.818	-0.612	8.498
241573.151	NaN	-3.196	1.250	9.413	1506.227	1504.029	1510.623	-4.000	-0.733	3.130	-5.971	-0.612	8.421
241574.127	NaN	-3.196	1.239	9.413	1506.227	1503.297	1509.158	-3.771	-0.656	3.221	-5.818	-0.612	8.498
241575.104	NaN	-3.185	1.239	9.424	1504.762	1503.297	1509.158	-3.588	-0.687	3.511	-6.048	-0.612	8.268
241576.080	NaN	-3.196	1.239	9.424	1506.227	1503.297	1509.158	-3.969	-0.580	3.573	-5.895	-0.689	8.421
241577.057	NaN	-3.207	1.228	9.413	1505.495	1501.832	1510.623	-4.092	-0.519	3.405	-5.818	-0.689	8.268
241578.033	NaN	-3.185	1.250	9.413	1506.227	1504.762	1510.623	-4.076	-0.947	3.221	-5.895	-0.612	8.268
241579.010	NaN	-3.185	1.250	9.413	1506.960	1503.297	1510.623	-3.969	-0.916	3.130	-5.895	-0.689	8.268
241579.987	NaN	-3.185	1.250	9.413	1506.227	1503.297	1509.158	-3.756	-0.702	3.221	-5.895	-0.689	8.344
241580.963	NaN	-3.185	1.250	9.424	1504.762	1504.029	1509.890	-3.725	-0.595	3.160	-6.124	-0.612	8.344
241581.940	NaN	-3.196	1.250	9.424	1504.762	1504.029	1509.158	-3.466	-0.702	3.176	-5.895	-0.689	8.191
241582.916	NaN	-3.185	1.239	9.424	1503.297	1504.029	1509.890	-3.496	-0.840	3.267	-5.895	-0.612	8.344
241583.893	NaN	-3.196	1.228	9.435	1504.762	1504.029	1509.890	-3.771	-0.840	3.282	-5.818	-0.689	8.498
241584.869	NaN	-3.185	1.239	9.435	1504.029	1503.297	1509.890	-3.939	-0.840	3.282	-5.895	-0.612	8.191
241585.846	NaN	-3.196	1.239	9.413	1505.495	1504.029	1508.425	-3.985	-0.702	3.282	-5.971	-0.689	8.268
241586.823	NaN	-3.185	1.250	9.402	1505.495	1504.762	1510.623	-3.985	-0.656	3.328	-5.818	-0.536	8.268
241587.799	NaN	-3.185	1.250	9.402	1504.762	1504.762	1509.890	-4.061	-0.656	3.420	-5.971	-0.612	8.421
241588.776	NaN	-3.174	1.239	9.413	1505.495	1504.029	1510.623	-4.031	-0.733	3.420	-5.818	-0.689	8.421
241589.752	NaN	-3.185	1.239	9.413	1504.762	1504.029	1510.623	-3.969	-0.534	3.405	-5.895	-0.612	8.191
241590.729	NaN	-3.196	1.228	9.413	1505.495	1504.029	1510.623	-3.832	-0.412	3.405	-5.818	-0.536	8.268
241591.705	NaN	-3.196	1.239	9.424	1506.960	1504.029	1511.355	-3.893	-0.412	3.160	-5.895	-0.536	8.498
241592.682	NaN	-3.207	1.228	9.413	1505.495	1503.297	1509.890	-4.031	-0.534	3.160	-5.818	-0.612	8.344
241593.658	NaN	-3.185	1.239	9.413	1504.029	1504.029	1509.890	-4.168	-0.656	3.466	-5.742	-0.766	8.268
241594.635	NaN	-3.185	1.239	9.413	1505.495	1503.297	1510.623	-3.954	-0.565	3.618	-5.895	-0.612	8.268
241595.612	NaN	-3.196	1.239	9.424	1504.762	1503.297	1509.890	-3.679	-0.443	3.420	-5.971	-0.612	8.344
241596.588	NaN	-3.174	1.239	9.435	1505.495	1504.029	1510.623	-3.573	-0.412	3.298	-5.895	-0.612	8.344
241597.565	NaN	-3.174	1.239	9.435	1504.762	1504.762	1509.890	-3.649	-0.473	3.374	-5.895	-0.612	8.191
241598.541	NaN	-3.185	1.239	9.435	1505.495	1504.029	1509.890	-3.832	-0.550	3.389	-5.895	-0.612	8.344
241599.518	NaN	-3.185	1.228	9.424	1505.495	1504.029	1510.623	-4.107	-0.580	3.252	-5.895	-0.612	8.268
241600.494	NaN	-3.185	1.239	9.435	1505.495	1504.029	1510.623	-4.244	-0.611	3.313	-6.048	-0.689	8.421
241601.471	NaN	-3.185	1.239	9.435	1504.029	1504.029	1509.890	-4.198	-0.550	3.435	-5.971	-0.536	8.344
241602.448	NaN	-3.185	1.239	9.435	1505.495	1504.029	1511.355	-3.893	-0.672	3.420	-5.971	-0.612	8.344
241603.424	NaN	-3.196	1.239	9.424	1505.495	1504.029	1509.158	-3.847	-0.779	3.389	-5.895	-0.612	8.421
241604.401	NaN	-3.196	1.239	9.413	1505.495	1504.029	1509.890	-3.878	-0.687	3.328	-5.971	-0.689	8.421
241605.377	NaN	-3.185	1.250	9.413	1504.762	1504.029	1509.158	-4.092	-0.626	3.267	-5.742	-0.612	8.268
241606.354	NaN	-3.185	1.239	9.402	1505.495	1504.029	1509.890	-4.031	-0.534	3.221	-5.742	-0.612	8.344
241607.330	NaN	-3.174	1.250	9.391	1505.495	1502.564	1511.355	-4.061	-0.473	3.344	-5.818	-0.689	8.268
241608.307	NaN	-3.185	1.228	9.380	1504.029	1503.297	1509.890	-4.137	-0.718	3.374	-5.818	-0.536	8.421
241609.283	NaN	-3.185	1.239	9.380	1505.495	1504.762	1511.355	-3.969	-0.611	3.389	-5.895	-0.689	8.268
241610.260	NaN	-3.207	1.228	9.380	1504.762	1504.029	1509.158	-4.153	-0.534	3.466	-5.971	-0.612	8.421
241611.237	NaN	-3.207	1.239	9.391	1504.762	1503.297	1510.623	-4.092	-0.550	3.359	-5.895	-0.689	8.344
241612.213	NaN	-3.196	1.239	9.402	1504.762	1504.029	1510.623	-3.893	-0.656	3.206	-5.818	-0.689	8.344
241613.190	NaN	-3.196	1.239	9.413	1504.762	1503.297	1508.425	-3.893	-0.565	3.191	-5.742	-0.689	8.421
241614.166	NaN	-3.185	1.261	9.413	1504.029	1503.297	1509.890	-3.878	-0.382	3.328	-5.895	-0.689	8.344
241615.143	NaN	-3.196	1.250	9.402	1504.029	1504.762	1509.158	-4.046	-0.458	3.481	-5.895	-0.612	8.421
241616.119	NaN	-3.185	1.250	9.413	1504.762	1503.297	1510.623	-4.092	-0.687	3.389	-5.971	-0.536	8.268
241617.096	NaN	-3.196	1.239	9.402	1504.762	1503.297	1509.158	-3.939	-0.718	3.435	-5.971	-0.612	8.344
241618.073	NaN	-3.196	1.250	9.413	1504.762	1504.029	1509.890	-3.893	-0.611	3.466	-5.971	-0.612	8.344
241619.049	NaN	-3.185	1.261	9.413	1504.762	1504.029	1509.890	-4.122	-0.397	3.328	-5.818	-0.459	8.344
241620.026	NaN	-3.185	1.261	9.413	1505.495	1503.297	1509.890	-4.137	-0.550	3.328	-5.895	-0.689	8.421
241621.002	NaN	-3.196	1.261	9.424	1504.762	1504.029	1509.158	-4.015	-0.595	3.450	-5.818	-0.766	8.268
241621.979	NaN	-3.196	1.261	9.413	1505.495	1504.029	1510.623	-3.847	-0.550	3.466	-5.818	-0.612	8.344
241622.955	NaN	-3.185	1.272	9.402	1505.495	1504.029	1509.890	-3.710	-0.519	3.344	-5.818	-0.612	8.191
241623.932	NaN	-3.196	1.250	9.402	1505.495	1504.029	1510.623	-3.908	-0.702	3.405	-5.818	-0.612	8.344
241624.908	NaN	-3.196	1.250	9.424	1504.762	1504.029	1510.623	-4.183	-0.702	3.237	-5.895	-0.612	8.344
241625.885	NaN	-3.196	1.250	9.413	1504.029	1503.297	1509.158	-4.336	-0.718	3.298	-5.895	-0.612	8.421
241626.862	NaN	-3.185	1.250	9.413	1505.495	1504.762	1511.355	-4.046	-0.504	3.206	-5.742	-0.689	8.344
241627.838	NaN	-3.196	1.250	9.413	1504.029	1503.297	1509.890	-3.924	-0.412	3.405	-5.818	-0.536	8.191
241628.815	NaN	-3.185	1.250	9.435	1504.762	1503.297	1509.890	-3.954	-0.427	3.420	-5.895	-0.612	8.268
241629.791	NaN	-3.196	1.239	9.435	1504.029	1504.029	1509.890	-4.000	-0.504	3.282	-5.895	-0.536	8.344
241630.768	NaN	-3.207	1.250	9.424	1506.227	1504.029	1509.158	-3.878	-0.565	3.435	-5.971	-0.612	8.268
241631.744	NaN	-3.196	1.250	9.413	1505.495	1504.762	1510.623	-4.000	-0.626	3.679	-5.818	-0.459	8.191
241632.721	NaN	-3.185	1.250	9.413	1505.495	1504.762	1510.623	-4.092	-0.656	3.588	-5.818	-0.536	8.344
241633.698	NaN	-3.185	1.239	9.413	1505.495	1504.029	1510.623	-4.031	-0.626	3.221	-5.971	-0.536	8.344
241634.674	NaN	-3.196	1.239	9.413	1505.495	1503.297	1509.158	-3.878	-0.565	3.160	-5.742	-0.612	8.191
241635.651	NaN	-3.196	1.239	9.402	1504.762	1504.762	1509.890	-3.863	-0.519	3.313	-5.895	-0.612	8.421
241636.627	NaN	-3.196	1.250	9.402	1506.227	1504.029	1509.890	-4.031	-0.595	3.527	-5.895	-0.536	8.344
241637.604	NaN	-3.196	1.239	9.413	1505.495	1503.297	1510.623	-4.076	-0.626	3.527	-5.971	-0.612	8.191
241638.580	NaN	-3.185	1.239	9.424	1505.495	1504.029	1509.890	-3.924	-0.595	3.511	-5.818	-0.536	8.344
241639.557	NaN	-3.196	1.228	9.413	1505.495	1503.297	1509.890	-4.061	-0.504	3.435	-5.971	-0.689	8.421
241640.533	NaN	-3.196	1.239	9.413	1506.227	1504.762	1509.890	-4.153	-0.443	3.435	-5.895	-0.689	8.268
241641.510	NaN	-3.196	1.239	9.413	1504.762	1504.029	1510.623	-4.076	-0.473	3.328	-5.971	-0.612	8.268
241642.487	NaN	-3.196	1.239	9.402	1506.227	1503.297	1510.623	-3.939	-0.626	3.420	-5.895	-0.536	8.191
241643.463	NaN	-3.196	1.228	9.402	1504.029	1504.762	1510.623	-3.908	-0.580	3.328	-5.895	-0.612	8.268
241644.440	NaN	-3.207	1.228	9.391	1505.495	1503.297	1509.890	-4.015	-0.443	3.298	-5.895	-0.612	8.344
241645.416	NaN	-3.196	1.228	9.402	1505.495	1504.762	1511.355	-4.122	-0.733	3.420	-5.818	-0.689	8.344
241646.393	NaN	-3.196	1.228	9.402	1505.495	1503.297	1509.158	-3.969	-0.611	3.466	-5.895	-0.612	8.344
241647.369	NaN	-3.196	1.217	9.391	1504.762	1504.029	1510.623	-4.092	-0.550	3.496	-5.895	-0.612	8.268
241648.346	NaN	-3.207	1.228	9.380	1505.495	1503.297	1509.890	-4.092	-0.504	3.435	-5.895	-0.383	8.344
241649.323	NaN	-3.207	1.228	9.380	1505.495	1504.762	1510.623	-4.000	-0.458	3.481	-5.895	-0.766	8.421
241650.299	NaN	-3.196	1.239	9.391	1506.227	1504.762	1509.890	-4.092	-0.519	3.511	-5.818	-0.612	8.268
241651.276	NaN	-3.196	1.250	9.391	1505.495	1503.297	1509.890	-4.427	-0.626	3.557	-5.971	-0.766	8.191
241652.252	3736848175.453	-3.196	1.250	9.391	1505.495	1504.029	1509.158	-4.198	-0.489	3.588	-5.818	-0.689	8.191
241653.229	NaN	-3.207	1.239	9.402	1504.029	1502.564	1509.890	-3.847	-0.443	3.466	-5.895	-0.459	8.421
241654.205	NaN	-3.185	1.261	9.402	1504.762	1504.029	1509.890	-3.725	-0.580	3.298	-5.895	-0.536	8.421
241655.182	NaN	-3.207	1.250	9.391	1504.029	1504.029	1509.890	-3.802	-0.611	3.221	-5.895	-0.459	8.421
241656.158	NaN	-3.196	1.239	9.391	1504.762	1503.297	1509.158	-4.015	-0.595	3.405	-5.895	-0.459	8.115
241657.135	NaN	-3.196	1.228	9.391	1504.029	1503.297	1510.623	-4.000	-0.397	3.527	-5.818	-0.612	8.344
241658.112	NaN	-3.207	1.228	9.391	1504.762	1503.297	1508.425	-4.260	-0.305	3.542	-5.818	-0.612	8.344
241659.088	NaN	-3.196	1.228	9.413	1504.762	1503.297	1509.890	-4.397	-0.519	3.527	-5.895	-0.612	8.421
241660.065	NaN	-3.207	1.228	9.413	1504.029	1504.762	1509.158	-4.214	-0.611	3.557	-5.971	-0.612	8.344
241661.041	NaN	-3.196	1.239	9.424	1504.762	1503.297	1509.158	-3.985	-0.519	3.511	-5.971	-0.689	8.344
241662.018	NaN	-3.207	1.228	9.413	1505.495	1504.762	1509.158	-4.076	-0.427	3.557	-5.818	-0.766	8.268
241662.994	NaN	-3.196	1.239	9.413	1505.495	1504.762	1511.355	-3.908	-0.458	3.481	-5.971	-0.536	8.268
241663.971	NaN	-3.207	1.239	9.413	1505.495	1504.762	1509.890	-4.015	-0.351	3.557	-5.895	-0.536	8.268
241664.948	NaN	-3.196	1.239	9.413	1504.762	1504.029	1510.623	-4.137	-0.427	3.466	-5.895	-0.689	8.191
241665.924	NaN	-3.207	1.228	9.413	1504.762	1504.029	1510.623	-4.198	-0.565	3.466	-5.895	-0.612	8.344
241666.901	NaN	-3.196	1.239	9.402	1505.495	1503.297	1509.158	-4.015	-0.611	3.405	-5.818	-0.689	8.268
241667.877	NaN	-3.185	1.239	9.424	1505.495	1504.029	1509.890	-3.786	-0.595	3.344	-5.895	-0.612	8.268
241668.854	NaN	-3.185	1.239	9.413	1505.495	1503.297	1510.623	-3.786	-0.412	3.389	-5.895	-0.612	8.421
241669.830	NaN	-3.174	1.250	9.413	1504.762	1504.029	1509.890	-4.031	-0.412	3.344	-5.971	-0.536	8.421
241670.807	NaN	-3.185	1.239	9.413	1504.762	1503.297	1509.158	-4.092	-0.382	3.420	-5.971	-0.612	8.421
241671.783	NaN	-3.185	1.250	9.413	1506.960	1504.029	1509.890	-4.214	-0.458	3.450	-5.742	-0.612	8.344
241672.760	NaN	-3.185	1.239	9.413	1505.495	1504.029	1509.890	-4.366	-0.565	3.542	-5.895	-0.612	8.344
241673.737	NaN	-3.185	1.228	9.413	1504.762	1504.029	1510.623	-4.290	-0.534	3.542	-5.818	-0.766	8.344
241674.713	NaN	-3.196	1.217	9.402	1504.029	1503.297	1509.158	-3.893	-0.550	3.481	-5.818	-0.612	8.344
241675.690	NaN	-3.185	1.228	9.391	1505.495	1503.297	1509.158	-3.756	-0.565	3.420	-5.895	-0.536	8.344
241676.666	NaN	-3.185	1.217	9.391	1504.762	1504.762	1511.355	-3.832	-0.672	3.405	-5.818	-0.612	8.268
241677.643	NaN	-3.185	1.217	9.391	1505.495	1504.029	1510.623	-3.878	-0.489	3.374	-5.895	-0.689	8.421
241678.619	NaN	-3.174	1.217	9.391	1506.227	1503.297	1511.355	-3.878	-0.321	3.237	-5.818	-0.689	8.421
241679.596	NaN	-3.174	1.228	9.380	1505.495	1502.564	1511.355	-4.031	-0.229	3.435	-5.895	-0.612	8.191
241680.573	NaN	-3.163	1.228	9.380	1505.495	1504.762	1510.623	-4.000	-0.489	3.435	-5.971	-0.612	8.421
241681.549	NaN	-3.185	1.228	9.391	1504.029	1504.029	1509.890	-4.183	-0.397	3.313	-5.818	-0.612	8.191
241682.526	NaN	-3.174	1.250	9.413	1505.495	1502.564	1509.158	-4.198	-0.397	3.328	-5.895	-0.536	8.268
241683.502	NaN	-3.174	1.250	9.391	1504.762	1504.029	1510.623	-4.092	-0.336	3.359	-5.742	-0.536	8.344
241684.479	NaN	-3.185	1.250	9.391	1504.029	1504.029	1511.355	-4.137	-0.305	3.466	-5.895	-0.612	8.268
241685.455	NaN	-3.185	1.250	9.402	1506.227	1504.029	1510.623	-4.168	-0.290	3.344	-5.818	-0.536	8.268
241686.432	NaN	-3.185	1.239	9.391	1505.495	1504.029	1510.623	-4.000	-0.275	3.420	-5.818	-0.612	8.421
241687.408	NaN	-3.185	1.228	9.391	1506.227	1503.297	1509.890	-3.939	-0.412	3.481	-5.895	-0.612	8.268
241688.385	NaN	-3.196	1.217	9.402	1504.762	1503.297	1511.355	-4.092	-0.443	3.786	-5.971	-0.459	8.344
241689.362	NaN	-3.185	1.239	9.402	1505.495	1504.029	1509.890	-4.366	-0.565	3.908	-5.971	-0.612	8.421
241690.338	NaN	-3.196	1.239	9.402	1505.495	1504.029	1509.890	-4.290	-0.489	3.527	-5.895	-0.689	8.268
241691.315	NaN	-3.196	1.250	9.391	1506.227	1503.297	1509.890	-4.183	-0.458	3.359	-5.895	-0.612	8.421
241692.291	NaN	-3.207	1.250	9.391	1505.495	1502.564	1509.158	-4.000	-0.489	3.298	-5.895	-0.536	8.421
241693.268	NaN	-3.207	1.250	9.391	1505.495	1503.297	1509.158	-4.015	-0.443	3.450	-5.818	-0.612	8.344
241694.244	NaN	-3.196	1.250	9.402	1505.495	1504.762	1509.890	-4.000	-0.443	3.542	-5.818	-0.612	8.115
241695.221	NaN	-3.196	1.250	9.402	1505.495	1504.762	1508.425	-3.878	-0.473	3.573	-5.818	-0.689	8.344
241696.198	NaN	-3.196	1.250	9.413	1504.762	1504.029	1509.158	-3.893	-0.458	3.679	-5.818	-0.612	8.268
241697.174	NaN	-3.196	1.250	9.424	1505.495	1503.297	1509.890	-4.107	-0.550	3.740	-5.971	-0.536	8.191
241698.151	NaN	-3.185	1.250	9.424	1504.762	1504.029	1509.890	-4.183	-0.366	3.710	-5.818	-0.689	8.344
241699.127	NaN	-3.185	1.250	9.413	1504.762	1503.297	1509.890	-4.122	-0.336	3.420	-5.895	-0.536	8.421
241700.104	NaN	-3.185	1.250	9.424	1504.029	1503.297	1510.623	-4.107	-0.397	3.191	-5.971	-0.689	8.421
241701.080	NaN	-3.196	1.239	9.413	1504.762	1504.029	1510.623	-4.183	-0.366	3.435	-5.971	-0.689	8.191
241702.057	NaN	-3.196	1.228	9.402	1505.495	1504.029	1509.890	-4.351	-0.443	3.786	-5.665	-0.612	8.344
241703.033	NaN	-3.185	1.228	9.413	1505.495	1504.762	1509.890	-4.092	-0.351	3.725	-5.895	-0.612	8.421
241704.010	NaN	-3.196	1.239	9.424	1506.227	1504.029	1509.890	-4.000	-0.412	3.527	-5.818	-0.612	8.344
241704.987	NaN	-3.196	1.239	9.424	1504.762	1504.029	1510.623	-4.183	-0.489	3.542	-5.818	-0.536	8.191
241705.963	NaN	-3.207	1.239	9.424	1505.495	1503.297	1509.890	-4.260	-0.534	3.679	-5.895	-0.689	8.344
241706.940	NaN	-3.207	1.250	9.413	1504.762	1504.029	1509.890	-4.275	-0.427	3.802	-5.895	-0.689	8.268
241707.916	NaN	-3.207	1.250	9.402	1505.495	1504.029	1511.355	-4.244	-0.321	3.695	-5.818	-0.689	8.268
241708.893	NaN	-3.196	1.250	9.413	1505.495	1504.029	1509.890	-4.092	-0.397	3.557	-5.971	-0.689	8.344
241709.869	NaN	-3.196	1.250	9.402	1504.762	1503.297	1509.890	-4.137	-0.260	3.557	-5.818	-0.536	8.344
241710.846	NaN	-3.196	1.239	9.413	1504.762	1504.029	1510.623	-4.198	-0.290	3.573	-5.971	-0.689	8.268
241711.823	NaN	-3.196	1.250	9.424	1505.495	1504.029	1511.355	-4.183	-0.336	3.542	-5.971	-0.766	8.268
241712.799	NaN	-3.207	1.239	9.424	1504.762	1502.564	1509.158	-3.939	-0.321	3.374	-5.818	-0.536	8.344
241713.776	NaN	-3.196	1.250	9.424	1504.029	1504.029	1509.158	-4.015	-0.397	3.466	-5.818	-0.612	8.344
241714.752	NaN	-3.196	1.228	9.424	1504.762	1504.029	1509.890	-4.061	-0.412	3.710	-5.818	-0.689	8.191
241715.729	NaN	-3.185	1.228	9.402	1505.495	1504.029	1511.355	-4.198	-0.366	3.511	-5.895	-0.766	8.344
241716.705	NaN	-3.185	1.239	9.402	1505.495	1504.762	1510.623	-4.366	-0.336	3.405	-5.742	-0.612	8.421
241717.682	NaN	-3.185	1.228	9.402	1505.495	1503.297	1510.623	-4.305	-0.290	3.313	-5.895	-0.536	8.344
241718.658	NaN	-3.185	1.228	9.413	1506.227	1503.297	1510.623	-4.137	-0.260	3.328	-5.895	-0.766	8.344
241719.635	NaN	-3.185	1.217	9.424	1502.564	1504.029	1509.890	-4.000	-0.412	3.527	-6.048	-0.689	8.498
241720.612	NaN	-3.196	1.217	9.435	1504.029	1503.297	1510.623	-4.168	-0.504	3.649	-5.971	-0.612	8.344
241721.588	NaN	-3.185	1.239	9.446	1505.495	1503.297	1509.158	-4.092	-0.336	3.618	-5.818	-0.612	8.344
241722.565	NaN	-3.196	1.239	9.435	1505.495	1504.029	1510.623	-4.198	-0.321	3.573	-5.742	-0.612	8.498
241723.541	NaN	-3.196	1.228	9.424	1504.762	1502.564	1509.890	-4.244	-0.443	3.603	-6.048	-0.612	8.268
241724.518	NaN	-3.196	1.228	9.413	1506.227	1504.762	1510.623	-4.092	-0.427	3.649	-5.818	-0.612	8.268
241725.494	NaN	-3.185	1.239	9.413	1504.762	1505.495	1510.623	-3.847	-0.473	3.603	-5.895	-0.536	8.421
241726.471	NaN	-3.196	1.239	9.402	1505.495	1502.564	1510.623	-4.000	-0.336	3.557	-5.818	-0.612	8.268
241727.448	NaN	-3.185	1.250	9.402	1504.762	1503.297	1509.890	-4.397	-0.382	3.679	-5.818	-0.536	8.421
241728.424	NaN	-3.196	1.239	9.413	1504.029	1503.297	1510.623	-4.458	-0.458	3.725	-5.742	-0.536	8.421
241729.401	NaN	-3.196	1.250	9.402	1504.029	1503.297	1510.623	-4.366	-0.489	3.496	-5.971	-0.536	8.421
241730.377	NaN	-3.185	1.250	9.424	1504.029	1503.297	1509.158	-4.168	-0.534	3.328	-5.818	-0.536	8.268
241731.354	NaN	-3.185	1.250	9.424	1505.495	1504.762	1509.158	-3.969	-0.611	3.466	-5.971	-0.536	8.268
241732.330	NaN	-3.185	1.250	9.424	1504.762	1504.029	1509.158	-4.153	-0.550	3.450	-5.895	-0.689	8.268
241733.307	NaN	-3.185	1.228	9.413	1505.495	1504.029	1508.425	-4.260	-0.550	3.389	-5.818	-0.689	8.191
241734.283	NaN	-3.185	1.228	9.424	1504.762	1503.297	1510.623	-4.153	-0.534	3.420	-5.895	-0.536	8.344
241735.260	NaN	-3.196	1.228	9.424	1504.762	1504.029	1509.890	-4.153	-0.458	3.634	-5.971	-0.689	8.344
241736.237	NaN	-3.196	1.239	9.424	1504.762	1503.297	1507.692	-4.183	-0.382	3.618	-5.895	-0.612	8.268
241737.213	NaN	-3.207	1.239	9.413	1505.495	1503.297	1509.890	-4.565	-0.229	3.603	-5.895	-0.612	8.268
241738.190	NaN	-3.207	1.239	9.413	1504.762	1504.762	1509.890	-4.427	-0.366	3.618	-5.971	-0.536	8.498
241739.166	NaN	-3.196	1.239	9.402	1505.495	1504.762	1510.623	-4.031	-0.427	3.710	-5.742	-0.689	8.268
241740.143	NaN	-3.196	1.239	9.402	1506.227	1504.029	1511.355	-4.061	-0.321	3.603	-5.895	-0.612	8.421
241741.119	NaN	-3.196	1.239	9.413	1504.762	1504.029	1509.890	-4.290	-0.351	3.542	-5.895	-0.689	8.344
241742.096	NaN	-3.207	1.239	9.413	1505.495	1503.297	1510.623	-4.366	-0.412	3.466	-5.971	-0.689	8.421
241743.073	NaN	-3.207	1.239	9.413	1504.762	1504.029	1510.623	-4.183	-0.489	3.435	-5.971	-0.612	8.421
241744.049	NaN	-3.217	1.250	9.402	1506.960	1504.762	1510.623	-4.168	-0.305	3.542	-5.818	-0.612	8.268
241745.026	NaN	-3.207	1.239	9.413	1504.029	1503.297	1510.623	-4.214	-0.183	3.634	-5.818	-0.689	8.421
241746.002	NaN	-3.196	1.239	9.413	1504.762	1504.762	1510.623	-4.321	-0.290	3.695	-5.895	-0.612	8.268
241746.979	NaN	-3.196	1.228	9.402	1506.227	1503.297	1510.623	-4.305	-0.321	3.771	-5.971	-0.536	8.344
241747.955	NaN	-3.196	1.239	9.413	1505.495	1504.762	1512.088	-4.198	-0.275	3.756	-5.818	-0.612	8.421
241748.932	NaN	-3.185	1.239	9.413	1504.762	1504.029	1510.623	-4.137	-0.290	3.634	-5.818	-0.612	8.344
241749.908	NaN	-3.196	1.239	9.413	1504.762	1504.029	1511.355	-4.107	-0.336	3.374	-6.048	-0.612	8.421
241750.885	NaN	-3.196	1.228	9.402	1505.495	1504.029	1510.623	-4.244	-0.321	3.328	-5.895	-0.689	8.268
241751.862	NaN	-3.196	1.228	9.402	1505.495	1504.029	1510.623	-4.504	-0.321	3.313	-5.971	-0.612	8.191
241752.838	NaN	-3.196	1.239	9.413	1505.495	1504.029	1510.623	-4.443	-0.321	3.344	-5.895	-0.612	8.421
241753.815	NaN	-3.185	1.250	9.402	1505.495	1503.297	1510.623	-4.443	-0.321	3.588	-5.895	-0.612	8.498
241754.791	NaN	-3.185	1.250	9.402	1505.495	1504.029	1511.355	-4.244	-0.473	3.542	-5.895	-0.689	8.191
241755.768	NaN	-3.196	1.250	9.402	1506.227	1502.564	1511.355	-4.122	-0.519	3.450	-5.895	-0.612	8.421
241756.744	NaN	-3.196	1.250	9.402	1505.495	1504.762	1511.355	-4.031	-0.504	3.466	-5.742	-0.612	8.344
241757.721	NaN	-3.196	1.250	9.402	1504.762	1504.762	1510.623	-4.366	-0.290	3.634	-5.818	-0.536	8.421
241758.698	NaN	-3.185	1.250	9.413	1505.495	1504.762	1509.890	-4.336	-0.076	3.588	-5.818	-0.612	8.344
241759.674	NaN	-3.196	1.261	9.413	1505.495	1503.297	1509.158	-4.153	-0.076	3.496	-5.742	-0.689	8.421
241760.651	NaN	-3.196	1.250	9.402	1504.029	1504.029	1509.158	-4.046	-0.168	3.542	-5.971	-0.536	8.421
241761.627	3736848175.577	-3.185	1.272	9.413	1504.762	1504.029	1511.355	-4.046	-0.229	3.725	-5.818	-0.689	8.268
241762.604	NaN	-3.185	1.250	9.402	1504.029	1503.297	1509.158	-4.031	-0.321	3.740	-5.818	-0.612	8.421
241763.580	NaN	-3.196	1.239	9.391	1501.832	1503.297	1509.890	-4.046	-0.504	3.573	-5.971	-0.536	8.268
241764.557	NaN	-3.185	1.239	9.391	1504.762	1503.297	1509.890	-4.183	-0.351	3.542	-5.895	-0.689	8.344
241765.533	NaN	-3.185	1.250	9.413	1506.227	1504.029	1509.890	-4.290	-0.305	3.695	-5.742	-0.689	8.421
241766.510	NaN	-3.174	1.250	9.413	1505.495	1503.297	1509.890	-4.321	-0.244	3.435	-5.895	-0.689	8.268
241767.487	NaN	-3.185	1.239	9.413	1504.762	1503.297	1509.890	-4.183	-0.397	3.557	-5.971	-0.536	8.344
241768.463	NaN	-3.185	1.228	9.413	1504.762	1503.297	1509.890	-4.092	-0.473	3.603	-5.895	-0.689	8.498
241769.440	NaN	-3.174	1.228	9.402	1506.960	1504.029	1510.623	-4.092	-0.366	3.481	-5.895	-0.689	8.268
241770.416	NaN	-3.174	1.239	9.413	1505.495	1504.762	1511.355	-4.168	-0.275	3.527	-5.742	-0.689	8.191
241771.393	NaN	-3.174	1.239	9.413	1506.227	1503.297	1510.623	-4.168	-0.244	3.573	-5.971	-0.689	8.268
241772.369	NaN	-3.174	1.228	9.402	1504.762	1504.762	1511.355	-4.229	-0.351	3.664	-5.818	-0.612	8.268
241773.346	NaN	-3.185	1.239	9.402	1504.762	1504.029	1509.890	-4.321	-0.305	3.725	-5.895	-0.612	8.344
241774.323	NaN	-3.196	1.250	9.402	1505.495	1504.029	1509.158	-4.260	-0.244	3.634	-5.818	-0.612	8.268
241775.299	NaN	-3.207	1.239	9.402	1504.762	1503.297	1509.890	-4.244	-0.305	3.588	-5.818	-0.612	8.498
241776.276	NaN	-3.207	1.250	9.413	1505.495	1504.029	1509.890	-4.275	-0.366	3.557	-5.895	-0.612	8.421
241777.252	NaN	-3.185	1.250	9.413	1504.029	1504.029	1511.355	-4.260	-0.260	3.496	-5.895	-0.536	8.421
241778.229	NaN	-3.185	1.239	9.402	1504.029	1503.297	1509.890	-4.198	-0.412	3.557	-5.971	-0.536	8.421
241779.205	NaN	-3.163	1.239	9.413	1503.297	1502.564	1509.158	-4.244	-0.351	3.557	-5.895	-0.536	8.498
241780.182	NaN	-3.174	1.250	9.402	1504.762	1504.029	1509.890	-4.366	-0.229	3.603	-5.742	-0.612	8.421
241781.158	NaN	-3.174	1.250	9.413	1506.227	1504.029	1510.623	-4.550	-0.397	3.695	-5.895	-0.612	8.268
241782.135	NaN	-3.185	1.239	9.402	1505.495	1502.564	1509.158	-4.687	-0.229	3.710	-5.895	-0.689	8.421
241783.112	NaN	-3.174	1.250	9.402	1505.495	1504.029	1509.158	-4.473	-0.153	3.649	-5.895	-0.689	8.268
241784.088	NaN	-3.185	1.250	9.402	1506.227	1503.297	1510.623	-4.107	-0.260	3.771	-6.048	-0.689	8.344
241785.065	NaN	-3.185	1.250	9.391	1505.495	1504.029	1509.158	-4.244	-0.321	3.969	-5.895	-0.612	8.344
241786.041	NaN	-3.185	1.261	9.402	1504.762	1504.029	1509.890	-4.229	-0.321	3.847	-5.895	-0.459	8.421
241787.018	NaN	-3.185	1.261	9.402	1504.762	1503.297	1509.890	-4.153	-0.305	3.725	-5.818	-0.612	8.344
241787.994	NaN	-3.185	1.272	9.413	1505.495	1504.029	1511.355	-4.366	-0.336	3.695	-5.895	-0.612	8.498
241788.971	NaN	-3.196	1.272	9.402	1505.495	1503.297	1508.425	-4.427	-0.458	3.618	-5.818	-0.536	8.344
241789.948	NaN	-3.196	1.261	9.402	1505.495	1504.029	1510.623	-4.458	-0.336	3.511	-5.895	-0.612	8.268
241790.924	NaN	-3.207	1.261	9.402	1504.029	1504.029	1509.158	-4.244	-0.260	3.664	-5.971	-0.536	8.421
241791.901	NaN	-3.207	1.250	9.402	1505.495	1504.029	1510.623	-4.229	-0.153	3.618	-5.971	-0.689	8.421
241792.877	NaN	-3.207	1.261	9.402	1505.495	1503.297	1509.890	-4.275	-0.275	3.557	-5.818	-0.689	8.268
241793.854	NaN	-3.207	1.272	9.402	1505.495	1504.029	1508.425	-4.366	-0.397	3.588	-5.895	-0.612	8.268
241794.830	NaN	-3.217	1.250	9.413	1504.762	1504.029	1511.355	-4.260	-0.458	3.588	-5.895	-0.612	8.498
241795.807	NaN	-3.207	1.239	9.413	1505.495	1503.297	1509.890	-4.214	-0.305	3.542	-5.895	-0.689	8.344
241796.783	NaN	-3.185	1.239	9.424	1506.227	1504.029	1510.623	-4.260	-0.275	3.649	-5.818	-0.612	8.421
241797.760	NaN	-3.196	1.228	9.424	1504.762	1503.297	1509.890	-4.305	-0.061	3.802	-5.895	-0.766	8.344
241798.737	NaN	-3.185	1.228	9.424	1504.762	1503.297	1509.890	-4.260	-0.122	3.847	-5.818	-0.536	8.574
241799.713	NaN	-3.185	1.228	9.424	1505.495	1504.029	1510.623	-4.458	-0.275	3.756	-5.895	-0.612	8.421
241800.690	NaN	-3.196	1.239	9.435	1504.762	1503.297	1511.355	-4.489	-0.366	3.695	-5.895	-0.612	8.498
241801.666	NaN	-3.185	1.250	9.435	1504.029	1504.029	1511.355	-4.153	-0.290	3.710	-5.971	-0.612	8.421
241802.643	NaN	-3.196	1.250	9.435	1504.762	1503.297	1509.890	-4.168	-0.183	3.710	-5.818	-0.689	8.268
241803.619	NaN	-3.196	1.250	9.435	1504.762	1503.297	1509.158	-4.443	-0.214	3.649	-5.971	-0.612	8.421
241804.596	NaN	-3.196	1.261	9.424	1505.495	1504.029	1510.623	-4.473	-0.290	3.511	-5.818	-0.689	8.344
241805.573	NaN	-3.185	1.261	9.413	1505.495	1504.029	1509.890	-4.397	-0.427	3.511	-5.818	-0.536	8.344
241829.010	NaN	-3.207	1.250	9.424	1505.495	1504.029	1511.355	-4.412	-0.275	3.527	-5.971	-0.612	8.268
241829.987	NaN	-3.207	1.250	9.413	1505.495	1504.029	1511.355	-4.458	-0.168	3.573	-5.895	-0.536	8.268
241830.963	NaN	-3.217	1.239	9.413	1504.762	1504.029	1510.623	-4.489	-0.015	3.511	-5.971	-0.612	8.421
241831.940	NaN	-3.217	1.228	9.424	1504.762	1503.297	1510.623	-4.519	0.031	3.466	-5.818	-0.612	8.268
241832.916	NaN	-3.196	1.239	9.435	1504.762	1503.297	1509.890	-4.580	-0.153	3.435	-5.971	-0.689	8.191
241833.893	NaN	-3.196	1.250	9.435	1505.495	1504.029	1509.890	-4.641	-0.443	3.664	-5.971	-0.689	8.268
241834.869	NaN	-3.196	1.239	9.424	1505.495	1503.297	1510.623	-4.580	-0.382	3.832	-5.971	-0.536	8.115
241835.846	NaN	-3.196	1.239	9.413	1506.960	1503.297	1509.890	-4.244	-0.107	3.740	-5.895	-0.612	8.268
241836.823	NaN	-3.185	1.228	9.413	1505.495	1504.029	1509.890	-4.107	-0.183	3.573	-5.895	-0.689	8.268
241837.799	NaN	-3.185	1.239	9.413	1504.762	1504.029	1509.890	-4.290	-0.397	3.496	-5.818	-0.536	8.344
241838.776	NaN	-3.196	1.228	9.413	1504.762	1504.029	1512.088	-4.443	-0.382	3.603	-5.895	-0.612	8.421
241839.752	NaN	-3.196	1.239	9.424	1504.029	1503.297	1509.890	-4.397	-0.260	3.664	-5.895	-0.612	8.191
241840.729	NaN	-3.196	1.239	9.424	1504.762	1504.029	1509.890	-4.351	-0.046	3.802	-5.895	-0.689	8.268
241841.705	NaN	-3.185	1.239	9.413	1506.227	1503.297	1511.355	-4.412	-0.137	3.786	-5.895	-0.766	8.268
241842.682	NaN	-3.196	1.239	9.402	1504.762	1504.029	1509.890	-4.489	-0.351	3.878	-5.971	-0.689	8.344
241843.658	NaN	-3.207	1.239	9.391	1505.495	1503.297	1511.355	-4.321	-0.351	3.725	-6.048	-0.536	8.344
241844.635	NaN	-3.196	1.239	9.380	1504.029	1504.029	1510.623	-4.351	-0.366	3.725	-5.895	-0.689	8.421
241845.612	NaN	-3.196	1.250	9.391	1505.495	1504.029	1511.355	-4.275	-0.458	3.664	-5.818	-0.612	8.421
241846.588	NaN	-3.185	1.250	9.402	1505.495	1504.029	1509.890	-4.519	-0.321	3.679	-5.971	-0.766	8.574
241847.565	NaN	-3.185	1.239	9.391	1505.495	1504.029	1510.623	-4.412	-0.137	3.664	-5.895	-0.536	8.268
241848.541	NaN	-3.196	1.239	9.380	1505.495	1503.297	1509.158	-4.366	-0.015	3.527	-5.818	-0.536	8.421
241849.518	NaN	-3.196	1.239	9.391	1505.495	1503.297	1509.890	-4.504	-0.031	3.649	-5.895	-0.536	8.498
241850.494	NaN	-3.185	1.250	9.391	1505.495	1504.029	1510.623	-4.458	0.046	3.802	-5.818	-0.612	8.344
241851.471	NaN	-3.196	1.250	9.413	1506.227	1504.029	1509.890	-4.565	0.015	3.771	-5.895	-0.689	8.268
241852.448	NaN	-3.196	1.239	9.413	1504.762	1503.297	1512.088	-4.489	-0.137	3.710	-5.895	-0.536	8.344
241853.424	NaN	-3.196	1.239	9.402	1505.495	1503.297	1511.355	-4.504	-0.137	3.573	-5.971	-0.612	8.421
241854.401	NaN	-3.185	1.239	9.402	1504.029	1503.297	1509.890	-4.489	-0.168	3.695	-5.742	-0.612	8.344
241855.377	NaN	-3.174	1.250	9.413	1505.495	1503.297	1510.623	-4.412	-0.198	3.802	-5.818	-0.612	8.344
241856.354	NaN	-3.185	1.239	9.402	1506.227	1503.297	1508.425	-4.458	-0.198	3.634	-5.895	-0.689	8.191
241857.330	NaN	-3.196	1.239	9.402	1505.495	1504.029	1510.623	-4.275	-0.305	3.634	-5.895	-0.536	8.344
241858.307	NaN	-3.196	1.228	9.391	1504.762	1503.297	1509.890	-4.244	-0.321	3.695	-5.818	-0.612	8.268
241859.283	NaN	-3.196	1.239	9.413	1506.227	1504.029	1510.623	-4.168	-0.275	3.679	-5.895	-0.689	8.344
241860.260	NaN	-3.196	1.239	9.435	1505.495	1504.762	1509.890	-4.244	-0.198	3.695	-5.818	-0.612	8.344
241861.237	NaN	-3.185	1.239	9.446	1505.495	1504.029	1510.623	-4.412	-0.168	3.786	-5.971	-0.689	8.421
241862.213	NaN	-3.196	1.239	9.435	1504.029	1504.029	1510.623	-4.427	-0.198	3.664	-5.818	-0.536	8.268
241863.190	NaN	-3.196	1.250	9.446	1504.762	1503.297	1510.623	-4.336	-0.412	3.649	-5.971	-0.612	8.498
241864.166	NaN	-3.185	1.250	9.435	1505.495	1504.762	1510.623	-4.366	-0.290	3.725	-5.895	-0.689	8.268
241865.143	NaN	-3.196	1.239	9.424	1504.029	1504.029	1510.623	-4.305	-0.153	3.756	-5.895	-0.612	8.421
241866.119	NaN	-3.207	1.250	9.424	1504.762	1503.297	1508.425	-4.092	-0.244	3.832	-5.971	-0.766	8.191
241867.096	NaN	-3.217	1.239	9.424	1505.495	1504.029	1510.623	-4.183	-0.290	3.588	-5.895	-0.689	8.344
241868.073	NaN	-3.196	1.239	9.435	1505.495	1504.029	1510.623	-4.290	-0.198	3.542	-5.971	-0.689	8.344
241869.049	NaN	-3.196	1.250	9.435	1504.762	1504.029	1511.355	-4.214	-0.275	3.588	-5.895	-0.612	8.268
241870.026	NaN	-3.196	1.261	9.446	1505.495	1504.029	1510.623	-4.489	-0.275	3.695	-5.818	-0.612	8.421
241871.002	NaN	-3.196	1.261	9.435	1504.762	1504.762	1509.890	-4.565	-0.198	3.710	-5.818	-0.689	8.421
241871.979	NaN	-3.207	1.250	9.435	1504.762	1503.297	1509.158	-4.504	-0.183	3.893	-5.818	-0.689	8.191
241872.955	NaN	-3.196	1.250	9.424	1506.227	1504.029	1510.623	-4.489	-0.305	3.878	-5.971	-0.612	8.344
241873.932	NaN	-3.196	1.239	9.413	1505.495	1503.297	1511.355	-4.229	-0.244	3.710	-5.895	-0.612	8.421
241874.908	NaN	-3.196	1.250	9.402	1504.762	1504.029	1510.623	-4.229	-0.092	3.450	-5.818	-0.459	8.344
241875.885	NaN	-3.196	1.239	9.402	1504.762	1503.297	1509.890	-4.443	0.076	3.466	-5.742	-0.689	8.268
241876.862	NaN	-3.185	1.261	9.413	1506.227	1504.762	1509.890	-4.351	-0.061	3.710	-5.818	-0.612	8.421
241877.838	NaN	-3.185	1.261	9.413	1505.495	1503.297	1509.890	-4.595	-0.183	3.725	-5.742	-0.689	8.344
241878.815	NaN	-3.185	1.261	9.413	1505.495	1504.029	1509.158	-4.504	-0.198	3.710	-5.971	-0.689	8.498
241879.791	NaN	-3.185	1.250	9.424	1505.495	1503.297	1509.890	-4.382	-0.321	3.649	-5.895	-0.612	8.268
241880.768	NaN	-3.196	1.250	9.413	1505.495	1503.297	1510.623	-4.687	-0.321	3.664	-5.818	-0.689	8.115
241881.744	NaN	-3.185	1.250	9.413	1504.762	1504.029	1512.088	-4.626	-0.305	3.710	-5.818	-0.612	8.344
241882.721	NaN	-3.174	1.239	9.402	1506.227	1504.029	1510.623	-4.427	-0.092	3.710	-5.895	-0.612	8.344
241883.698	NaN	-3.174	1.239	9.402	1504.762	1504.029	1510.623	-4.260	-0.137	3.710	-5.742	-0.536	8.421
241884.674	NaN	-3.196	1.239	9.413	1505.495	1504.029	1511.355	-4.076	-0.229	3.725	-5.818	-0.536	8.421
241885.651	NaN	-3.196	1.250	9.413	1504.762	1505.495	1510.623	-4.229	-0.229	3.542	-5.971	-0.459	8.344
241886.627	NaN	-3.196	1.250	9.413	1505.495	1504.029	1509.890	-4.458	-0.137	3.466	-5.971	-0.536	8.268
241887.604	NaN	-3.185	1.239	9.413	1504.762	1504.029	1510.623	-4.763	-0.229	3.588	-5.895	-0.612	8.344
241888.580	NaN	-3.185	1.239	9.413	1504.762	1503.297	1509.890	-4.687	-0.076	3.740	-5.818	-0.536	8.344
241889.557	NaN	-3.196	1.239	9.413	1505.495	1503.297	1509.890	-4.565	-0.031	3.939	-5.895	-0.689	8.344
241890.533	NaN	-3.196	1.261	9.424	1506.227	1504.029	1509.890	-4.641	-0.137	3.740	-5.895	-0.689	8.344
241891.510	NaN	-3.207	1.250	9.424	1505.495	1504.029	1509.158	-4.611	-0.198	3.466	-5.895	-0.612	8.421
241892.487	NaN	-3.207	1.239	9.413	1506.227	1504.029	1511.355	-4.840	-0.153	3.603	-5.818	-0.536	8.268
241893.463	NaN	-3.207	1.239	9.413	1505.495	1503.297	1510.623	-4.702	-0.107	3.618	-5.742	-0.612	8.421
241894.440	NaN	-3.217	1.239	9.402	1506.227	1504.029	1509.890	-4.458	-0.183	3.588	-5.895	-0.536	8.344
241895.416	NaN	-3.196	1.228	9.391	1504.762	1504.029	1511.355	-4.473	-0.153	3.740	-5.895	-0.689	8.268
241896.393	NaN	-3.196	1.239	9.402	1504.762	1504.762	1511.355	-4.595	-0.244	3.939	-5.742	-0.612	8.268
241897.369	NaN	-3.196	1.239	9.402	1504.762	1503.297	1509.890	-4.565	-0.305	3.832	-5.895	-0.536	8.344
241898.346	NaN	-3.196	1.228	9.413	1505.495	1504.029	1509.890	-4.458	-0.290	3.710	-5.895	-0.689	8.268
241899.323	NaN	-3.185	1.228	9.402	1504.762	1504.029	1509.158	-4.458	-0.183	3.695	-5.818	-0.689	8.038
241900.299	NaN	-3.185	1.250	9.413	1504.762	1504.762	1509.158	-4.550	0.031	3.863	-5.895	-0.536	8.344
241901.276	NaN	-3.185	1.250	9.413	1505.495	1504.029	1509.158	-4.443	-0.107	4.122	-5.971	-0.612	8.421
241902.252	NaN	-3.185	1.250	9.413	1505.495	1504.029	1511.355	-4.427	-0.214	3.832	-5.971	-0.689	8.344
241903.229	NaN	-3.196	1.239	9.413	1504.762	1504.762	1509.890	-4.611	-0.244	3.542	-5.895	-0.689	8.191
241904.205	NaN	-3.185	1.250	9.413	1505.495	1504.029	1509.890	-4.702	-0.137	3.649	-5.742	-0.536	8.344
241905.182	NaN	-3.196	1.239	9.402	1506.227	1502.564	1509.890	-4.824	-0.321	3.756	-5.742	-0.689	8.344
241906.158	NaN	-3.196	1.239	9.402	1504.029	1503.297	1509.158	-4.733	-0.366	3.802	-5.895	-0.536	8.344
241907.135	NaN	-3.185	1.239	9.413	1505.495	1503.297	1510.623	-4.580	-0.336	3.634	-5.895	-0.536	8.268
241908.112	NaN	-3.185	1.250	9.413	1505.495	1504.029	1510.623	-4.641	-0.260	3.420	-5.895	-0.612	8.421
241909.088	NaN	-3.185	1.239	9.413	1505.495	1504.029	1510.623	-4.504	-0.321	3.603	-5.742	-0.612	8.268
241910.065	NaN	-3.174	1.239	9.413	1506.227	1503.297	1509.890	-4.351	-0.168	3.847	-5.742	-0.689	8.344
241911.041	NaN	-3.185	1.228	9.424	1505.495	1503.297	1507.692	-4.351	-0.168	3.847	-5.895	-0.612	8.344
241912.018	NaN	-3.185	1.239	9.413	1506.227	1503.297	1508.425	-4.397	-0.305	3.771	-5.971	-0.612	8.344
241912.994	NaN	-3.185	1.228	9.413	1509.158	1503.297	1509.890	-4.489	-0.275	3.740	-5.895	-0.612	8.268
241913.971	NaN	-3.185	1.239	9.413	1504.029	1503.297	1509.158	-4.611	-0.137	3.756	-5.818	-0.536	8.268
241914.948	NaN	-3.185	1.250	9.413	1505.495	1503.297	1509.890	-4.580	-0.092	3.664	-5.971	-0.612	8.421
241915.924	NaN	-3.174	1.250	9.424	1504.762	1503.297	1509.890	-4.458	-0.092	3.634	-5.971	-0.612	8.421
241916.901	NaN	-3.185	1.250	9.413	1505.495	1504.029	1509.890	-4.260	-0.137	3.618	-5.818	-0.689	8.268
241917.877	NaN	-3.174	1.239	9.402	1504.762	1503.297	1510.623	-4.443	-0.183	3.771	-5.742	-0.689	8.344
241918.854	NaN	-3.174	1.239	9.413	1504.762	1503.297	1510.623	-4.565	-0.214	3.954	-5.818	-0.536	8.268
241919.830	NaN	-3.185	1.239	9.402	1504.762	1504.029	1509.890	-4.779	-0.229	4.000	-5.971	-0.536	8.268
241920.807	NaN	-3.185	1.239	9.402	1506.227	1503.297	1509.158	-4.748	-0.275	3.802	-5.818	-0.612	8.344
241921.783	NaN	-3.185	1.261	9.413	1504.762	1504.029	1511.355	-4.824	-0.366	3.634	-5.971	-0.612	8.191
241922.760	3736848175.733	-3.207	1.239	9.413	1505.495	1503.297	1509.890	-4.748	-0.366	3.756	-5.895	-0.766	8.344
241923.737	NaN	-3.207	1.239	9.413	1504.029	1503.297	1509.158	-4.550	-0.229	3.832	-5.818	-0.612	8.268
241924.713	NaN	-3.196	1.228	9.424	1504.762	1503.297	1511.355	-4.565	-0.061	3.634	-5.742	-0.612	8.191
241925.690	NaN	-3.196	1.228	9.413	1504.762	1503.297	1508.425	-4.779	-0.122	3.664	-5.818	-0.459	8.421
241926.666	NaN	-3.196	1.228	9.424	1504.762	1503.297	1509.158	-4.687	-0.214	3.863	-5.895	-0.689	8.498
241927.643	NaN	-3.196	1.228	9.402	1505.495	1504.029	1509.158	-4.473	-0.153	3.710	-5.818	-0.689	8.498
241928.619	NaN	-3.196	1.217	9.413	1504.029	1504.029	1509.158	-4.351	-0.122	3.664	-5.895	-0.612	8.191
241929.596	NaN	-3.196	1.228	9.402	1504.029	1504.029	1509.890	-4.366	-0.244	3.802	-5.895	-0.536	8.268
241930.573	NaN	-3.196	1.228	9.391	1504.762	1503.297	1509.890	-4.519	-0.336	3.847	-5.971	-0.689	8.268
