Timestamp	PC Timestamp	Low Noise Accelerometer X	Low Noise Accelerometer Y	Low Noise Accelerometer Z	Int A12	Int A13	Int A14	Gyroscope X	Gyroscope Y	Gyroscope Z	Wide Range Accelerometer X	Wide Range Accelerometer Y	Wide Range Accelerometer Z
469465.729	NaN	2.783	7.598	-4.707	1511.355	1499.634	1501.099	-0.626	3.435	-5.511	0.689	6.278	-7.043
469466.705	NaN	2.793	7.609	-4.707	1512.088	1500.366	1500.366	-0.687	3.374	-5.618	0.689	6.278	-6.967
469467.682	NaN	2.804	7.609	-4.696	1511.355	1499.634	1500.366	-0.595	3.435	-5.695	0.842	6.278	-6.890
469468.658	NaN	2.815	7.609	-4.696	1511.355	1499.634	1499.634	-0.595	3.435	-5.573	0.689	6.201	-7.120
469469.635	NaN	2.804	7.620	-4.707	1511.355	1500.366	1500.366	-0.595	3.435	-5.496	0.766	6.201	-6.967
469470.612	NaN	2.793	7.620	-4.707	1512.088	1500.366	1498.901	-0.656	3.435	-5.374	0.536	6.278	-6.890
469471.588	NaN	2.793	7.620	-4.707	1512.088	1500.366	1500.366	-0.565	3.405	-5.374	0.612	6.201	-7.120
469472.565	NaN	2.804	7.620	-4.696	1511.355	1500.366	1501.099	-0.687	3.282	-5.405	0.689	6.278	-7.120
469473.541	NaN	2.793	7.598	-4.696	1510.623	1499.634	1499.634	-0.672	3.282	-5.588	0.766	6.354	-7.043
469474.518	NaN	2.804	7.609	-4.696	1512.088	1500.366	1499.634	-0.504	3.374	-5.649	0.689	6.201	-7.120
469475.494	NaN	2.815	7.609	-4.696	1512.088	1498.901	1501.099	-0.519	3.466	-5.649	0.842	6.278	-7.120
469476.471	NaN	2.804	7.620	-4.685	1512.088	1500.366	1499.634	-0.626	3.573	-5.374	0.766	6.124	-6.890
469477.448	NaN	2.793	7.609	-4.696	1512.088	1499.634	1501.099	-0.916	3.313	-5.557	0.766	6.278	-6.967
469478.424	NaN	2.783	7.598	-4.707	1512.088	1500.366	1498.901	-0.947	3.221	-5.634	0.689	6.278	-6.967
469479.401	NaN	2.793	7.609	-4.707	1512.088	1499.634	1501.099	-0.565	3.237	-5.618	0.689	6.354	-7.120
469480.377	NaN	2.793	7.620	-4.707	1511.355	1499.634	1499.634	-0.427	3.527	-5.450	0.766	6.278	-7.043
469481.354	NaN	2.793	7.609	-4.707	1511.355	1499.634	1501.832	-0.458	3.573	-5.374	0.689	6.124	-6.967
469482.330	NaN	2.793	7.609	-4.717	1511.355	1499.634	1501.099	-0.763	3.618	-5.420	0.689	6.124	-7.043
469483.307	NaN	2.793	7.609	-4.717	1509.890	1500.366	1500.366	-0.931	3.664	-5.435	0.612	6.124	-6.890
469484.283	NaN	2.793	7.609	-4.707	1510.623	1498.168	1501.099	-0.656	3.557	-5.466	0.612	6.201	-6.967
469485.260	NaN	2.793	7.609	-4.685	1509.890	1498.901	1501.832	-0.489	3.435	-5.405	0.842	6.278	-7.043
469486.237	NaN	2.793	7.609	-4.685	1512.088	1500.366	1500.366	-0.443	3.435	-5.405	0.612	6.278	-7.043
469487.213	NaN	2.783	7.609	-4.707	1511.355	1499.634	1500.366	-0.550	3.557	-5.466	0.612	6.431	-6.967
469488.190	NaN	2.793	7.620	-4.696	1511.355	1499.634	1501.832	-0.672	3.542	-5.466	0.689	6.354	-6.737
469489.166	NaN	2.783	7.609	-4.696	1511.355	1500.366	1501.099	-0.702	3.450	-5.603	0.766	6.278	-6.967
469490.143	NaN	2.783	7.620	-4.685	1510.623	1498.901	1501.832	-0.794	3.344	-5.542	0.919	6.124	-7.043
469491.119	NaN	2.793	7.620	-4.685	1509.890	1499.634	1501.099	-0.565	3.267	-5.450	0.766	6.278	-6.813
469492.096	NaN	2.793	7.620	-4.707	1512.088	1500.366	1501.099	-0.519	3.328	-5.496	0.689	6.278	-6.967
469493.073	NaN	2.793	7.620	-4.685	1511.355	1500.366	1499.634	-0.550	3.313	-5.618	0.689	6.278	-7.043
469494.049	NaN	2.793	7.620	-4.685	1512.088	1500.366	1499.634	-0.443	3.313	-5.756	0.766	6.354	-7.043
469495.026	NaN	2.793	7.598	-4.696	1512.088	1499.634	1501.099	-0.672	3.634	-5.573	0.766	6.201	-7.043
469496.002	NaN	2.783	7.598	-4.707	1512.088	1499.634	1500.366	-0.733	3.771	-5.466	0.612	6.201	-6.890
469496.979	NaN	2.793	7.598	-4.685	1512.088	1499.634	1502.564	-0.595	3.634	-5.450	0.689	6.278	-6.813
469497.955	NaN	2.793	7.609	-4.696	1512.088	1499.634	1501.099	-0.565	3.466	-5.389	0.612	6.278	-7.043
469498.932	NaN	2.783	7.609	-4.696	1511.355	1500.366	1500.366	-0.458	3.435	-5.344	0.689	6.278	-7.120
469499.908	NaN	2.793	7.609	-4.696	1511.355	1499.634	1501.832	-0.794	3.405	-5.328	0.842	6.124	-7.043
469500.885	NaN	2.783	7.609	-4.707	1512.821	1500.366	1498.901	-0.977	3.420	-5.649	0.919	6.278	-7.043
469501.862	NaN	2.793	7.620	-4.696	1512.088	1499.634	1501.832	-0.687	3.466	-5.802	0.842	6.278	-7.043
469502.838	NaN	2.793	7.620	-4.707	1511.355	1499.634	1500.366	-0.427	3.496	-5.588	0.766	6.354	-7.043
469503.815	NaN	2.793	7.609	-4.707	1511.355	1499.634	1501.099	-0.443	3.588	-5.466	0.689	6.278	-6.890
469504.791	NaN	2.783	7.609	-4.707	1510.623	1499.634	1500.366	-0.504	3.603	-5.496	0.766	6.201	-7.120
469505.768	NaN	2.793	7.609	-4.685	1512.088	1500.366	1500.366	-0.458	3.405	-5.481	0.766	6.201	-7.043
469506.744	NaN	2.793	7.620	-4.685	1511.355	1500.366	1500.366	-0.641	3.511	-5.405	0.842	6.278	-6.967
469507.721	NaN	2.793	7.609	-4.685	1511.355	1499.634	1501.099	-0.565	3.557	-5.344	0.766	6.201	-6.967
469508.698	NaN	2.793	7.598	-4.696	1510.623	1499.634	1500.366	-0.519	3.557	-5.252	0.689	6.354	-7.120
469509.674	NaN	2.783	7.587	-4.696	1510.623	1500.366	1501.099	-0.519	3.527	-5.206	0.612	6.124	-6.967
469510.651	NaN	2.793	7.598	-4.674	1511.355	1498.901	1500.366	-0.412	3.374	-5.267	0.842	6.201	-7.043
469511.627	NaN	2.793	7.598	-4.696	1511.355	1499.634	1500.366	-0.382	3.527	-5.496	0.689	6.201	-7.043
469512.604	NaN	2.804	7.609	-4.685	1512.088	1499.634	1500.366	-0.489	3.649	-5.542	0.766	6.278	-6.967
469513.580	NaN	2.793	7.598	-4.707	1510.623	1499.634	1501.099	-0.519	3.725	-5.420	0.766	6.201	-7.043
469514.557	NaN	2.804	7.598	-4.707	1512.088	1498.901	1500.366	-0.519	3.573	-5.237	0.842	6.278	-7.196
469515.533	NaN	2.793	7.587	-4.707	1510.623	1499.634	1500.366	-0.580	3.542	-5.145	0.766	6.354	-7.120
469516.510	NaN	2.804	7.598	-4.696	1511.355	1498.901	1500.366	-0.504	3.542	-5.466	0.919	6.278	-7.043
469517.487	NaN	2.804	7.598	-4.685	1510.623	1499.634	1501.099	-0.489	3.328	-5.435	0.766	6.354	-6.890
469518.463	NaN	2.793	7.598	-4.696	1509.890	1498.901	1501.099	-0.458	3.450	-5.221	0.689	6.278	-6.967
469519.440	NaN	2.804	7.609	-4.685	1510.623	1500.366	1498.901	-0.626	3.420	-5.191	0.689	6.201	-7.120
469520.416	NaN	2.804	7.609	-4.674	1512.088	1500.366	1501.099	-0.840	3.344	-5.115	0.766	6.201	-6.967
469521.393	NaN	2.804	7.609	-4.685	1511.355	1499.634	1500.366	-0.824	3.573	-5.252	0.842	6.201	-7.043
469522.369	NaN	2.804	7.609	-4.685	1511.355	1498.901	1501.099	-0.412	3.588	-5.573	0.766	6.278	-6.890
469523.346	NaN	2.793	7.609	-4.696	1510.623	1500.366	1499.634	-0.519	3.557	-5.511	0.842	6.201	-7.196
469524.323	NaN	2.793	7.609	-4.685	1512.088	1498.901	1500.366	-0.611	3.603	-5.344	0.766	6.124	-7.043
469525.299	NaN	2.793	7.598	-4.685	1511.355	1498.901	1501.099	-0.656	3.527	-5.466	0.689	6.201	-6.967
469526.276	NaN	2.804	7.598	-4.696	1511.355	1500.366	1500.366	-0.702	3.435	-5.420	0.689	6.278	-7.043
469527.252	NaN	2.793	7.609	-4.707	1509.890	1499.634	1501.832	-0.611	3.573	-5.420	0.689	6.201	-7.120
469528.229	NaN	2.793	7.620	-4.696	1512.088	1500.366	1499.634	-0.580	3.740	-5.420	0.766	6.201	-7.043
469529.205	NaN	2.783	7.609	-4.696	1511.355	1499.634	1501.099	-0.641	3.679	-5.389	0.612	6.201	-7.120
469530.182	NaN	2.783	7.609	-4.696	1511.355	1500.366	1501.099	-0.687	3.679	-5.466	0.842	6.201	-6.890
469531.158	NaN	2.772	7.609	-4.696	1511.355	1498.901	1500.366	-0.672	3.435	-5.359	0.766	6.201	-6.967
469532.135	NaN	2.783	7.609	-4.707	1512.088	1499.634	1502.564	-0.809	3.237	-5.374	0.842	6.278	-6.890
469533.112	NaN	2.783	7.598	-4.707	1511.355	1500.366	1500.366	-0.885	3.267	-5.527	0.766	6.278	-6.967
469534.088	NaN	2.783	7.609	-4.707	1512.088	1499.634	1501.099	-0.672	3.313	-5.496	0.689	6.278	-7.120
469535.065	NaN	2.761	7.609	-4.717	1509.890	1500.366	1498.901	-0.458	3.435	-5.313	0.689	6.278	-6.890
469536.041	NaN	2.761	7.598	-4.707	1511.355	1498.901	1501.099	-0.382	3.527	-5.160	0.689	6.201	-7.043
469537.018	NaN	2.772	7.609	-4.696	1512.088	1500.366	1498.901	-0.641	3.420	-5.145	0.689	6.278	-7.120
469537.994	NaN	2.783	7.609	-4.696	1512.821	1499.634	1500.366	-0.595	3.237	-5.282	0.689	6.278	-6.967
469538.971	NaN	2.783	7.609	-4.696	1511.355	1498.901	1500.366	-0.427	3.267	-5.435	0.689	6.201	-6.890
469539.948	NaN	2.793	7.620	-4.696	1512.088	1499.634	1500.366	-0.458	3.328	-5.313	0.689	6.201	-6.967
469540.924	NaN	2.783	7.609	-4.696	1511.355	1500.366	1500.366	-0.473	3.496	-5.328	0.689	6.201	-6.967
469541.901	NaN	2.793	7.609	-4.685	1512.088	1499.634	1501.099	-0.321	3.634	-5.389	0.689	6.201	-7.120
469542.877	NaN	2.783	7.587	-4.696	1512.821	1498.901	1500.366	-0.351	3.588	-5.344	0.842	6.354	-6.967
469543.854	NaN	2.783	7.598	-4.685	1510.623	1499.634	1500.366	-0.397	3.420	-5.344	0.766	6.354	-7.120
469544.830	NaN	2.772	7.598	-4.685	1511.355	1499.634	1500.366	-0.611	3.511	-5.359	0.689	6.201	-7.196
469545.807	NaN	2.783	7.609	-4.685	1512.088	1500.366	1499.634	-0.794	3.542	-5.374	0.766	6.201	-7.120
469546.783	NaN	2.783	7.598	-4.685	1507.692	1500.366	1500.366	-0.534	3.603	-5.496	0.842	6.201	-7.043
469547.760	NaN	2.783	7.609	-4.685	1512.088	1499.634	1500.366	-0.214	3.603	-5.634	0.612	6.278	-7.043
469548.737	NaN	2.783	7.609	-4.685	1512.088	1498.901	1501.099	-0.153	3.496	-5.313	0.612	6.354	-6.967
469549.713	NaN	2.772	7.598	-4.696	1510.623	1500.366	1501.099	-0.260	3.527	-5.176	0.689	6.278	-7.043
469550.690	NaN	2.793	7.609	-4.696	1512.088	1500.366	1500.366	-0.458	3.588	-5.267	0.689	6.354	-6.967
469551.666	NaN	2.793	7.609	-4.696	1512.088	1499.634	1501.099	-0.672	3.649	-5.130	0.689	6.278	-6.967
469552.643	NaN	2.804	7.620	-4.685	1510.623	1499.634	1501.832	-0.794	3.618	-5.298	0.612	6.201	-7.043
469553.619	NaN	2.793	7.609	-4.696	1510.623	1498.901	1501.099	-0.504	3.588	-5.374	0.689	6.278	-7.196
469554.596	NaN	2.793	7.609	-4.696	1512.088	1499.634	1501.832	-0.458	3.481	-5.130	0.689	6.278	-7.120
469555.573	NaN	2.793	7.598	-4.696	1511.355	1498.901	1500.366	-0.626	3.573	-5.191	0.766	6.201	-7.043
469556.549	NaN	2.804	7.609	-4.685	1510.623	1499.634	1501.832	-0.718	3.771	-5.252	0.689	6.278	-6.967
469557.526	NaN	2.804	7.598	-4.696	1511.355	1500.366	1501.099	-0.611	3.832	-5.252	0.612	6.124	-6.890
469558.502	NaN	2.804	7.598	-4.696	1509.890	1498.901	1500.366	-0.260	3.634	-5.298	0.842	6.201	-7.043
469559.479	NaN	2.804	7.609	-4.696	1512.821	1499.634	1501.832	-0.397	3.649	-5.374	0.766	6.201	-7.120
469560.455	NaN	2.793	7.598	-4.696	1512.088	1498.168	1501.099	-0.794	3.695	-5.420	0.689	6.278	-6.967
469561.432	NaN	2.793	7.598	-4.685	1510.623	1498.901	1499.634	-0.855	3.573	-5.206	0.766	6.278	-6.890
469562.408	NaN	2.804	7.587	-4.696	1510.623	1498.901	1501.832	-0.489	3.603	-5.053	0.842	6.507	-7.043
469563.385	NaN	2.804	7.587	-4.696	1509.890	1499.634	1500.366	-0.397	3.603	-5.191	0.612	6.278	-7.120
469564.362	NaN	2.815	7.598	-4.685	1510.623	1499.634	1502.564	-0.611	3.481	-5.313	0.766	6.278	-7.120
469565.338	NaN	2.804	7.609	-4.707	1512.088	1499.634	1500.366	-0.626	3.420	-5.298	0.766	6.201	-6.967
469566.315	NaN	2.804	7.609	-4.707	1509.890	1498.901	1499.634	-0.702	3.481	-5.145	0.689	6.354	-7.120
469567.291	NaN	2.793	7.609	-4.707	1510.623	1499.634	1500.366	-0.519	3.649	-5.130	0.689	6.124	-6.967
469568.268	NaN	2.793	7.598	-4.696	1508.425	1498.901	1500.366	-0.397	3.634	-5.435	0.689	6.201	-7.043
469569.244	NaN	2.804	7.609	-4.696	1511.355	1499.634	1500.366	-0.504	3.557	-5.634	0.766	6.201	-6.967
469570.221	NaN	2.804	7.598	-4.717	1511.355	1500.366	1500.366	-0.397	3.496	-5.542	0.766	6.354	-7.196
469571.198	NaN	2.793	7.587	-4.728	1509.890	1498.901	1499.634	-0.351	3.481	-5.389	0.536	6.201	-6.967
469572.174	NaN	2.783	7.587	-4.717	1510.623	1500.366	1500.366	-0.473	3.420	-5.115	0.766	6.201	-7.120
469573.151	NaN	2.783	7.587	-4.717	1511.355	1498.901	1500.366	-0.626	3.542	-5.145	0.766	6.201	-7.196
469574.127	NaN	2.804	7.587	-4.696	1511.355	1498.901	1500.366	-0.443	3.679	-5.328	0.842	6.201	-6.967
469575.104	NaN	2.793	7.587	-4.696	1512.088	1498.901	1500.366	-0.534	3.634	-5.389	0.689	6.278	-6.967
469576.080	NaN	2.793	7.587	-4.696	1511.355	1498.901	1501.099	-0.626	3.664	-5.328	0.842	6.124	-6.967
469577.057	NaN	2.804	7.598	-4.685	1511.355	1500.366	1501.832	-0.626	3.802	-5.313	0.842	6.354	-7.043
469578.033	NaN	2.793	7.598	-4.685	1511.355	1499.634	1501.099	-0.534	3.664	-5.344	0.842	6.278	-7.043
469579.010	NaN	2.804	7.609	-4.674	1511.355	1498.168	1501.099	-0.275	3.527	-5.344	0.689	6.201	-7.043
469579.987	NaN	2.783	7.609	-4.685	1512.088	1499.634	1501.099	-0.290	3.649	-5.252	0.689	6.201	-6.967
469580.963	NaN	2.783	7.620	-4.707	1510.623	1498.901	1500.366	-0.611	3.771	-5.221	0.766	6.278	-7.120
469581.940	NaN	2.793	7.609	-4.696	1511.355	1499.634	1500.366	-0.809	3.634	-5.206	0.842	6.278	-7.043
469582.916	NaN	2.793	7.609	-4.717	1512.088	1499.634	1499.634	-0.656	3.511	-5.359	0.766	6.278	-7.120
469583.893	NaN	2.804	7.598	-4.717	1510.623	1498.168	1499.634	-0.397	3.542	-5.405	0.612	6.354	-7.043
469584.869	NaN	2.793	7.598	-4.728	1509.890	1499.634	1500.366	-0.427	3.496	-5.328	0.689	6.354	-7.043
469585.846	NaN	2.793	7.587	-4.717	1511.355	1498.168	1499.634	-0.626	3.634	-5.328	0.842	6.354	-6.967
469586.823	NaN	2.804	7.598	-4.696	1512.088	1499.634	1501.099	-0.550	3.740	-5.267	0.766	6.278	-7.043
469587.799	NaN	2.804	7.609	-4.717	1511.355	1499.634	1500.366	-0.565	3.573	-5.344	0.766	6.278	-6.967
469588.776	NaN	2.804	7.609	-4.717	1509.890	1498.168	1499.634	-0.458	3.450	-5.328	0.689	6.278	-7.196
469589.752	NaN	2.804	7.609	-4.707	1510.623	1499.634	1500.366	-0.534	3.664	-5.237	0.689	6.278	-7.043
469590.729	NaN	2.804	7.609	-4.707	1509.890	1498.901	1500.366	-0.443	3.725	-5.267	0.689	6.124	-7.043
469591.705	NaN	2.815	7.609	-4.696	1510.623	1500.366	1501.099	-0.458	3.618	-5.176	0.612	6.201	-6.967
469592.682	NaN	2.815	7.598	-4.707	1512.088	1499.634	1501.832	-0.473	3.496	-5.160	0.766	6.278	-6.967
469593.658	NaN	2.804	7.598	-4.717	1512.088	1498.901	1499.634	-0.443	3.588	-5.221	0.689	6.201	-7.043
469594.635	NaN	2.804	7.609	-4.707	1511.355	1499.634	1501.099	-0.504	3.450	-5.130	0.919	6.278	-6.967
469595.612	NaN	2.793	7.609	-4.717	1510.623	1498.168	1499.634	-0.473	3.313	-5.267	0.766	6.278	-6.967
469596.588	NaN	2.804	7.609	-4.707	1510.623	1499.634	1504.029	-0.366	3.481	-5.298	0.919	6.278	-7.120
469597.565	NaN	2.793	7.598	-4.717	1512.088	1499.634	1501.832	-0.275	3.740	-5.267	0.689	6.278	-6.967
469598.541	NaN	2.793	7.598	-4.707	1511.355	1498.168	1500.366	-0.168	3.710	-5.237	0.612	6.278	-7.196
469599.518	NaN	2.793	7.609	-4.696	1512.088	1499.634	1500.366	-0.183	3.511	-5.130	0.612	6.278	-7.043
469600.494	NaN	2.783	7.598	-4.707	1511.355	1498.901	1500.366	-0.336	3.466	-5.206	0.689	6.201	-7.196
469601.471	NaN	2.783	7.609	-4.707	1510.623	1497.436	1500.366	-0.534	3.481	-5.389	0.689	6.354	-6.967
469602.448	NaN	2.783	7.609	-4.717	1511.355	1498.901	1499.634	-0.473	3.481	-5.344	0.766	6.354	-7.043
469603.424	NaN	2.783	7.609	-4.728	1510.623	1498.901	1501.099	-0.198	3.496	-5.145	0.842	6.278	-7.043
469604.401	NaN	2.783	7.609	-4.728	1510.623	1499.634	1501.099	-0.183	3.405	-5.298	0.612	6.201	-6.813
469605.377	NaN	2.793	7.609	-4.717	1512.821	1499.634	1501.099	-0.305	3.511	-5.405	0.766	6.278	-6.890
469606.354	NaN	2.793	7.598	-4.696	1511.355	1500.366	1501.099	-0.473	3.771	-5.359	0.689	6.354	-7.120
469607.330	NaN	2.783	7.598	-4.707	1511.355	1499.634	1500.366	-0.580	3.756	-5.328	0.689	6.278	-6.967
469608.307	NaN	2.793	7.609	-4.717	1511.355	1500.366	1500.366	-0.412	3.573	-5.328	0.766	6.124	-7.043
469609.283	NaN	2.793	7.620	-4.707	1511.355	1499.634	1500.366	-0.397	3.466	-5.389	0.612	6.354	-6.890
469610.260	NaN	2.804	7.620	-4.707	1511.355	1499.634	1499.634	-0.534	3.511	-5.420	0.689	6.278	-6.890
469611.237	NaN	2.793	7.620	-4.707	1511.355	1499.634	1501.099	-0.794	3.603	-5.160	0.689	6.278	-7.043
469612.213	NaN	2.793	7.620	-4.717	1512.088	1498.901	1500.366	-0.595	3.557	-5.145	0.689	6.124	-6.967
469613.190	NaN	2.793	7.620	-4.696	1511.355	1500.366	1498.901	-0.489	3.695	-5.160	0.612	6.278	-7.043
469614.166	NaN	2.793	7.598	-4.707	1511.355	1499.634	1501.832	-0.519	3.496	-5.176	0.612	6.201	-7.196
469615.143	NaN	2.793	7.620	-4.707	1512.088	1500.366	1499.634	-0.580	3.328	-5.252	0.689	6.278	-7.043
469616.119	NaN	2.804	7.598	-4.717	1512.088	1498.901	1500.366	-0.550	3.450	-5.145	0.766	6.278	-7.043
469617.096	NaN	2.804	7.598	-4.707	1511.355	1499.634	1501.099	-0.458	3.496	-5.099	0.689	6.278	-7.120
469618.073	NaN	2.815	7.587	-4.696	1511.355	1500.366	1500.366	-0.519	3.557	-5.160	0.766	6.201	-7.120
469619.049	NaN	2.804	7.598	-4.696	1511.355	1499.634	1500.366	-0.321	3.496	-5.023	0.689	6.201	-6.967
469620.026	NaN	2.793	7.587	-4.685	1511.355	1498.901	1500.366	-0.489	3.344	-4.916	0.766	6.201	-6.967
469621.002	NaN	2.793	7.587	-4.696	1512.088	1499.634	1500.366	-0.458	3.542	-5.191	0.766	6.201	-7.043
469621.979	NaN	2.804	7.587	-4.696	1512.821	1499.634	1501.099	-0.366	3.573	-5.374	0.766	6.201	-6.967
469622.955	NaN	2.804	7.598	-4.696	1512.088	1499.634	1500.366	-0.473	3.618	-5.405	0.766	6.278	-6.967
469623.932	NaN	2.804	7.587	-4.717	1510.623	1498.901	1501.099	-0.443	3.664	-5.221	0.766	6.354	-7.043
469624.908	NaN	2.804	7.587	-4.717	1512.088	1499.634	1501.832	-0.519	3.573	-5.053	0.689	6.124	-7.043
469625.885	NaN	2.793	7.587	-4.717	1510.623	1499.634	1501.099	-0.336	3.344	-5.099	0.766	6.354	-7.196
469626.862	NaN	2.793	7.598	-4.707	1512.088	1500.366	1499.634	-0.351	3.374	-5.313	0.689	6.354	-7.043
469627.838	NaN	2.783	7.587	-4.707	1512.821	1498.901	1500.366	-0.336	3.511	-5.420	0.766	6.278	-6.967
469628.815	NaN	2.772	7.587	-4.707	1511.355	1499.634	1501.099	-0.519	3.573	-5.252	0.766	6.278	-7.120
469629.791	NaN	2.783	7.587	-4.707	1509.890	1499.634	1500.366	-0.550	3.649	-5.237	0.842	6.278	-6.967
469630.768	NaN	2.804	7.609	-4.707	1511.355	1500.366	1499.634	-0.412	3.679	-5.359	0.842	6.201	-7.043
469631.744	NaN	2.804	7.598	-4.696	1511.355	1498.901	1501.099	-0.336	3.679	-5.282	0.689	6.201	-6.967
469632.721	NaN	2.793	7.598	-4.696	1510.623	1500.366	1500.366	-0.244	3.618	-5.038	0.766	6.201	-7.043
469633.698	NaN	2.783	7.609	-4.707	1511.355	1500.366	1500.366	-0.244	3.542	-5.099	0.612	6.124	-7.120
469634.674	NaN	2.783	7.609	-4.707	1511.355	1499.634	1501.099	-0.473	3.542	-5.084	0.612	6.278	-7.043
469635.651	NaN	2.793	7.598	-4.696	1511.355	1499.634	1501.099	-0.595	3.511	-5.176	0.689	6.354	-7.043
469636.627	NaN	2.783	7.598	-4.717	1511.355	1498.901	1499.634	-0.595	3.573	-5.313	0.766	6.201	-7.120
469637.604	NaN	2.793	7.598	-4.707	1510.623	1498.901	1500.366	-0.443	3.588	-5.359	0.766	7.273	-7.043
469638.580	NaN	2.793	7.587	-4.717	1510.623	1499.634	1502.564	-0.534	3.634	-5.206	0.612	6.124	-7.043
469639.557	NaN	2.804	7.598	-4.717	1511.355	1500.366	1500.366	-0.580	3.634	-5.206	0.612	6.201	-6.967
469640.533	NaN	2.793	7.598	-4.707	1512.088	1499.634	1501.099	-0.427	3.588	-5.237	0.766	6.201	-7.273
469641.510	NaN	2.783	7.598	-4.707	1511.355	1499.634	1501.099	-0.260	3.649	-5.160	0.612	6.278	-7.043
469642.487	NaN	2.783	7.587	-4.696	1510.623	1499.634	1500.366	-0.412	3.695	-5.298	0.766	6.124	-6.967
469643.463	NaN	2.772	7.587	-4.707	1512.088	1499.634	1498.901	-0.641	3.603	-5.405	0.689	6.201	-6.890
469644.440	NaN	2.783	7.587	-4.696	1512.088	1500.366	1500.366	-0.458	3.542	-5.389	0.536	6.278	-7.043
469645.416	NaN	2.783	7.587	-4.685	1511.355	1499.634	1500.366	-0.443	3.573	-5.221	0.842	6.201	-7.043
469646.393	NaN	2.783	7.598	-4.685	1512.088	1500.366	1499.634	-0.305	3.557	-5.267	0.689	6.201	-6.967
469647.369	NaN	2.772	7.587	-4.696	1512.088	1499.634	1500.366	-0.290	3.557	-5.298	0.612	6.201	-6.967
469648.346	NaN	2.772	7.598	-4.696	1511.355	1500.366	1498.901	-0.260	3.603	-5.282	0.689	6.201	-6.890
469649.323	NaN	2.783	7.576	-4.685	1510.623	1499.634	1501.099	-0.183	3.634	-5.282	0.689	6.278	-7.043
469650.299	NaN	2.793	7.587	-4.696	1510.623	1499.634	1501.099	-0.427	3.649	-5.282	0.689	6.124	-7.043
469651.276	NaN	2.793	7.576	-4.696	1511.355	1499.634	1500.366	-0.718	3.466	-5.053	0.689	6.201	-7.043
469652.252	NaN	2.793	7.587	-4.685	1509.890	1498.901	1498.901	-0.763	3.450	-5.008	0.689	6.278	-6.967
469653.229	NaN	2.793	7.598	-4.685	1511.355	1500.366	1500.366	-0.473	3.466	-5.206	0.689	6.278	-6.967
469654.205	NaN	2.793	7.598	-4.674	1512.088	1498.901	1500.366	-0.305	3.481	-5.328	0.689	6.124	-7.043
469655.182	NaN	2.793	7.598	-4.685	1511.355	1499.634	1498.901	-0.351	3.450	-5.313	0.766	6.048	-7.120
469656.158	NaN	2.793	7.598	-4.674	1511.355	1499.634	1500.366	-0.458	3.496	-5.115	0.766	6.278	-7.043
469657.135	NaN	2.793	7.609	-4.696	1510.623	1499.634	1500.366	-0.290	3.573	-5.145	0.689	6.354	-7.043
469658.112	NaN	2.783	7.620	-4.696	1512.088	1499.634	1500.366	-0.260	3.435	-5.237	0.689	6.201	-7.043
469659.088	NaN	2.793	7.609	-4.707	1510.623	1499.634	1501.099	-0.672	3.344	-5.099	0.766	6.278	-7.120
469660.065	NaN	2.783	7.609	-4.717	1511.355	1499.634	1498.901	-0.550	3.496	-5.008	0.612	6.278	-7.120
469661.041	NaN	2.783	7.609	-4.707	1508.425	1499.634	1500.366	-0.260	3.725	-5.191	0.689	6.354	-7.043
469662.018	NaN	2.783	7.620	-4.707	1511.355	1499.634	1501.099	-0.107	3.603	-5.221	0.689	6.278	-7.043
469662.994	NaN	2.772	7.598	-4.717	1509.890	1499.634	1501.099	-0.244	3.359	-5.160	0.689	6.278	-7.120
469663.971	NaN	2.783	7.609	-4.707	1509.890	1498.901	1501.099	-0.290	3.511	-5.191	0.689	6.278	-7.043
469664.948	NaN	2.793	7.598	-4.717	1511.355	1499.634	1501.832	-0.183	3.588	-5.130	0.766	6.124	-6.967
469665.924	NaN	2.783	7.587	-4.717	1510.623	1499.634	1500.366	-0.107	3.450	-5.145	0.612	6.278	-7.043
469666.901	NaN	2.793	7.598	-4.707	1511.355	1499.634	1501.832	-0.290	3.511	-5.115	0.766	6.201	-7.120
469667.877	NaN	2.793	7.598	-4.717	1511.355	1499.634	1500.366	-0.443	3.466	-5.221	0.612	6.278	-6.967
469668.854	NaN	2.804	7.598	-4.707	1509.890	1498.901	1501.832	-0.427	3.389	-5.282	0.689	6.278	-6.967
469669.830	NaN	2.783	7.598	-4.717	1512.088	1500.366	1499.634	-0.458	3.420	-5.191	0.766	6.431	-7.043
469670.807	NaN	2.793	7.598	-4.717	1511.355	1500.366	1500.366	-0.290	3.511	-5.374	0.612	6.201	-7.120
469671.783	NaN	2.793	7.598	-4.707	1512.088	1498.901	1500.366	-0.275	3.618	-5.466	0.689	6.201	-6.890
469672.760	NaN	2.793	7.598	-4.717	1509.890	1498.901	1500.366	-0.351	3.649	-5.389	0.689	6.354	-7.043
469673.737	NaN	2.783	7.598	-4.717	1510.623	1499.634	1500.366	-0.489	3.710	-5.206	0.689	6.201	-6.967
469674.713	NaN	2.793	7.598	-4.728	1509.890	1498.901	1499.634	-0.855	3.603	-5.115	0.536	6.201	-6.967
469675.690	NaN	2.793	7.598	-4.707	1512.088	1499.634	1501.099	-0.733	3.344	-5.069	0.766	6.278	-7.043
469676.666	NaN	2.783	7.587	-4.717	1509.890	1500.366	1500.366	-0.168	3.435	-5.084	0.689	5.053	-6.967
469677.643	NaN	2.772	7.598	-4.728	1510.623	1498.901	1498.901	0.046	3.542	-5.099	0.766	6.431	-7.273
469678.619	NaN	2.793	7.598	-4.717	1511.355	1499.634	1501.099	-0.183	3.435	-5.191	0.766	6.278	-7.043
469679.596	NaN	2.793	7.598	-4.717	1510.623	1498.901	1500.366	-0.336	3.450	-5.237	0.612	6.278	-7.043
469680.573	NaN	2.793	7.609	-4.739	1510.623	1499.634	1500.366	-0.351	3.542	-5.298	0.689	6.354	-6.813
469681.549	NaN	2.783	7.598	-4.750	1511.355	1498.901	1499.634	-0.443	3.679	-5.282	0.766	6.201	-7.196
469682.526	NaN	2.804	7.598	-4.728	1510.623	1499.634	1500.366	-0.473	3.649	-5.145	0.842	6.201	-6.967
469683.502	NaN	2.793	7.609	-4.728	1511.355	1499.634	1499.634	-0.290	3.527	-5.038	0.766	6.124	-6.890
469684.479	NaN	2.783	7.598	-4.728	1509.890	1498.901	1500.366	-0.458	3.664	-5.115	0.842	6.354	-7.043
469685.455	3736841747.713	2.793	7.620	-4.707	1511.355	1501.099	1500.366	-0.611	3.725	-5.191	0.612	6.278	-6.967
469686.432	NaN	2.772	7.620	-4.717	1510.623	1499.634	1500.366	-0.473	3.740	-5.206	0.612	6.507	-6.967
469687.408	NaN	2.772	7.620	-4.717	1509.890	1498.901	1499.634	-0.366	3.557	-4.992	0.612	6.278	-6.967
469688.385	NaN	2.793	7.620	-4.717	1509.890	1499.634	1500.366	-0.443	3.496	-4.885	0.612	6.278	-6.967
469689.362	NaN	2.804	7.609	-4.728	1509.890	1500.366	1498.901	-0.458	3.420	-5.084	0.766	6.201	-7.196
469690.338	NaN	2.804	7.598	-4.739	1510.623	1498.901	1501.099	-0.489	3.450	-5.282	0.612	6.124	-7.196
469691.315	NaN	2.793	7.598	-4.717	1510.623	1498.168	1499.634	-0.519	3.603	-5.359	0.612	6.431	-7.120
469692.291	NaN	2.793	7.598	-4.707	1510.623	1498.901	1500.366	-0.260	3.679	-5.359	0.612	6.124	-7.043
469693.268	NaN	2.793	7.609	-4.717	1511.355	1498.901	1501.099	-0.183	3.679	-5.328	0.689	6.278	-7.043
469694.244	NaN	2.793	7.620	-4.696	1509.890	1498.168	1500.366	-0.183	3.634	-5.145	0.612	6.201	-7.043
469695.221	NaN	2.793	7.630	-4.696	1512.088	1499.634	1501.099	-0.275	3.710	-5.267	0.766	6.278	-6.967
469696.198	NaN	2.804	7.609	-4.696	1512.088	1498.901	1501.099	-0.397	3.527	-5.282	0.612	6.278	-7.120
469697.174	NaN	2.793	7.598	-4.707	1512.088	1499.634	1500.366	-0.107	3.511	-5.221	0.689	6.278	-7.120
469698.151	NaN	2.783	7.609	-4.707	1512.088	1499.634	1501.832	-0.076	3.496	-5.099	0.766	6.201	-6.967
469699.127	NaN	2.793	7.609	-4.707	1512.088	1499.634	1501.832	-0.351	3.557	-5.084	0.612	6.048	-7.043
469700.104	NaN	2.783	7.598	-4.696	1512.088	1499.634	1501.832	-0.275	3.588	-5.053	0.766	6.278	-7.043
469701.080	NaN	2.772	7.598	-4.707	1512.821	1498.901	1502.564	-0.260	3.542	-5.099	0.612	6.201	-7.196
469702.057	NaN	2.783	7.598	-4.707	1512.821	1500.366	1501.832	-0.214	3.603	-5.145	0.689	6.278	-7.043
469703.033	NaN	2.783	7.609	-4.717	1512.088	1500.366	1499.634	-0.305	3.573	-5.099	0.689	6.278	-7.043
469704.010	NaN	2.793	7.598	-4.707	1511.355	1498.901	1501.099	-0.412	3.527	-5.115	0.766	6.124	-7.120
469704.987	NaN	2.783	7.609	-4.717	1511.355	1499.634	1501.099	-0.489	3.618	-5.130	0.842	6.048	-6.890
469705.963	NaN	2.793	7.609	-4.717	1512.088	1499.634	1501.099	-0.489	3.756	-5.206	0.612	6.124	-6.967
469706.940	NaN	2.804	7.620	-4.717	1512.088	1499.634	1500.366	-0.275	3.679	-5.160	0.842	6.201	-7.120
469707.916	NaN	2.793	7.609	-4.728	1509.158	1499.634	1501.099	-0.122	3.557	-5.130	0.689	6.278	-7.120
469708.893	NaN	2.804	7.609	-4.717	1511.355	1499.634	1498.901	-0.351	3.603	-5.115	0.766	6.354	-7.043
469709.869	NaN	2.815	7.609	-4.717	1511.355	1499.634	1501.099	-0.412	3.557	-5.267	0.689	6.201	-7.120
469710.846	NaN	2.804	7.620	-4.717	1512.088	1500.366	1498.901	-0.321	3.282	-5.359	0.536	6.354	-6.967
469711.823	NaN	2.804	7.598	-4.707	1511.355	1500.366	1500.366	-0.351	3.160	-5.206	0.766	6.278	-6.813
469712.799	NaN	2.793	7.609	-4.707	1512.088	1499.634	1501.099	-0.443	3.450	-5.160	0.689	6.278	-6.890
469713.776	NaN	2.783	7.598	-4.707	1511.355	1498.901	1501.099	-0.336	3.603	-5.267	0.612	6.278	-6.967
469714.752	NaN	2.793	7.609	-4.696	1512.088	1498.901	1500.366	-0.305	3.588	-5.481	0.612	6.201	-7.043
469715.729	NaN	2.793	7.598	-4.696	1509.890	1499.634	1500.366	-0.183	3.527	-5.267	0.689	6.278	-6.890
469716.705	NaN	2.804	7.598	-4.685	1512.088	1500.366	1500.366	-0.244	3.466	-4.992	0.612	6.201	-7.120
469717.682	NaN	2.793	7.587	-4.685	1510.623	1499.634	1500.366	-0.076	3.496	-5.053	0.689	6.354	-7.043
469718.658	NaN	2.793	7.609	-4.696	1512.088	1498.901	1499.634	-0.107	3.435	-5.298	0.612	6.278	-7.120
469719.635	NaN	2.804	7.598	-4.685	1511.355	1500.366	1499.634	-0.092	3.527	-5.344	0.766	6.201	-7.120
469720.612	NaN	2.815	7.609	-4.674	1512.088	1499.634	1500.366	-0.076	3.511	-5.237	0.689	6.278	-7.043
469721.588	NaN	2.815	7.609	-4.685	1511.355	1499.634	1501.099	-0.122	3.603	-5.206	0.612	6.278	-6.890
469722.565	NaN	2.815	7.598	-4.696	1510.623	1499.634	1500.366	-0.427	3.740	-5.084	0.612	6.201	-6.967
469723.541	NaN	2.804	7.587	-4.707	1510.623	1498.901	1500.366	-0.611	3.542	-4.977	0.766	6.278	-7.120
469724.518	NaN	2.793	7.598	-4.707	1511.355	1501.099	1500.366	-0.504	3.191	-4.977	0.536	6.354	-6.967
469725.494	NaN	2.793	7.587	-4.707	1512.088	1499.634	1502.564	-0.290	3.282	-5.023	0.689	6.124	-6.967
469726.471	NaN	2.783	7.587	-4.717	1512.088	1498.901	1501.832	-0.198	3.481	-5.099	0.689	6.354	-6.813
469727.448	NaN	2.783	7.587	-4.717	1512.088	1498.901	1501.099	-0.336	3.603	-5.176	0.612	6.201	-7.196
469728.424	NaN	2.772	7.587	-4.717	1510.623	1499.634	1500.366	-0.275	3.664	-5.191	0.766	6.278	-6.967
469729.401	NaN	2.783	7.598	-4.707	1511.355	1499.634	1500.366	-0.321	3.786	-5.206	0.689	6.278	-6.967
469730.377	NaN	2.761	7.598	-4.717	1511.355	1498.901	1501.099	-0.351	3.557	-5.374	0.766	6.201	-7.120
469731.354	NaN	2.772	7.598	-4.707	1510.623	1498.901	1501.099	-0.244	3.511	-5.221	0.689	6.278	-7.043
469732.330	NaN	2.783	7.598	-4.707	1509.890	1499.634	1501.099	-0.382	3.664	-5.084	0.689	6.201	-7.043
469733.307	NaN	2.793	7.598	-4.696	1509.890	1498.901	1500.366	-0.214	3.740	-5.282	0.766	6.278	-7.196
469734.283	NaN	2.804	7.609	-4.696	1512.088	1499.634	1501.832	-0.229	3.588	-5.359	0.766	6.201	-6.967
469735.260	NaN	2.815	7.598	-4.696	1510.623	1499.634	1500.366	-0.260	3.634	-5.145	0.766	6.354	-7.043
469736.237	NaN	2.804	7.598	-4.707	1511.355	1499.634	1501.099	-0.183	3.542	-5.008	0.689	6.354	-7.043
469737.213	NaN	2.804	7.598	-4.707	1512.088	1498.901	1501.832	-0.183	3.511	-4.916	0.612	6.201	-7.120
469738.190	NaN	2.804	7.598	-4.717	1511.355	1499.634	1501.099	-0.137	3.496	-4.885	0.612	6.201	-7.043
469739.166	NaN	2.804	7.587	-4.717	1512.088	1499.634	1502.564	-0.214	3.527	-4.931	0.842	6.124	-7.043
469740.143	NaN	2.793	7.598	-4.717	1511.355	1500.366	1500.366	-0.244	3.603	-5.038	0.612	6.354	-7.120
469741.119	NaN	2.793	7.598	-4.728	1509.890	1498.901	1500.366	-0.382	3.511	-5.099	0.689	6.431	-7.120
469742.096	NaN	2.783	7.598	-4.739	1510.623	1500.366	1500.366	-0.351	3.450	-5.282	0.766	6.278	-6.967
469743.073	NaN	2.793	7.587	-4.728	1509.890	1500.366	1499.634	-0.198	3.496	-5.191	0.766	6.201	-7.120
469744.049	NaN	2.783	7.587	-4.728	1510.623	1499.634	1501.099	-0.183	3.588	-5.130	0.612	6.278	-6.890
469745.026	NaN	2.793	7.576	-4.728	1509.890	1499.634	1501.099	-0.443	3.618	-5.099	0.766	6.201	-6.967
469746.002	NaN	2.783	7.576	-4.739	1510.623	1500.366	1499.634	-0.427	3.481	-5.206	0.689	6.201	-6.967
469746.979	NaN	2.793	7.587	-4.717	1510.623	1500.366	1501.832	-0.275	3.466	-5.252	0.612	6.354	-6.967
469747.955	NaN	2.804	7.587	-4.707	1511.355	1500.366	1499.634	-0.290	3.664	-5.298	0.689	6.278	-7.043
469748.932	NaN	2.793	7.587	-4.696	1510.623	1498.901	1500.366	-0.412	3.710	-5.221	0.766	6.201	-7.043
469749.908	NaN	2.793	7.587	-4.674	1511.355	1499.634	1501.099	-0.519	3.573	-5.023	0.842	6.354	-7.043
469750.885	NaN	2.772	7.598	-4.685	1512.088	1500.366	1500.366	-0.198	3.511	-4.962	0.842	6.201	-6.967
469751.862	NaN	2.772	7.609	-4.685	1512.088	1500.366	1500.366	-0.076	3.588	-5.008	0.766	6.278	-7.043
469752.838	NaN	2.772	7.598	-4.707	1512.088	1499.634	1500.366	0.076	3.496	-4.947	0.612	6.354	-7.120
469753.815	NaN	2.772	7.609	-4.707	1512.088	1499.634	1501.099	-0.153	3.374	-5.115	0.689	6.201	-6.890
469754.791	NaN	2.772	7.598	-4.707	1509.890	1498.901	1499.634	-0.366	3.511	-5.237	0.766	6.201	-7.043
469755.768	NaN	2.793	7.598	-4.685	1512.088	1500.366	1500.366	-0.321	3.573	-5.328	0.766	6.201	-6.967
469756.744	NaN	2.793	7.598	-4.685	1512.821	1499.634	1501.099	-0.305	3.618	-5.160	0.689	6.278	-7.043
469757.721	NaN	2.804	7.598	-4.685	1511.355	1499.634	1500.366	-0.122	3.542	-5.115	0.689	6.278	-7.120
469758.698	NaN	2.804	7.598	-4.685	1511.355	1500.366	1500.366	0.168	3.618	-5.145	0.766	6.124	-6.967
469759.674	NaN	2.793	7.587	-4.707	1512.088	1500.366	1500.366	0.015	3.573	-5.130	0.689	6.278	-7.120
469760.651	NaN	2.804	7.598	-4.707	1510.623	1498.901	1500.366	0.061	3.588	-5.160	0.612	6.354	-6.890
469761.627	NaN	2.815	7.598	-4.707	1511.355	1500.366	1500.366	0.046	3.710	-5.099	0.689	6.431	-6.967
469762.604	NaN	2.804	7.587	-4.696	1510.623	1499.634	1501.099	-0.092	3.481	-5.237	0.842	6.201	-6.967
469763.580	NaN	2.804	7.598	-4.696	1511.355	1499.634	1500.366	-0.321	3.450	-5.191	0.612	6.201	-7.043
469764.557	NaN	2.793	7.587	-4.707	1512.088	1499.634	1501.099	-0.351	3.511	-5.008	0.689	6.354	-6.967
469765.533	NaN	2.783	7.598	-4.696	1512.088	1499.634	1501.099	-0.183	3.664	-5.160	0.536	6.354	-7.043
469766.510	NaN	2.783	7.587	-4.696	1512.088	1498.901	1501.832	-0.137	3.573	-5.298	0.766	6.278	-7.120
469767.487	NaN	2.793	7.598	-4.696	1512.088	1498.168	1499.634	-0.366	3.527	-5.191	0.689	6.278	-7.196
469768.463	NaN	2.783	7.587	-4.707	1512.821	1499.634	1501.099	-0.275	3.466	-5.160	0.689	6.201	-6.967
469769.440	NaN	2.793	7.598	-4.696	1512.088	1500.366	1501.099	-0.107	3.618	-5.267	0.689	6.354	-7.043
469770.416	NaN	2.804	7.598	-4.696	1510.623	1499.634	1501.832	-0.122	3.481	-5.221	0.766	6.124	-6.967
469771.393	NaN	2.804	7.598	-4.685	1512.088	1498.901	1500.366	-0.168	3.389	-5.053	0.766	6.278	-7.043
469772.369	NaN	2.804	7.587	-4.685	1512.088	1498.901	1501.099	-0.076	3.496	-5.160	0.689	6.354	-7.043
469773.346	NaN	2.804	7.587	-4.696	1512.088	1499.634	1500.366	-0.061	3.496	-5.069	0.689	6.431	-7.043
469774.323	NaN	2.815	7.587	-4.707	1512.088	1500.366	1500.366	-0.458	3.420	-5.267	0.766	6.278	-7.120
469775.299	NaN	2.815	7.598	-4.696	1510.623	1500.366	1499.634	-0.534	3.573	-5.298	0.919	6.201	-7.043
469776.276	NaN	2.815	7.587	-4.696	1512.088	1499.634	1501.832	-0.412	3.710	-5.160	0.689	6.201	-6.967
469777.252	NaN	2.804	7.587	-4.707	1512.088	1499.634	1501.832	-0.183	3.573	-5.069	0.766	6.278	-6.890
469778.229	NaN	2.804	7.598	-4.696	1512.088	1499.634	1501.099	-0.168	3.328	-5.282	0.842	6.201	-7.043
469779.205	NaN	2.804	7.598	-4.685	1512.088	1500.366	1500.366	-0.031	3.405	-5.313	0.766	6.278	-6.967
469780.182	NaN	2.804	7.598	-4.696	1511.355	1500.366	1499.634	-0.031	3.450	-5.237	0.689	6.201	-6.967
469781.158	NaN	2.793	7.598	-4.685	1510.623	1500.366	1501.832	-0.046	3.344	-5.206	0.612	6.201	-7.120
469782.135	NaN	2.793	7.598	-4.707	1511.355	1500.366	1500.366	-0.015	3.420	-5.221	0.689	6.354	-7.196
469783.112	NaN	2.793	7.598	-4.696	1512.088	1500.366	1499.634	-0.229	3.420	-5.191	0.766	6.278	-6.967
469784.088	NaN	2.793	7.598	-4.707	1510.623	1500.366	1498.901	-0.366	3.237	-5.252	0.689	6.201	-7.043
469785.065	NaN	2.793	7.598	-4.717	1512.088	1500.366	1500.366	-0.153	3.450	-5.206	0.689	6.278	-6.967
469786.041	NaN	2.793	7.598	-4.728	1509.890	1500.366	1500.366	-0.153	3.695	-5.267	0.766	6.278	-6.813
469787.018	NaN	2.783	7.609	-4.717	1512.088	1500.366	1500.366	-0.168	3.588	-5.282	0.919	6.201	-7.043
469787.994	NaN	2.783	7.609	-4.717	1511.355	1500.366	1500.366	0.015	3.420	-5.191	0.689	6.201	-6.967
469788.971	NaN	2.793	7.609	-4.707	1512.088	1498.901	1501.099	0.031	3.359	-5.206	0.689	6.201	-7.043
469789.948	NaN	2.793	7.609	-4.707	1511.355	1499.634	1500.366	-0.046	3.664	-5.191	0.842	6.354	-6.890
469790.924	NaN	2.793	7.609	-4.717	1512.088	1500.366	1499.634	-0.275	3.756	-5.069	0.842	6.278	-7.043
469791.901	NaN	2.804	7.609	-4.707	1511.355	1500.366	1501.099	-0.305	3.603	-5.160	0.842	6.201	-6.967
469792.877	NaN	2.793	7.609	-4.707	1510.623	1499.634	1502.564	-0.260	3.450	-5.145	0.612	6.278	-7.043
469793.854	NaN	2.793	7.609	-4.717	1512.088	1500.366	1499.634	-0.260	3.435	-5.115	0.689	7.349	-7.196
469794.830	NaN	2.783	7.609	-4.728	1509.890	1498.901	1499.634	-0.137	3.588	-5.282	0.919	6.278	-7.043
469795.807	NaN	2.804	7.598	-4.717	1509.890	1498.901	1501.099	-0.214	3.450	-5.130	0.689	6.278	-7.043
469796.783	NaN	2.793	7.598	-4.728	1509.890	1498.901	1500.366	-0.214	3.298	-5.221	0.766	6.124	-7.120
469797.760	NaN	2.793	7.598	-4.728	1509.158	1498.901	1500.366	-0.260	3.298	-5.221	0.689	6.278	-7.196
469798.737	NaN	2.804	7.598	-4.717	1510.623	1499.634	1501.099	-0.229	3.573	-5.053	0.766	6.354	-6.967
469799.713	NaN	2.804	7.598	-4.717	1511.355	1499.634	1499.634	-0.275	3.588	-5.084	0.842	6.278	-6.967
469800.690	NaN	2.804	7.598	-4.728	1509.158	1499.634	1498.901	-0.168	3.511	-5.267	0.689	6.354	-7.120
469801.666	NaN	2.804	7.598	-4.717	1512.088	1498.901	1501.832	-0.168	3.359	-5.328	0.689	6.201	-6.890
469802.643	NaN	2.793	7.598	-4.728	1510.623	1499.634	1499.634	-0.137	3.420	-5.313	0.689	6.201	-6.967
469803.619	NaN	2.804	7.598	-4.728	1509.158	1498.901	1501.832	-0.107	3.450	-5.282	0.689	6.201	-7.120
469804.596	NaN	2.815	7.598	-4.717	1511.355	1499.634	1499.634	-0.275	3.405	-5.420	0.689	6.278	-7.043
469805.573	NaN	2.804	7.587	-4.717	1510.623	1499.634	1500.366	-0.397	3.344	-5.267	0.689	6.354	-7.043
469806.549	NaN	2.815	7.598	-4.707	1511.355	1498.168	1500.366	-0.244	3.267	-5.160	0.689	6.201	-6.967
469807.526	NaN	2.804	7.598	-4.707	1510.623	1500.366	1499.634	-0.046	3.206	-4.992	0.766	6.201	-6.813
469808.502	NaN	2.793	7.587	-4.717	1510.623	1498.901	1499.634	-0.015	3.282	-5.191	0.612	6.201	-6.967
469809.479	NaN	2.804	7.598	-4.707	1513.553	1499.634	1501.099	-0.305	3.496	-5.267	0.612	6.278	-7.043
469810.455	NaN	2.793	7.598	-4.707	1511.355	1498.901	1501.099	-0.321	3.542	-5.145	0.689	6.201	-6.890
469811.432	NaN	2.793	7.609	-4.717	1512.088	1498.901	1497.436	-0.153	3.298	-5.084	0.612	6.278	-7.196
469812.408	NaN	2.793	7.598	-4.707	1510.623	1499.634	1501.099	0.015	3.221	-5.038	0.689	6.278	-7.043
469813.385	NaN	2.793	7.598	-4.707	1510.623	1498.901	1499.634	-0.076	3.191	-4.992	0.766	6.278	-7.043
469814.362	NaN	2.815	7.598	-4.707	1511.355	1499.634	1500.366	-0.183	3.145	-5.145	0.842	6.201	-7.120
469815.338	NaN	2.804	7.598	-4.707	1512.088	1499.634	1500.366	-0.504	3.359	-5.145	0.689	6.201	-7.120
469816.315	NaN	2.804	7.587	-4.707	1511.355	1498.901	1501.099	-0.458	3.573	-5.206	0.766	6.278	-6.890
469817.291	NaN	2.804	7.576	-4.717	1512.088	1499.634	1500.366	-0.397	3.450	-5.130	0.689	6.201	-7.043
469818.268	NaN	2.804	7.587	-4.717	1510.623	1498.168	1500.366	-0.229	3.282	-5.099	0.842	6.201	-7.043
469819.244	NaN	2.804	7.609	-4.696	1511.355	1500.366	1499.634	-0.183	3.374	-5.420	0.689	6.278	-7.043
469820.221	NaN	2.793	7.598	-4.707	1511.355	1500.366	1500.366	-0.244	3.557	-5.221	0.842	6.354	-7.043
469821.198	NaN	2.793	7.598	-4.707	1510.623	1498.901	1500.366	-0.351	3.603	-5.145	0.766	6.354	-7.120
469822.174	NaN	2.793	7.598	-4.696	1510.623	1498.901	1500.366	-0.397	3.344	-5.267	0.766	6.354	-6.967
469823.151	NaN	2.793	7.598	-4.696	1512.088	1498.901	1499.634	-0.290	3.313	-5.466	0.766	6.201	-7.043
469824.127	NaN	2.793	7.598	-4.685	1509.890	1498.901	1500.366	-0.336	3.328	-5.282	0.842	6.278	-7.043
469825.104	NaN	2.804	7.609	-4.674	1511.355	1499.634	1501.099	0.000	3.252	-5.053	0.612	6.278	-6.967
469826.080	NaN	2.793	7.598	-4.685	1510.623	1498.168	1498.168	-0.061	3.344	-4.901	0.689	5.053	-6.967
469827.057	NaN	2.793	7.587	-4.674	1511.355	1499.634	1499.634	-0.168	3.328	-4.916	0.766	6.124	-7.120
469828.033	NaN	2.793	7.587	-4.685	1511.355	1499.634	1500.366	-0.092	3.221	-5.176	0.689	6.278	-6.967
469829.010	NaN	2.793	7.598	-4.685	1510.623	1499.634	1501.099	-0.122	3.313	-5.405	0.612	6.124	-6.890
469829.987	NaN	2.793	7.598	-4.707	1511.355	1499.634	1501.099	-0.198	3.328	-5.145	0.612	6.201	-6.890
469830.963	NaN	2.793	7.587	-4.717	1511.355	1498.168	1499.634	-0.244	3.267	-5.038	0.766	6.354	-7.120
469831.940	NaN	2.804	7.587	-4.696	1512.088	1499.634	1500.366	-0.122	3.160	-5.145	0.766	6.124	-7.120
469832.916	NaN	2.783	7.598	-4.707	1510.623	1499.634	1500.366	-0.153	3.252	-5.160	0.689	5.053	-6.967
469833.893	NaN	2.772	7.587	-4.696	1510.623	1499.634	1498.168	-0.183	3.420	-5.115	0.766	6.201	-6.967
469834.869	NaN	2.783	7.587	-4.674	1512.088	1499.634	1499.634	0.061	3.328	-4.992	0.766	6.278	-7.043
469835.846	NaN	2.793	7.576	-4.685	1511.355	1498.168	1500.366	0.000	3.344	-5.008	0.689	6.278	-7.043
469836.823	NaN	2.815	7.598	-4.674	1512.088	1498.901	1500.366	0.061	3.603	-5.069	0.766	6.278	-7.043
469837.799	NaN	2.804	7.587	-4.674	1511.355	1498.901	1500.366	-0.046	3.527	-4.931	0.689	6.278	-6.967
469838.776	NaN	2.804	7.587	-4.685	1511.355	1498.901	1500.366	-0.061	3.344	-4.916	0.766	6.278	-6.967
469839.752	NaN	2.815	7.587	-4.696	1512.088	1498.901	1501.099	-0.061	3.267	-4.992	0.689	6.124	-6.967
469840.729	NaN	2.815	7.587	-4.696	1509.890	1499.634	1499.634	-0.061	3.237	-5.008	0.689	6.278	-7.043
469841.705	NaN	2.826	7.587	-4.685	1510.623	1499.634	1501.832	-0.122	3.328	-5.008	0.766	6.431	-7.043
469842.682	NaN	2.826	7.587	-4.707	1511.355	1498.901	1501.099	-0.214	3.298	-4.962	0.689	6.201	-7.043
469843.658	NaN	2.815	7.587	-4.696	1510.623	1498.901	1500.366	-0.168	3.450	-4.885	0.536	6.278	-7.043
469844.635	NaN	2.804	7.598	-4.707	1511.355	1500.366	1500.366	-0.153	3.481	-5.176	0.689	6.201	-6.967
469845.612	NaN	2.804	7.598	-4.707	1511.355	1498.901	1498.901	-0.336	3.405	-5.252	0.842	6.354	-7.120
469846.588	NaN	2.804	7.587	-4.674	1510.623	1498.168	1499.634	-0.198	3.206	-5.145	0.689	6.048	-6.890
469847.565	NaN	2.804	7.587	-4.674	1510.623	1499.634	1500.366	-0.046	3.084	-5.191	0.689	6.201	-6.967
469848.541	NaN	2.815	7.587	-4.674	1510.623	1498.901	1501.099	-0.092	3.374	-5.176	0.766	6.354	-6.967
469849.518	NaN	2.804	7.587	-4.685	1511.355	1499.634	1500.366	-0.015	3.557	-5.023	0.766	6.201	-7.120
469850.494	NaN	2.804	7.598	-4.685	1511.355	1500.366	1501.099	-0.244	3.466	-5.084	0.459	6.201	-6.967
469851.471	NaN	2.793	7.598	-4.696	1511.355	1499.634	1501.099	-0.183	3.328	-4.992	0.766	6.201	-6.890
469852.448	NaN	2.793	7.598	-4.696	1512.088	1499.634	1500.366	-0.183	3.298	-4.977	0.842	6.278	-7.196
469853.424	NaN	2.793	7.598	-4.696	1511.355	1500.366	1500.366	-0.305	3.359	-4.916	0.842	6.278	-7.043
469854.401	NaN	2.804	7.598	-4.696	1511.355	1501.099	1498.901	-0.290	3.466	-5.038	0.689	6.201	-6.967
469855.377	NaN	2.804	7.576	-4.707	1511.355	1499.634	1501.099	-0.107	3.542	-5.282	0.842	6.201	-7.043
469856.354	NaN	2.804	7.587	-4.707	1511.355	1499.634	1500.366	-0.244	3.634	-5.206	0.766	6.278	-7.043
469857.330	NaN	2.793	7.587	-4.707	1510.623	1499.634	1499.634	-0.244	3.450	-5.206	0.689	6.278	-7.043
469858.307	NaN	2.804	7.598	-4.707	1512.088	1500.366	1498.901	-0.122	3.237	-5.191	0.766	6.124	-7.120
469859.283	NaN	2.804	7.587	-4.696	1511.355	1499.634	1499.634	-0.153	3.099	-5.206	0.919	6.278	-7.043
469860.260	NaN	2.815	7.598	-4.696	1511.355	1500.366	1500.366	-0.183	3.282	-5.252	0.689	6.278	-6.967
469861.237	NaN	2.815	7.598	-4.685	1512.821	1499.634	1500.366	-0.458	3.435	-5.084	0.766	6.278	-7.043
469862.213	NaN	2.804	7.598	-4.696	1512.088	1499.634	1501.099	-0.382	3.435	-5.130	0.689	6.278	-7.043
469863.190	NaN	2.804	7.609	-4.696	1512.088	1499.634	1500.366	-0.260	3.328	-5.298	0.689	6.278	-6.967
469864.166	NaN	2.804	7.609	-4.696	1510.623	1500.366	1500.366	-0.031	3.313	-5.344	0.612	6.201	-7.043
469865.143	NaN	2.804	7.609	-4.696	1510.623	1499.634	1501.099	-0.137	3.160	-5.420	0.766	6.278	-7.120
469866.119	NaN	2.804	7.609	-4.696	1511.355	1499.634	1500.366	-0.412	3.221	-5.099	0.689	6.354	-7.043
469867.096	NaN	2.793	7.609	-4.707	1512.088	1499.634	1501.832	-0.427	3.328	-5.008	0.766	6.278	-7.043
469868.073	NaN	2.804	7.598	-4.707	1513.553	1499.634	1501.099	-0.336	3.435	-5.023	0.612	6.201	-6.967
469869.049	NaN	2.804	7.598	-4.707	1510.623	1500.366	1502.564	-0.244	3.313	-4.977	0.842	6.201	-7.120
469870.026	NaN	2.793	7.598	-4.707	1511.355	1499.634	1500.366	-0.321	3.191	-4.992	0.689	6.278	-7.043
469871.002	NaN	2.783	7.598	-4.707	1512.088	1498.901	1500.366	-0.382	3.237	-4.901	0.689	6.354	-6.967
469871.979	NaN	2.793	7.598	-4.696	1511.355	1499.634	1501.099	-0.305	3.282	-4.824	0.536	6.278	-7.043
469872.955	NaN	2.804	7.598	-4.696	1512.088	1499.634	1500.366	-0.244	3.359	-4.870	0.689	6.278	-7.043
469873.932	NaN	2.793	7.598	-4.707	1510.623	1498.901	1501.832	-0.214	3.359	-5.038	0.689	6.278	-6.967
469874.908	NaN	2.804	7.587	-4.707	1509.158	1498.901	1500.366	-0.260	3.237	-5.038	0.689	6.124	-6.967
469875.885	NaN	2.804	7.598	-4.707	1510.623	1498.901	1500.366	-0.137	3.405	-4.855	0.766	6.278	-7.043
469876.862	NaN	2.804	7.598	-4.717	1512.088	1500.366	1498.901	-0.260	3.359	-4.931	0.766	6.124	-6.890
469877.838	NaN	2.783	7.598	-4.707	1512.088	1499.634	1500.366	-0.305	3.252	-4.901	0.766	6.354	-6.967
469878.815	NaN	2.793	7.609	-4.696	1510.623	1498.901	1500.366	-0.168	3.328	-4.931	0.689	6.278	-6.890
469879.791	NaN	2.783	7.609	-4.707	1512.088	1499.634	1499.634	-0.122	3.359	-5.084	0.766	6.354	-7.196
469880.768	NaN	2.783	7.598	-4.717	1510.623	1498.168	1498.901	-0.275	3.511	-5.160	0.766	6.278	-7.043
469881.744	NaN	2.793	7.598	-4.696	1511.355	1498.168	1501.832	-0.214	3.649	-5.130	0.689	6.278	-7.043
469882.721	NaN	2.793	7.587	-4.717	1511.355	1500.366	1499.634	-0.046	3.420	-4.992	0.842	6.278	-7.120
469883.698	NaN	2.793	7.576	-4.707	1509.890	1498.168	1499.634	-0.107	3.099	-5.023	0.689	6.278	-6.967
469884.674	NaN	2.793	7.565	-4.696	1511.355	1500.366	1499.634	-0.244	3.237	-5.084	0.766	6.278	-7.196
469885.651	NaN	2.783	7.576	-4.707	1511.355	1498.901	1498.901	-0.198	3.313	-5.069	0.689	6.278	-6.967
469886.627	NaN	2.783	7.565	-4.696	1511.355	1498.168	1499.634	-0.275	3.466	-4.855	0.612	6.278	-6.967
469887.604	NaN	2.783	7.565	-4.707	1510.623	1498.901	1501.832	-0.214	3.481	-4.855	0.766	6.354	-7.043
469888.580	NaN	2.793	7.565	-4.717	1510.623	1499.634	1501.099	-0.092	3.313	-5.069	0.689	6.201	-6.890
469889.557	NaN	2.804	7.576	-4.717	1512.088	1500.366	1498.901	-0.275	3.252	-5.191	0.689	6.278	-7.043
469890.533	NaN	2.804	7.576	-4.707	1511.355	1499.634	1500.366	-0.397	3.511	-5.038	0.612	6.278	-6.967
469891.510	NaN	2.793	7.598	-4.707	1512.088	1499.634	1499.634	-0.183	3.389	-5.053	0.689	6.201	-6.967
469892.487	NaN	2.804	7.587	-4.707	1511.355	1499.634	1498.901	-0.076	3.374	-5.008	0.689	6.201	-7.043
469893.463	NaN	2.793	7.587	-4.717	1513.553	1499.634	1501.099	-0.137	3.466	-5.099	0.689	6.201	-6.967
469894.440	NaN	2.793	7.587	-4.707	1510.623	1499.634	1501.832	-0.382	3.252	-4.992	0.766	6.354	-7.043
469895.416	NaN	2.793	7.598	-4.696	1510.623	1498.901	1500.366	-0.137	3.221	-4.916	0.766	6.278	-7.043
469896.393	NaN	2.783	7.598	-4.717	1511.355	1498.901	1500.366	-0.122	3.405	-4.885	0.689	6.278	-6.890
469897.369	NaN	2.772	7.609	-4.696	1510.623	1498.901	1499.634	-0.107	3.435	-4.840	0.689	6.278	-6.890
469898.346	NaN	2.772	7.609	-4.717	1512.088	1499.634	1500.366	-0.290	3.420	-4.840	0.689	6.124	-7.043
469899.323	NaN	2.772	7.609	-4.717	1511.355	1499.634	1499.634	-0.092	3.435	-5.084	0.612	6.124	-7.043
469900.299	NaN	2.772	7.620	-4.717	1511.355	1498.901	1500.366	0.015	3.267	-5.099	0.766	6.201	-7.120
469901.276	NaN	2.783	7.620	-4.717	1512.088	1499.634	1499.634	-0.153	3.450	-4.840	0.766	6.201	-7.120
469902.252	3736841747.884	2.783	7.609	-4.717	1510.623	1499.634	1498.901	-0.229	3.420	-4.809	0.766	6.201	-7.043
469903.229	NaN	2.793	7.609	-4.717	1512.088	1499.634	1501.099	-0.015	3.298	-5.084	0.689	6.201	-6.890
469904.205	NaN	2.772	7.609	-4.739	1509.890	1499.634	1498.901	0.015	3.374	-5.221	0.766	7.273	-7.120
469905.182	NaN	2.772	7.598	-4.717	1510.623	1498.901	1500.366	-0.122	3.435	-5.115	0.689	6.431	-7.043
469906.158	NaN	2.772	7.598	-4.707	1509.890	1499.634	1500.366	-0.351	3.328	-5.115	0.842	6.201	-7.043
469907.135	NaN	2.772	7.587	-4.707	1511.355	1500.366	1498.901	-0.183	3.374	-5.038	0.689	6.278	-6.890
469908.112	NaN	2.772	7.587	-4.717	1511.355	1498.901	1500.366	-0.214	3.527	-5.008	0.689	6.278	-6.967
469909.088	NaN	2.783	7.587	-4.717	1510.623	1498.901	1499.634	-0.321	3.588	-4.977	0.689	6.278	-6.890
469910.065	NaN	2.783	7.587	-4.685	1510.623	1499.634	1500.366	-0.214	3.511	-4.977	0.536	6.278	-7.043
469911.041	NaN	2.772	7.576	-4.685	1511.355	1499.634	1499.634	-0.275	3.328	-4.947	0.689	6.431	-7.043
469912.018	NaN	2.783	7.587	-4.674	1512.088	1500.366	1499.634	-0.275	3.374	-5.084	0.689	6.278	-7.043
469912.994	NaN	2.783	7.587	-4.674	1511.355	1499.634	1501.832	-0.382	3.420	-5.145	0.612	6.354	-6.967
469913.971	NaN	2.783	7.587	-4.685	1511.355	1499.634	1500.366	-0.290	3.511	-4.947	0.536	6.124	-6.967
469914.948	NaN	2.783	7.598	-4.696	1511.355	1500.366	1499.634	-0.229	3.496	-4.855	0.689	6.354	-7.120
469915.924	NaN	2.772	7.587	-4.707	1511.355	1500.366	1500.366	-0.198	3.557	-5.069	0.766	6.354	-6.890
469916.901	NaN	2.783	7.598	-4.685	1510.623	1499.634	1501.832	-0.183	3.466	-5.313	0.612	6.431	-6.967
469917.877	NaN	2.772	7.598	-4.674	1511.355	1499.634	1501.099	-0.305	3.344	-5.221	0.766	6.201	-7.043
469918.854	NaN	2.783	7.598	-4.685	1512.088	1499.634	1500.366	-0.198	3.282	-4.855	0.689	6.354	-6.967
469919.830	NaN	2.783	7.587	-4.685	1510.623	1499.634	1501.099	-0.107	3.405	-4.916	0.689	6.124	-7.043
469920.807	NaN	2.793	7.598	-4.707	1512.088	1501.832	1501.832	-0.382	3.527	-4.901	0.689	6.201	-7.043
469921.783	NaN	2.783	7.587	-4.707	1512.088	1500.366	1501.099	-0.427	3.573	-4.855	0.842	6.201	-6.890
469922.760	NaN	2.772	7.598	-4.717	1512.088	1499.634	1500.366	-0.229	3.542	-4.840	0.842	6.278	-7.196
469923.737	NaN	2.772	7.598	-4.717	1511.355	1499.634	1501.832	-0.214	3.542	-5.053	0.689	6.278	-6.967
469924.713	NaN	2.772	7.587	-4.717	1511.355	1498.901	1498.901	-0.275	3.710	-5.160	0.766	6.278	-6.890
469925.690	NaN	2.793	7.587	-4.685	1510.623	1499.634	1501.099	-0.443	3.481	-5.160	0.689	6.201	-6.967
469926.666	NaN	2.793	7.598	-4.696	1512.088	1499.634	1498.901	-0.351	3.389	-4.977	0.612	6.354	-6.890
469927.643	NaN	2.804	7.587	-4.685	1511.355	1499.634	1501.099	-0.427	3.466	-4.931	0.689	6.278	-7.043
469928.619	NaN	2.804	7.576	-4.696	1510.623	1499.634	1499.634	-0.351	3.450	-4.794	0.689	6.201	-6.890
469929.596	NaN	2.793	7.576	-4.696	1512.088	1500.366	1500.366	-0.107	3.405	-4.901	0.612	6.278	-6.967
469930.573	NaN	2.793	7.576	-4.696	1511.355	1499.634	1501.099	0.061	3.374	-5.038	0.689	6.201	-7.043
469931.549	NaN	2.783	7.587	-4.696	1512.088	1499.634	1501.832	0.168	3.359	-5.023	0.766	6.201	-7.043
469932.526	NaN	2.783	7.598	-4.696	1510.623	1499.634	1500.366	0.046	3.405	-4.901	0.766	6.278	-6.967
469933.502	NaN	2.772	7.598	-4.707	1509.890	1499.634	1501.099	-0.198	3.557	-4.763	0.612	6.278	-7.043
469934.479	NaN	2.783	7.598	-4.707	1512.088	1500.366	1500.366	-0.046	3.511	-4.962	0.766	6.201	-6.890
469935.455	NaN	2.772	7.598	-4.717	1511.355	1499.634	1500.366	-0.168	3.557	-4.870	0.689	6.354	-6.967
469936.432	NaN	2.761	7.609	-4.707	1511.355	1499.634	1500.366	-0.260	3.496	-4.901	0.689	6.354	-7.043
469937.408	NaN	2.761	7.598	-4.707	1511.355	1499.634	1500.366	-0.198	3.557	-4.931	0.536	6.201	-7.043
469938.385	NaN	2.772	7.609	-4.717	1512.088	1500.366	1498.901	-0.122	3.496	-4.977	0.612	6.124	-7.043
469939.362	NaN	2.783	7.609	-4.707	1512.088	1499.634	1501.099	-0.031	3.618	-4.916	0.689	6.278	-6.967
469940.338	NaN	2.772	7.609	-4.707	1512.821	1499.634	1501.832	0.031	3.527	-4.809	0.689	6.201	-6.967
469941.315	NaN	2.772	7.609	-4.696	1511.355	1500.366	1500.366	0.076	3.527	-4.748	0.689	6.124	-7.273
469942.291	NaN	2.772	7.620	-4.685	1511.355	1498.901	1500.366	-0.031	3.298	-4.885	0.536	6.278	-6.890
469943.268	NaN	2.783	7.620	-4.674	1512.088	1500.366	1500.366	0.015	3.145	-4.840	0.612	6.201	-6.890
469944.244	NaN	2.783	7.630	-4.663	1511.355	1499.634	1500.366	0.031	3.405	-4.947	0.612	6.278	-6.967
469945.221	NaN	2.783	7.620	-4.674	1512.088	1499.634	1501.099	-0.076	3.740	-5.160	0.689	6.124	-7.043
469946.198	NaN	2.793	7.609	-4.685	1511.355	1500.366	1499.634	-0.076	3.649	-5.099	0.689	6.124	-7.043
469947.174	NaN	2.793	7.598	-4.696	1512.088	1499.634	1501.099	-0.168	3.328	-4.870	0.612	6.431	-7.043
469948.151	NaN	2.793	7.609	-4.696	1511.355	1500.366	1501.099	-0.275	3.282	-4.687	0.612	6.278	-7.120
469949.127	NaN	2.793	7.598	-4.696	1510.623	1499.634	1500.366	-0.290	3.527	-4.794	0.689	6.201	-6.967
469950.104	NaN	2.793	7.598	-4.707	1511.355	1499.634	1500.366	-0.305	3.542	-4.870	0.612	6.354	-6.967
469951.080	NaN	2.793	7.598	-4.707	1511.355	1499.634	1501.832	-0.076	3.649	-4.870	0.689	6.278	-7.043
469952.057	NaN	2.793	7.609	-4.707	1512.088	1499.634	1501.099	-0.046	3.649	-4.687	0.689	6.278	-7.043
469953.033	NaN	2.793	7.609	-4.685	1512.821	1499.634	1501.099	-0.229	3.511	-4.870	0.612	6.278	-7.043
469954.010	NaN	2.804	7.609	-4.685	1510.623	1499.634	1500.366	-0.489	3.496	-5.053	0.612	6.354	-7.196
469954.987	NaN	2.804	7.609	-4.674	1511.355	1500.366	1500.366	-0.550	3.466	-5.038	0.766	6.354	-6.967
469955.963	NaN	2.793	7.598	-4.685	1512.088	1498.901	1500.366	-0.137	3.527	-4.947	0.689	6.201	-7.043
469956.940	NaN	2.793	7.598	-4.696	1511.355	1499.634	1501.099	-0.046	3.466	-4.794	0.689	6.278	-7.043
469957.916	NaN	2.783	7.598	-4.696	1510.623	1500.366	1500.366	-0.260	3.527	-4.855	0.689	6.048	-6.967
469958.893	NaN	2.772	7.598	-4.707	1511.355	1500.366	1500.366	-0.244	3.481	-4.855	0.766	6.201	-7.043
469959.869	NaN	2.783	7.598	-4.717	1510.623	1499.634	1501.099	-0.046	3.527	-4.656	0.842	6.201	-7.043
469960.846	NaN	2.783	7.609	-4.707	1512.088	1499.634	1501.832	0.000	3.588	-4.916	0.689	6.124	-7.043
469961.823	NaN	2.793	7.609	-4.696	1512.088	1499.634	1501.832	-0.015	3.374	-5.099	0.689	6.278	-6.890
469962.799	NaN	2.783	7.598	-4.707	1512.088	1499.634	1501.099	-0.122	3.542	-4.794	0.612	6.278	-7.043
469963.776	NaN	2.772	7.598	-4.685	1509.890	1499.634	1500.366	-0.290	3.710	-4.718	0.689	6.278	-7.120
469964.752	NaN	2.783	7.609	-4.696	1511.355	1499.634	1500.366	-0.260	3.725	-4.809	0.766	6.278	-7.120
469965.729	NaN	2.793	7.609	-4.696	1512.088	1500.366	1501.099	-0.183	3.573	-4.901	0.689	6.201	-6.967
469966.705	NaN	2.783	7.598	-4.696	1511.355	1500.366	1499.634	-0.076	3.588	-4.748	0.459	6.278	-7.120
469967.682	NaN	2.793	7.587	-4.696	1511.355	1499.634	1501.099	-0.015	3.542	-4.809	0.612	6.201	-6.890
469968.658	NaN	2.783	7.598	-4.696	1512.821	1499.634	1500.366	0.031	3.588	-4.626	0.766	6.354	-6.967
469969.635	NaN	2.804	7.609	-4.707	1510.623	1498.901	1501.099	-0.260	3.603	-4.718	0.689	6.201	-7.043
469970.612	NaN	2.804	7.609	-4.685	1511.355	1498.901	1501.099	-0.244	3.710	-4.916	0.612	6.201	-7.120
469971.588	NaN	2.793	7.620	-4.707	1511.355	1499.634	1501.099	-0.046	3.695	-4.824	0.612	6.278	-6.967
469972.565	NaN	2.804	7.620	-4.707	1509.890	1498.901	1499.634	-0.153	3.573	-4.794	0.689	6.201	-7.120
469973.541	NaN	2.804	7.620	-4.707	1512.088	1498.168	1500.366	-0.321	3.282	-4.611	0.842	6.278	-7.043
469974.518	NaN	2.793	7.609	-4.707	1510.623	1498.901	1498.901	-0.168	3.298	-4.550	0.689	6.201	-6.967
469975.494	NaN	2.793	7.620	-4.685	1512.088	1499.634	1500.366	0.015	3.542	-4.702	0.689	6.278	-6.967
469976.471	NaN	2.783	7.609	-4.696	1511.355	1500.366	1500.366	0.046	3.649	-4.916	0.612	6.278	-7.120
469977.448	NaN	2.772	7.609	-4.685	1510.623	1498.168	1500.366	-0.229	3.710	-5.008	0.689	6.124	-7.120
469978.424	NaN	2.783	7.609	-4.685	1511.355	1498.901	1499.634	-0.321	3.573	-4.840	0.766	6.124	-6.967
469979.401	NaN	2.783	7.598	-4.674	1510.623	1500.366	1500.366	-0.229	3.450	-4.580	0.766	6.278	-6.967
469980.377	NaN	2.772	7.598	-4.685	1511.355	1500.366	1501.099	-0.168	3.511	-4.641	0.689	6.201	-7.120
469981.354	NaN	2.772	7.598	-4.707	1511.355	1499.634	1501.099	0.015	3.466	-4.763	0.689	6.278	-7.043
469982.330	NaN	2.761	7.587	-4.707	1510.623	1499.634	1500.366	-0.015	3.542	-4.870	0.612	6.278	-7.043
469983.307	NaN	2.761	7.598	-4.696	1512.088	1500.366	1499.634	-0.122	3.603	-4.840	0.612	6.278	-6.967
469984.283	NaN	2.772	7.598	-4.685	1511.355	1499.634	1501.832	-0.229	3.634	-4.733	0.536	6.354	-7.120
469985.260	NaN	2.772	7.609	-4.696	1510.623	1498.901	1500.366	-0.214	3.557	-4.748	0.536	6.354	-7.043
469986.237	NaN	2.772	7.598	-4.707	1511.355	1499.634	1501.099	-0.031	3.405	-4.931	0.689	6.354	-6.967
469987.213	NaN	2.783	7.609	-4.707	1511.355	1499.634	1498.901	0.046	3.542	-4.840	0.766	6.201	-6.967
469988.190	NaN	2.783	7.598	-4.696	1510.623	1498.901	1500.366	-0.046	3.649	-4.656	0.689	6.278	-7.120
469989.166	NaN	2.772	7.598	-4.717	1511.355	1498.901	1500.366	-0.229	3.634	-4.672	0.766	6.354	-7.043
469990.143	NaN	2.772	7.598	-4.696	1509.890	1498.901	1499.634	-0.183	3.420	-4.885	0.612	6.354	-6.967
469991.119	NaN	2.783	7.598	-4.696	1510.623	1499.634	1498.901	-0.260	3.603	-4.748	0.612	6.201	-7.043
469992.096	NaN	2.783	7.609	-4.696	1511.355	1498.901	1500.366	-0.260	3.695	-4.412	0.612	6.278	-7.120
469993.073	NaN	2.793	7.620	-4.685	1511.355	1499.634	1500.366	-0.092	3.557	-4.611	0.766	6.124	-7.043
469994.049	NaN	2.793	7.598	-4.696	1511.355	1499.634	1501.099	-0.107	3.588	-4.718	0.689	6.201	-7.120
469995.026	NaN	2.793	7.598	-4.707	1509.890	1498.168	1498.901	-0.458	3.588	-4.870	0.766	6.278	-7.043
469996.002	NaN	2.793	7.587	-4.707	1510.623	1499.634	1498.901	-0.382	3.527	-4.779	0.612	6.354	-6.967
469996.979	NaN	2.793	7.587	-4.707	1511.355	1499.634	1499.634	-0.183	3.725	-4.870	0.842	6.278	-7.043
469997.955	NaN	2.783	7.598	-4.717	1510.623	1499.634	1500.366	-0.260	3.573	-4.718	0.766	6.201	-6.890
469998.932	NaN	2.793	7.609	-4.728	1509.890	1499.634	1501.832	-0.305	3.573	-4.534	0.842	6.278	-7.043
469999.908	NaN	2.793	7.598	-4.728	1509.890	1498.168	1500.366	-0.305	3.649	-4.458	0.689	6.278	-7.043
470000.885	NaN	2.804	7.609	-4.707	1509.890	1498.901	1501.832	-0.229	3.725	-4.519	0.766	6.201	-6.813
470001.862	NaN	2.783	7.598	-4.717	1511.355	1499.634	1498.901	-0.137	3.695	-4.595	0.689	6.201	-7.043
470002.838	3736841748.000	2.793	7.598	-4.707	1511.355	1498.168	1500.366	-0.336	3.450	-4.687	0.689	6.278	-7.120
470003.815	NaN	2.793	7.598	-4.707	1511.355	1499.634	1500.366	-0.382	3.405	-4.885	0.689	6.201	-7.120
470004.791	NaN	2.793	7.598	-4.717	1511.355	1499.634	1501.099	-0.351	3.588	-4.977	0.766	6.431	-7.043
470005.768	NaN	2.793	7.609	-4.717	1511.355	1498.168	1501.099	-0.244	3.603	-4.840	0.766	6.201	-7.043
470006.744	NaN	2.804	7.609	-4.696	1511.355	1499.634	1501.099	-0.214	3.542	-4.687	0.766	6.201	-7.043
470007.721	NaN	2.793	7.609	-4.685	1511.355	1500.366	1500.366	0.092	3.618	-4.794	0.689	6.201	-6.967
470008.698	NaN	2.793	7.609	-4.685	1510.623	1499.634	1499.634	0.015	3.573	-4.779	0.689	6.278	-6.890
470009.674	NaN	2.772	7.598	-4.696	1512.088	1499.634	1500.366	-0.107	3.649	-4.763	0.689	6.201	-6.967
470010.651	NaN	2.772	7.598	-4.685	1511.355	1499.634	1501.099	0.015	3.603	-4.672	0.689	6.201	-7.043
470011.627	NaN	2.783	7.609	-4.685	1510.623	1500.366	1500.366	-0.229	3.664	-4.672	0.689	6.354	-7.120
470012.604	NaN	2.793	7.609	-4.685	1510.623	1500.366	1498.901	-0.336	3.756	-4.962	0.689	6.278	-6.967
470013.580	NaN	2.783	7.598	-4.696	1512.088	1499.634	1500.366	-0.397	3.695	-5.023	0.766	6.201	-6.890
470014.557	NaN	2.793	7.609	-4.707	1512.088	1500.366	1499.634	-0.366	3.573	-4.794	0.766	6.278	-7.120
470015.533	NaN	2.804	7.598	-4.696	1511.355	1500.366	1501.099	-0.321	3.511	-4.611	0.689	6.124	-7.043
470016.510	NaN	2.804	7.598	-4.685	1510.623	1499.634	1499.634	-0.183	3.527	-4.733	0.612	6.201	-6.890
470017.487	NaN	2.815	7.598	-4.696	1511.355	1499.634	1500.366	-0.137	3.511	-4.626	0.842	6.201	-6.967
470018.463	NaN	2.804	7.598	-4.696	1512.088	1499.634	1501.099	-0.153	3.466	-4.962	0.842	6.201	-7.120
470019.440	NaN	2.804	7.587	-4.696	1512.088	1500.366	1501.099	-0.061	3.588	-5.084	0.689	6.354	-6.967
470020.416	NaN	2.804	7.598	-4.685	1510.623	1499.634	1501.099	-0.092	3.634	-4.916	0.766	6.354	-7.043
470021.393	NaN	2.804	7.598	-4.696	1511.355	1499.634	1500.366	-0.183	3.573	-4.534	0.689	6.278	-7.043
470022.369	NaN	2.793	7.587	-4.696	1510.623	1499.634	1501.099	-0.336	3.588	-4.504	0.689	6.278	-7.043
470023.346	NaN	2.804	7.598	-4.696	1510.623	1499.634	1501.832	-0.305	3.664	-4.718	0.766	6.201	-6.890
470024.323	NaN	2.804	7.598	-4.696	1512.088	1499.634	1500.366	-0.153	3.679	-4.870	0.536	6.201	-6.890
470025.299	NaN	2.793	7.587	-4.685	1512.088	1499.634	1500.366	-0.092	3.557	-4.748	0.689	6.201	-7.043
470026.276	NaN	2.793	7.598	-4.696	1512.088	1498.901	1499.634	-0.168	3.740	-4.519	0.689	6.201	-6.967
470027.252	NaN	2.793	7.587	-4.696	1512.088	1498.901	1501.099	-0.321	3.893	-4.580	0.689	6.278	-7.043
470028.229	NaN	2.793	7.598	-4.685	1511.355	1500.366	1500.366	-0.168	3.679	-4.656	0.766	6.278	-7.043
470029.205	NaN	2.793	7.587	-4.685	1510.623	1499.634	1500.366	-0.015	3.634	-4.580	0.689	6.278	-7.043
470030.182	NaN	2.793	7.587	-4.685	1510.623	1498.901	1500.366	-0.290	3.664	-4.641	0.689	6.354	-7.043
470031.158	NaN	2.804	7.587	-4.685	1511.355	1499.634	1501.099	-0.489	3.725	-4.687	0.766	6.124	-7.120
470032.135	NaN	2.793	7.598	-4.685	1512.088	1500.366	1499.634	-0.427	3.756	-4.824	0.689	6.201	-7.120
470033.112	NaN	2.793	7.587	-4.685	1511.355	1499.634	1500.366	-0.046	3.634	-4.748	0.689	6.201	-7.043
470034.088	NaN	2.804	7.587	-4.685	1512.088	1498.901	1500.366	0.031	3.603	-4.656	0.766	6.124	-7.043
470035.065	NaN	2.793	7.598	-4.696	1512.088	1498.901	1499.634	-0.076	3.893	-4.870	0.766	6.354	-7.043
470036.041	NaN	2.793	7.598	-4.696	1511.355	1499.634	1501.099	0.107	3.786	-4.916	0.766	6.278	-7.120
470037.018	NaN	2.804	7.609	-4.685	1512.088	1499.634	1501.099	0.031	3.695	-4.748	0.766	6.201	-6.967
470037.994	NaN	2.783	7.598	-4.707	1510.623	1499.634	1500.366	-0.015	3.588	-4.534	0.766	6.278	-7.043
470038.971	NaN	2.793	7.609	-4.696	1510.623	1498.901	1500.366	-0.153	3.740	-4.473	0.842	6.354	-7.120
470039.948	NaN	2.783	7.609	-4.717	1512.088	1498.901	1499.634	-0.336	3.740	-4.534	0.842	6.278	-7.196
470040.924	NaN	2.783	7.598	-4.717	1511.355	1498.901	1500.366	-0.260	3.664	-4.626	0.612	6.278	-7.043
470041.901	NaN	2.793	7.609	-4.707	1510.623	1500.366	1500.366	-0.260	3.511	-4.794	0.612	6.201	-7.120
470042.877	NaN	2.793	7.598	-4.717	1512.088	1499.634	1498.901	-0.168	3.511	-4.855	0.766	6.278	-7.120
470043.854	NaN	2.793	7.587	-4.696	1512.088	1499.634	1500.366	-0.214	3.542	-4.718	0.689	6.124	-7.043
470044.830	NaN	2.793	7.576	-4.696	1509.890	1498.901	1501.099	-0.137	3.634	-4.595	0.612	6.354	-6.890
470045.807	NaN	2.804	7.587	-4.696	1512.088	1500.366	1501.099	0.046	3.664	-4.519	0.536	6.278	-7.043
470046.783	NaN	2.793	7.587	-4.707	1512.088	1498.901	1499.634	-0.076	3.618	-4.656	0.766	6.278	-7.043
470047.760	NaN	2.804	7.587	-4.696	1509.890	1499.634	1499.634	-0.336	3.557	-4.534	0.842	6.201	-7.043
470048.737	NaN	2.815	7.587	-4.707	1512.088	1498.901	1501.099	-0.427	3.634	-4.534	0.766	6.278	-7.043
470049.713	NaN	2.804	7.587	-4.717	1511.355	1499.634	1501.099	-0.397	3.664	-4.611	0.689	6.201	-7.043
470050.690	NaN	2.815	7.587	-4.696	1511.355	1500.366	1500.366	-0.321	3.649	-4.687	0.766	6.278	-6.967
470051.666	NaN	2.793	7.587	-4.717	1510.623	1498.901	1500.366	-0.229	3.710	-4.702	0.766	6.354	-7.043
470052.643	NaN	2.804	7.587	-4.696	1510.623	1499.634	1500.366	-0.092	3.634	-4.611	0.766	6.354	-6.890
470053.619	3736841748.114	2.793	7.598	-4.696	1509.890	1498.901	1501.832	0.015	3.649	-4.504	0.919	6.354	-6.890
470054.596	NaN	2.793	7.587	-4.707	1510.623	1498.901	1500.366	0.046	3.664	-4.534	0.766	6.124	-7.196
470055.573	NaN	2.804	7.587	-4.696	1511.355	1498.168	1501.832	0.076	3.588	-4.733	0.842	6.278	-7.120
470056.549	NaN	2.793	7.587	-4.685	1510.623	1498.901	1500.366	-0.137	3.847	-4.779	0.689	6.354	-6.967
470057.526	NaN	2.804	7.587	-4.674	1510.623	1499.634	1500.366	-0.229	3.863	-4.595	0.842	6.354	-7.043
470058.502	NaN	2.793	7.598	-4.685	1512.088	1498.901	1500.366	-0.229	3.710	-4.504	0.689	6.278	-7.043
470059.479	NaN	2.793	7.609	-4.674	1512.088	1500.366	1499.634	-0.122	3.542	-4.473	0.689	6.201	-6.890
470060.455	NaN	2.783	7.598	-4.696	1511.355	1498.901	1499.634	-0.076	3.527	-4.580	0.689	6.278	-7.196
470061.432	NaN	2.793	7.598	-4.685	1510.623	1498.901	1501.832	-0.061	3.710	-4.611	0.612	6.201	-7.043
470062.408	NaN	2.772	7.598	-4.685	1511.355	1499.634	1501.099	-0.275	3.710	-4.489	0.689	6.201	-7.120
470063.385	NaN	2.772	7.598	-4.696	1510.623	1500.366	1501.099	-0.168	3.740	-4.412	0.766	6.124	-7.043
470064.362	NaN	2.783	7.598	-4.685	1511.355	1500.366	1500.366	0.198	3.588	-4.534	0.689	6.278	-7.043
470065.338	NaN	2.772	7.598	-4.685	1511.355	1499.634	1501.099	0.244	3.557	-4.779	0.689	6.354	-7.043
470066.315	NaN	2.772	7.598	-4.674	1511.355	1499.634	1500.366	-0.260	3.679	-4.733	0.842	6.278	-6.890
470067.291	NaN	2.761	7.598	-4.685	1511.355	1499.634	1500.366	-0.489	3.573	-4.565	0.689	6.278	-6.967
470068.268	NaN	2.772	7.609	-4.685	1511.355	1500.366	1500.366	-0.244	3.634	-4.321	0.612	6.201	-6.967
470069.244	NaN	2.783	7.620	-4.696	1511.355	1499.634	1501.099	-0.321	3.725	-4.366	0.689	6.201	-6.967
470070.221	NaN	2.783	7.620	-4.696	1510.623	1498.901	1500.366	-0.290	3.618	-4.397	0.612	6.201	-7.043
470071.198	NaN	2.793	7.630	-4.696	1510.623	1499.634	1499.634	-0.153	3.664	-4.489	0.842	6.278	-7.043
470072.174	NaN	2.793	7.620	-4.685	1512.821	1499.634	1499.634	-0.214	3.649	-4.611	0.766	6.354	-7.043
470085.846	NaN	2.783	7.598	-4.685	1512.088	1500.366	1500.366	-0.107	3.481	-4.458	0.689	6.201	-7.043
470086.823	NaN	2.783	7.598	-4.685	1511.355	1499.634	1500.366	0.031	3.664	-4.595	0.766	6.354	-6.967
470087.799	NaN	2.783	7.598	-4.696	1512.088	1499.634	1498.901	0.061	3.893	-4.366	0.612	6.201	-6.967
470088.776	NaN	2.793	7.598	-4.685	1510.623	1499.634	1501.832	-0.229	3.817	-4.534	0.612	6.048	-6.890
470089.752	NaN	2.783	7.587	-4.707	1512.088	1499.634	1499.634	-0.290	3.649	-4.626	0.612	6.278	-7.120
470090.729	NaN	2.793	7.587	-4.696	1512.088	1500.366	1499.634	-0.229	3.618	-4.580	0.689	6.278	-7.196
470091.705	NaN	2.793	7.598	-4.696	1511.355	1500.366	1500.366	0.000	3.695	-4.580	0.689	6.354	-7.043
470092.682	NaN	2.783	7.598	-4.707	1512.088	1499.634	1502.564	0.061	3.863	-4.519	0.766	6.201	-6.967
470093.658	NaN	2.783	7.598	-4.696	1510.623	1498.901	1499.634	-0.061	3.817	-4.550	0.612	6.278	-7.120
470094.635	NaN	2.793	7.598	-4.696	1511.355	1498.901	1500.366	-0.244	3.740	-4.412	0.689	6.201	-7.043
470095.612	NaN	2.783	7.598	-4.685	1511.355	1501.099	1500.366	-0.153	3.603	-4.458	0.766	6.278	-7.043
470096.588	NaN	2.783	7.598	-4.696	1511.355	1499.634	1501.099	-0.214	3.679	-4.351	0.766	6.278	-6.890
470097.565	NaN	2.772	7.598	-4.696	1510.623	1498.901	1501.099	-0.229	3.679	-4.244	0.689	6.201	-7.120
470098.541	NaN	2.783	7.598	-4.685	1512.088	1498.901	1499.634	-0.122	3.634	-4.412	0.766	6.278	-7.043
470099.518	NaN	2.793	7.598	-4.663	1511.355	1498.901	1498.901	-0.275	3.695	-4.198	0.612	6.278	-6.967
470100.494	NaN	2.804	7.609	-4.685	1510.623	1499.634	1498.901	-0.061	3.725	-4.351	0.766	6.201	-6.967
470101.471	NaN	2.793	7.609	-4.685	1513.553	1499.634	1499.634	-0.015	3.664	-4.427	0.689	6.201	-6.890
470102.448	NaN	2.793	7.598	-4.696	1512.088	1499.634	1499.634	-0.015	3.603	-4.611	0.689	6.354	-7.196
470103.424	NaN	2.772	7.587	-4.707	1511.355	1498.901	1501.099	-0.122	3.649	-4.595	0.766	6.201	-6.967
470104.401	NaN	2.772	7.598	-4.696	1511.355	1498.168	1500.366	-0.031	3.679	-4.473	0.842	6.278	-6.967
470105.377	NaN	2.783	7.598	-4.696	1512.088	1499.634	1501.099	-0.244	3.618	-4.534	0.766	6.278	-7.120
470106.354	NaN	2.804	7.598	-4.696	1510.623	1499.634	1499.634	-0.168	3.588	-4.458	0.689	6.201	-6.967
470107.330	NaN	2.793	7.598	-4.717	1510.623	1499.634	1499.634	0.076	3.649	-4.336	0.689	6.278	-6.967
470108.307	NaN	2.804	7.598	-4.717	1511.355	1501.099	1500.366	-0.015	3.649	-4.244	0.766	6.201	-7.043
470109.283	NaN	2.793	7.598	-4.717	1512.821	1500.366	1500.366	-0.076	3.649	-4.275	0.612	6.201	-7.043
470110.260	NaN	2.804	7.598	-4.707	1511.355	1499.634	1501.099	-0.305	3.786	-4.382	0.766	6.278	-7.120
470111.237	NaN	2.804	7.598	-4.707	1511.355	1499.634	1500.366	-0.366	3.725	-4.473	0.689	6.354	-6.967
470112.213	NaN	2.793	7.598	-4.707	1511.355	1499.634	1500.366	-0.290	3.786	-4.473	0.689	6.201	-7.120
470113.190	NaN	2.804	7.598	-4.696	1512.088	1500.366	1500.366	-0.061	3.832	-4.443	0.689	6.201	-7.120
470114.166	NaN	2.804	7.598	-4.696	1511.355	1499.634	1501.099	0.107	3.802	-4.366	0.766	6.278	-6.967
470115.143	NaN	2.804	7.598	-4.685	1511.355	1499.634	1501.099	0.031	3.679	-4.260	0.689	6.431	-7.196
470116.119	NaN	2.793	7.598	-4.685	1511.355	1498.901	1501.832	-0.198	3.496	-4.336	0.612	6.201	-6.967
470117.096	NaN	2.804	7.598	-4.685	1511.355	1500.366	1500.366	-0.183	3.527	-4.534	0.612	6.124	-7.043
470118.073	NaN	2.804	7.587	-4.674	1512.821	1499.634	1499.634	0.076	3.832	-4.412	0.536	6.278	-6.967
470119.049	NaN	2.804	7.587	-4.685	1510.623	1499.634	1501.099	0.137	3.878	-4.427	0.766	6.278	-6.890
470120.026	NaN	2.793	7.587	-4.685	1512.088	1499.634	1501.832	-0.168	3.740	-4.443	0.766	6.201	-7.043
470121.002	NaN	2.793	7.587	-4.685	1512.088	1499.634	1500.366	-0.183	3.618	-4.351	0.689	6.278	-6.890
470121.979	NaN	2.793	7.598	-4.674	1512.088	1500.366	1499.634	-0.107	3.771	-4.397	0.689	6.354	-6.967
470122.955	NaN	2.793	7.598	-4.663	1512.821	1498.901	1499.634	-0.290	3.756	-4.580	0.689	6.278	-6.890
470123.932	NaN	2.793	7.587	-4.663	1510.623	1500.366	1500.366	-0.168	3.679	-4.534	0.766	6.201	-7.043
470124.908	NaN	2.793	7.587	-4.674	1510.623	1499.634	1500.366	-0.122	3.603	-4.351	0.766	6.201	-6.967
470125.885	NaN	2.783	7.587	-4.685	1511.355	1500.366	1501.099	-0.382	3.557	-4.198	0.689	6.201	-7.043
470126.862	NaN	2.783	7.576	-4.674	1512.088	1499.634	1500.366	-0.504	3.557	-4.290	0.842	6.201	-7.043
470127.838	NaN	2.772	7.587	-4.674	1512.088	1499.634	1500.366	-0.229	3.588	-4.443	0.842	6.278	-6.967
470128.815	NaN	2.772	7.587	-4.696	1512.088	1499.634	1500.366	-0.046	3.771	-4.519	0.689	6.201	-6.967
470129.791	NaN	2.772	7.598	-4.696	1510.623	1500.366	1498.901	-0.183	3.634	-4.504	0.689	6.278	-6.967
470130.768	NaN	2.772	7.587	-4.707	1511.355	1501.099	1500.366	-0.183	3.450	-4.458	0.689	6.201	-7.043
470131.744	NaN	2.783	7.609	-4.707	1511.355	1500.366	1500.366	-0.061	3.588	-4.275	0.612	6.278	-6.967
470132.721	NaN	2.783	7.609	-4.696	1511.355	1498.901	1501.099	0.031	3.771	-4.351	0.612	6.431	-6.890
470133.698	NaN	2.783	7.609	-4.707	1510.623	1499.634	1500.366	-0.031	3.802	-4.382	0.689	6.201	-7.043
470134.674	NaN	2.783	7.598	-4.717	1512.821	1499.634	1501.832	0.031	3.863	-4.397	0.689	6.278	-6.967
470135.651	NaN	2.793	7.609	-4.707	1512.088	1499.634	1501.099	0.015	3.908	-4.504	0.689	6.278	-7.043
470136.627	NaN	2.793	7.609	-4.696	1512.088	1499.634	1500.366	-0.107	3.817	-4.565	0.766	6.124	-6.890
470137.604	NaN	2.783	7.598	-4.696	1511.355	1499.634	1501.099	-0.214	3.725	-4.397	0.689	6.201	-7.120
470138.580	NaN	2.783	7.609	-4.696	1510.623	1499.634	1501.099	-0.168	3.710	-4.153	0.766	6.278	-7.043
470139.557	NaN	2.793	7.609	-4.707	1512.088	1500.366	1498.901	-0.031	3.511	-4.336	0.612	6.201	-6.967
470140.533	NaN	2.783	7.609	-4.696	1511.355	1499.634	1500.366	-0.229	3.450	-4.443	0.689	6.124	-6.967
470141.510	NaN	2.793	7.609	-4.696	1511.355	1499.634	1500.366	-0.275	3.695	-4.366	0.689	6.354	-6.967
470142.487	NaN	2.804	7.598	-4.685	1511.355	1499.634	1501.832	-0.153	3.802	-4.443	0.766	6.278	-6.813
470143.463	NaN	2.793	7.587	-4.696	1512.088	1499.634	1501.099	-0.046	3.679	-4.382	0.612	6.278	-6.967
470144.440	NaN	2.793	7.598	-4.685	1512.088	1499.634	1502.564	0.031	3.527	-4.382	0.766	6.124	-6.967
470145.416	NaN	2.793	7.598	-4.674	1512.088	1499.634	1501.099	0.046	3.527	-4.244	0.689	6.201	-7.043
470146.393	NaN	2.793	7.598	-4.685	1510.623	1499.634	1501.099	-0.168	3.634	-4.305	0.766	6.201	-7.043
470147.369	NaN	2.783	7.598	-4.696	1511.355	1499.634	1501.099	-0.214	3.740	-4.458	0.689	6.354	-7.043
470148.346	NaN	2.783	7.598	-4.707	1512.088	1500.366	1500.366	-0.076	3.817	-4.366	0.612	6.201	-7.043
470149.323	NaN	2.772	7.598	-4.696	1512.088	1499.634	1501.832	-0.153	3.832	-4.351	0.536	6.278	-6.967
470150.299	NaN	2.772	7.587	-4.696	1511.355	1500.366	1500.366	-0.122	3.847	-4.458	0.766	6.354	-7.043
470151.276	NaN	2.783	7.609	-4.707	1511.355	1500.366	1500.366	-0.275	3.847	-4.580	0.766	6.201	-7.043
470152.252	NaN	2.772	7.598	-4.707	1511.355	1499.634	1499.634	-0.153	3.786	-4.336	0.689	6.201	-7.043
470153.229	NaN	2.783	7.598	-4.696	1511.355	1500.366	1501.832	0.000	3.695	-4.214	0.766	6.201	-7.120
470154.205	NaN	2.793	7.598	-4.696	1510.623	1500.366	1501.832	-0.076	3.710	-4.305	0.689	6.201	-6.967
470155.182	NaN	2.783	7.598	-4.696	1511.355	1499.634	1501.832	-0.260	3.771	-4.244	0.842	6.124	-6.967
470156.158	NaN	2.783	7.598	-4.696	1511.355	1500.366	1500.366	-0.366	3.725	-4.336	0.689	6.278	-7.043
470157.135	NaN	2.783	7.609	-4.717	1512.088	1500.366	1500.366	0.015	3.893	-4.351	0.689	6.124	-6.967
470158.112	NaN	2.793	7.609	-4.717	1512.088	1499.634	1501.832	0.076	3.679	-4.351	0.842	6.201	-7.043
470159.088	NaN	2.793	7.609	-4.707	1512.088	1499.634	1501.832	-0.107	3.481	-4.244	0.766	6.201	-6.967
470160.065	NaN	2.793	7.609	-4.717	1511.355	1499.634	1501.099	-0.336	3.466	-4.290	0.612	6.278	-6.967
470161.041	NaN	2.783	7.609	-4.728	1511.355	1499.634	1500.366	-0.382	3.588	-4.427	0.689	6.278	-7.043
470162.018	NaN	2.804	7.598	-4.717	1511.355	1500.366	1500.366	-0.198	3.618	-4.382	0.766	6.278	-7.043
470162.994	NaN	2.793	7.598	-4.728	1511.355	1500.366	1499.634	-0.107	3.664	-4.290	0.766	6.278	-7.043
470163.971	NaN	2.804	7.598	-4.728	1509.890	1499.634	1500.366	-0.351	3.649	-4.321	0.689	6.201	-6.967
470164.948	NaN	2.815	7.598	-4.717	1512.088	1499.634	1499.634	-0.550	3.695	-4.305	0.689	6.201	-7.043
470165.924	NaN	2.815	7.598	-4.707	1512.088	1500.366	1500.366	-0.412	3.634	-4.305	0.842	6.278	-7.043
470166.901	NaN	2.804	7.609	-4.696	1512.088	1499.634	1499.634	0.076	3.740	-4.305	0.689	6.278	-7.043
470167.877	NaN	2.804	7.598	-4.685	1512.088	1500.366	1498.901	0.137	3.893	-4.229	0.689	6.278	-7.043
470168.854	NaN	2.804	7.609	-4.696	1511.355	1500.366	1498.901	0.031	3.847	-4.214	0.689	6.278	-7.043
470169.830	NaN	2.793	7.609	-4.696	1510.623	1498.901	1500.366	0.000	3.679	-4.168	0.612	6.278	-6.967
470170.807	NaN	2.793	7.620	-4.696	1512.088	1499.634	1501.832	0.076	3.557	-4.366	0.919	6.201	-6.967
470171.783	NaN	2.793	7.620	-4.696	1511.355	1499.634	1501.832	0.000	3.603	-4.473	0.766	6.431	-6.967
470172.760	NaN	2.793	7.609	-4.696	1512.088	1499.634	1501.099	-0.015	3.802	-4.290	0.766	6.278	-7.120
470173.737	NaN	2.793	7.598	-4.696	1511.355	1499.634	1498.901	0.031	3.939	-4.198	0.689	6.354	-6.890
470174.713	NaN	2.793	7.587	-4.696	1511.355	1499.634	1500.366	-0.061	3.802	-4.214	0.766	6.354	-6.967
470175.690	NaN	2.804	7.598	-4.685	1511.355	1500.366	1499.634	-0.046	3.603	-4.366	0.766	6.354	-7.043
470176.666	NaN	2.804	7.587	-4.685	1512.088	1499.634	1500.366	0.122	3.725	-4.366	0.689	6.278	-6.890
470177.643	NaN	2.804	7.587	-4.696	1511.355	1499.634	1501.099	0.000	3.832	-4.336	0.842	6.354	-6.967
470178.619	NaN	2.804	7.598	-4.696	1511.355	1498.901	1501.099	0.046	3.878	-4.244	0.766	6.278	-6.890
470179.596	NaN	2.804	7.598	-4.707	1511.355	1499.634	1500.366	0.061	3.756	-4.443	0.612	6.278	-7.120
470180.573	NaN	2.793	7.598	-4.696	1512.088	1499.634	1501.099	0.168	3.511	-4.550	0.766	6.354	-7.196
470181.549	NaN	2.783	7.609	-4.707	1512.821	1499.634	1500.366	0.000	3.649	-4.611	0.842	6.201	-7.043
470182.526	NaN	2.793	7.609	-4.707	1510.623	1498.901	1499.634	-0.214	3.817	-4.534	0.689	6.201	-6.967
470183.502	NaN	2.793	7.598	-4.707	1512.088	1499.634	1499.634	-0.076	3.939	-4.412	0.766	6.201	-6.967
470184.479	NaN	2.793	7.598	-4.696	1512.088	1500.366	1501.832	0.000	3.847	-4.427	0.689	6.354	-7.120
470185.455	NaN	2.793	7.598	-4.685	1511.355	1500.366	1501.832	-0.092	3.695	-4.580	0.689	6.354	-6.967
470186.432	NaN	2.793	7.598	-4.685	1512.088	1499.634	1500.366	0.031	3.618	-4.489	0.689	6.354	-7.043
470187.408	NaN	2.793	7.587	-4.685	1511.355	1499.634	1500.366	-0.168	3.710	-4.290	0.766	6.354	-7.043
470188.385	NaN	2.793	7.587	-4.696	1512.821	1499.634	1500.366	-0.153	3.695	-4.382	0.689	6.201	-7.043
470189.362	NaN	2.804	7.576	-4.685	1512.088	1500.366	1501.832	-0.031	3.634	-4.336	0.766	6.354	-7.043
470190.338	NaN	2.793	7.587	-4.674	1511.355	1500.366	1500.366	0.183	3.618	-4.183	0.842	6.278	-7.043
470191.315	NaN	2.793	7.576	-4.674	1512.088	1499.634	1500.366	0.198	3.634	-4.092	0.766	6.124	-7.043
470192.291	NaN	2.804	7.587	-4.685	1510.623	1498.901	1499.634	0.382	3.603	-4.229	0.689	6.201	-6.967
470193.268	NaN	2.815	7.598	-4.685	1511.355	1499.634	1501.099	0.397	3.573	-4.244	0.766	6.201	-7.120
470194.244	NaN	2.804	7.598	-4.707	1511.355	1500.366	1499.634	0.122	3.557	-4.275	0.689	6.354	-7.043
470195.221	NaN	2.804	7.587	-4.717	1511.355	1499.634	1501.099	-0.183	3.679	-4.412	0.766	6.278	-6.967
470196.198	NaN	2.804	7.598	-4.717	1511.355	1499.634	1500.366	-0.168	3.740	-4.305	0.689	6.278	-7.043
470197.174	NaN	2.804	7.598	-4.717	1511.355	1499.634	1501.832	0.153	3.786	-4.061	0.842	6.124	-6.890
470198.151	NaN	2.804	7.609	-4.707	1512.088	1500.366	1499.634	0.015	3.756	-4.198	0.689	6.201	-7.043
470199.127	NaN	2.793	7.598	-4.707	1511.355	1499.634	1499.634	0.061	3.878	-4.305	0.766	6.354	-6.967
470200.104	NaN	2.783	7.598	-4.696	1509.890	1498.901	1499.634	-0.168	3.939	-4.275	0.766	6.201	-7.196
470201.080	NaN	2.783	7.598	-4.707	1510.623	1499.634	1500.366	0.000	3.710	-4.321	0.689	6.201	-6.890
470202.057	NaN	2.783	7.598	-4.707	1512.088	1500.366	1499.634	0.122	3.557	-4.443	0.766	6.201	-6.967
470203.033	NaN	2.793	7.609	-4.707	1511.355	1500.366	1500.366	-0.076	3.664	-4.290	0.612	6.278	-6.890
470204.010	NaN	2.783	7.620	-4.707	1511.355	1499.634	1501.832	-0.244	3.527	-4.290	0.612	6.124	-7.120
470204.987	NaN	2.783	7.620	-4.696	1512.088	1500.366	1500.366	-0.137	3.496	-4.397	0.689	6.278	-6.967
470205.963	NaN	2.783	7.609	-4.707	1511.355	1500.366	1499.634	-0.031	3.588	-4.366	0.689	6.201	-7.043
470206.940	NaN	2.783	7.609	-4.685	1512.088	1500.366	1500.366	0.092	3.634	-4.336	0.766	6.201	-6.890
470207.916	NaN	2.793	7.620	-4.685	1511.355	1499.634	1501.099	0.244	3.573	-4.290	0.766	6.431	-7.043
470250.885	NaN	2.793	7.598	-4.685	1511.355	1499.634	1501.099	-0.046	3.542	-4.321	0.766	6.278	-6.967
470251.862	NaN	2.783	7.576	-4.685	1510.623	1499.634	1499.634	-0.031	3.634	-4.214	0.612	6.354	-7.043
470252.838	3736841748.229	2.793	7.587	-4.663	1509.890	1498.901	1500.366	-0.061	3.664	-4.122	0.766	6.201	-7.043
470253.815	NaN	2.804	7.598	-4.674	1512.088	1498.901	1499.634	-0.198	3.527	-4.031	0.766	6.124	-7.196
470254.791	NaN	2.804	7.598	-4.685	1510.623	1498.901	1498.901	-0.153	3.374	-4.076	0.766	6.278	-7.120
470255.768	NaN	2.793	7.598	-4.663	1510.623	1498.901	1500.366	0.107	3.542	-4.260	0.612	6.201	-7.196
470256.744	NaN	2.804	7.598	-4.685	1511.355	1498.901	1499.634	0.107	3.695	-4.290	0.689	6.278	-7.043
470257.721	NaN	2.804	7.598	-4.685	1509.158	1498.901	1498.901	0.107	3.695	-4.382	0.689	6.124	-6.890
470258.698	NaN	2.815	7.587	-4.685	1511.355	1498.901	1501.099	-0.092	3.542	-4.443	0.689	6.278	-7.043
470259.674	NaN	2.804	7.598	-4.685	1511.355	1499.634	1500.366	-0.137	3.573	-4.260	0.842	6.124	-7.043
470260.651	NaN	2.804	7.598	-4.696	1510.623	1499.634	1499.634	0.076	3.588	-4.168	0.689	6.278	-6.967
470261.627	NaN	2.793	7.609	-4.685	1512.088	1499.634	1501.099	0.198	3.618	-4.168	0.766	6.278	-7.043
470262.604	NaN	2.793	7.598	-4.707	1511.355	1500.366	1498.901	0.122	3.557	-3.969	0.766	6.124	-7.043
470263.580	NaN	2.783	7.598	-4.707	1511.355	1498.168	1499.634	-0.137	3.511	-4.214	0.689	6.124	-7.043
470264.557	NaN	2.793	7.598	-4.696	1512.088	1499.634	1500.366	0.015	3.359	-4.519	0.689	6.354	-6.967
470265.533	NaN	2.793	7.587	-4.707	1512.088	1499.634	1498.901	0.061	3.420	-4.473	0.689	6.201	-7.043
470266.510	NaN	2.804	7.598	-4.685	1511.355	1499.634	1499.634	0.046	3.435	-4.458	0.689	6.201	-6.967
470267.487	NaN	2.815	7.598	-4.696	1511.355	1499.634	1500.366	-0.168	3.435	-4.397	0.842	6.278	-7.043
470268.463	NaN	2.804	7.587	-4.707	1509.890	1498.901	1499.634	-0.137	3.374	-4.504	0.766	6.201	-7.043
470269.440	NaN	2.815	7.598	-4.696	1511.355	1499.634	1501.832	0.015	3.542	-4.489	0.689	6.278	-6.967
470270.416	NaN	2.804	7.587	-4.696	1511.355	1499.634	1500.366	0.137	3.389	-4.412	0.689	6.278	-6.967
470271.393	NaN	2.804	7.609	-4.696	1510.623	1499.634	1500.366	0.046	3.221	-4.260	0.689	6.201	-6.967
470272.369	NaN	2.804	7.609	-4.696	1510.623	1499.634	1501.099	-0.183	3.313	-4.061	0.766	6.278	-7.120
470273.346	NaN	2.804	7.609	-4.717	1512.821	1499.634	1501.832	-0.305	3.450	-4.351	0.689	6.201	-6.967
470274.323	NaN	2.804	7.609	-4.717	1511.355	1499.634	1500.366	-0.137	3.496	-4.519	0.766	6.124	-7.196
470275.299	NaN	2.804	7.620	-4.717	1511.355	1499.634	1501.099	-0.229	3.557	-4.351	0.766	6.278	-7.043
470276.276	NaN	2.804	7.609	-4.728	1511.355	1499.634	1501.832	0.015	3.389	-4.321	0.842	6.201	-7.120
470277.252	NaN	2.793	7.598	-4.717	1511.355	1499.634	1501.099	0.214	3.466	-4.366	0.689	6.354	-6.967
470278.229	NaN	2.783	7.598	-4.717	1511.355	1499.634	1500.366	0.153	3.542	-4.321	0.766	6.354	-7.120
470279.205	NaN	2.804	7.598	-4.696	1510.623	1500.366	1499.634	0.046	3.420	-4.092	0.689	6.278	-7.043
470280.182	NaN	2.793	7.587	-4.707	1511.355	1498.901	1501.832	0.092	3.359	-4.321	0.689	6.278	-6.967
470281.158	NaN	2.783	7.576	-4.717	1511.355	1498.168	1498.901	0.229	3.405	-4.489	0.612	6.201	-6.967
470282.135	NaN	2.804	7.587	-4.717	1512.088	1500.366	1501.099	0.214	3.481	-4.427	0.612	6.278	-7.043
470283.112	NaN	2.793	7.587	-4.717	1510.623	1499.634	1500.366	0.092	3.115	-4.412	0.766	6.201	-7.043
470284.088	NaN	2.804	7.598	-4.707	1510.623	1500.366	1500.366	-0.107	3.099	-4.382	0.766	6.278	-7.120
470285.065	NaN	2.804	7.609	-4.707	1512.088	1499.634	1500.366	0.046	3.191	-4.275	0.612	6.124	-7.043
470286.041	NaN	2.804	7.598	-4.707	1511.355	1498.168	1501.099	0.107	3.374	-4.122	0.766	6.124	-6.967
470287.018	NaN	2.815	7.609	-4.696	1512.088	1499.634	1501.832	0.031	3.542	-4.122	0.689	6.124	-7.120
470287.994	NaN	2.804	7.598	-4.707	1510.623	1498.901	1500.366	-0.137	3.420	-4.092	0.612	6.201	-6.967
470288.971	NaN	2.815	7.598	-4.696	1512.088	1499.634	1501.099	0.046	3.450	-3.969	0.766	6.278	-7.120
470289.948	NaN	2.793	7.598	-4.696	1511.355	1498.901	1500.366	0.015	3.588	-4.183	0.612	6.354	-6.967
470290.924	NaN	2.804	7.609	-4.696	1509.158	1498.901	1499.634	-0.153	3.450	-4.260	0.689	6.201	-7.043
470291.901	NaN	2.804	7.598	-4.696	1512.088	1499.634	1501.832	-0.015	3.237	-4.260	0.842	6.278	-7.120
470292.877	NaN	2.783	7.598	-4.717	1512.821	1498.901	1499.634	0.198	3.313	-4.244	0.842	6.201	-7.043
470293.854	NaN	2.793	7.598	-4.696	1510.623	1499.634	1501.099	0.168	3.359	-4.305	0.689	6.201	-7.120
470294.830	NaN	2.783	7.598	-4.707	1512.088	1499.634	1501.832	0.092	3.496	-4.260	0.919	6.201	-6.967
470295.807	NaN	2.783	7.587	-4.707	1511.355	1498.901	1499.634	0.168	3.557	-4.321	0.842	6.354	-7.043
470296.783	NaN	2.783	7.587	-4.696	1510.623	1498.168	1500.366	-0.031	3.420	-4.427	0.766	6.278	-7.043
470297.760	NaN	2.793	7.587	-4.696	1511.355	1500.366	1500.366	0.031	3.450	-4.473	0.766	6.201	-6.967
470298.737	NaN	2.793	7.609	-4.696	1510.623	1498.168	1499.634	0.000	3.511	-4.351	0.766	6.201	-6.967
470299.713	NaN	2.793	7.609	-4.696	1511.355	1499.634	1500.366	0.015	3.542	-4.458	0.689	6.278	-7.043
470300.690	NaN	2.793	7.609	-4.696	1511.355	1499.634	1499.634	-0.046	3.481	-4.427	0.766	6.278	-6.967
470301.666	NaN	2.804	7.609	-4.696	1510.623	1498.168	1499.634	0.046	3.481	-4.336	0.842	6.278	-7.196
470302.643	NaN	2.804	7.609	-4.696	1511.355	1500.366	1499.634	0.321	3.435	-4.443	0.612	6.124	-6.967
470303.619	NaN	2.793	7.609	-4.717	1510.623	1498.901	1500.366	0.076	3.328	-4.275	0.612	6.354	-6.967
470304.596	NaN	2.804	7.609	-4.717	1510.623	1499.634	1500.366	-0.260	3.221	-4.214	0.612	6.431	-6.967
470305.573	NaN	2.793	7.609	-4.717	1510.623	1498.901	1500.366	-0.183	3.328	-4.275	0.689	6.201	-6.967
470306.549	NaN	2.804	7.620	-4.717	1511.355	1499.634	1501.832	0.031	3.450	-4.321	0.689	6.354	-7.043
470307.526	NaN	2.804	7.609	-4.696	1511.355	1499.634	1500.366	0.153	3.634	-4.336	0.612	6.201	-7.120
470308.502	NaN	2.793	7.609	-4.707	1510.623	1499.634	1499.634	-0.092	3.588	-4.336	0.689	6.354	-7.043
470309.479	NaN	2.793	7.587	-4.696	1511.355	1498.901	1500.366	-0.122	3.511	-4.336	0.766	6.278	-6.890
470310.455	NaN	2.804	7.598	-4.685	1512.088	1499.634	1501.099	-0.076	3.450	-4.443	0.689	6.124	-6.967
470311.432	NaN	2.804	7.587	-4.696	1511.355	1498.901	1501.099	0.061	3.435	-4.351	0.766	6.201	-6.967
470312.408	NaN	2.804	7.587	-4.696	1510.623	1498.168	1499.634	0.061	3.450	-4.153	0.536	6.278	-6.967
470313.385	NaN	2.793	7.587	-4.717	1511.355	1500.366	1499.634	-0.198	3.481	-4.214	0.612	6.278	-6.967
470314.362	NaN	2.783	7.587	-4.717	1511.355	1499.634	1499.634	-0.229	3.389	-4.275	0.689	6.124	-7.043
470315.338	NaN	2.793	7.598	-4.717	1511.355	1498.901	1501.099	0.107	3.359	-4.412	0.612	6.124	-7.120
470316.315	NaN	2.783	7.598	-4.717	1511.355	1498.901	1500.366	0.107	3.359	-4.321	0.689	6.201	-7.043
470317.291	NaN	2.783	7.598	-4.717	1509.158	1498.901	1502.564	0.000	3.420	-4.305	0.612	6.431	-6.813
470318.268	NaN	2.793	7.598	-4.707	1512.088	1500.366	1500.366	0.046	3.435	-4.351	0.689	6.278	-6.967
470319.244	NaN	2.793	7.587	-4.717	1511.355	1498.901	1499.634	0.122	3.405	-4.229	0.612	6.278	-7.043
470320.221	NaN	2.804	7.598	-4.707	1512.088	1499.634	1500.366	-0.046	3.359	-4.031	0.689	6.278	-7.043
470321.198	NaN	2.815	7.576	-4.707	1511.355	1499.634	1501.832	0.046	3.374	-4.031	0.689	6.201	-6.967
470322.174	NaN	2.793	7.587	-4.707	1510.623	1498.901	1501.099	0.122	3.267	-4.198	0.689	6.278	-6.967
470323.151	NaN	2.793	7.587	-4.685	1510.623	1498.901	1500.366	0.260	3.267	-4.260	0.842	6.201	-6.967
470324.127	NaN	2.783	7.587	-4.696	1512.821	1499.634	1501.099	0.107	3.252	-4.107	0.766	6.201	-7.043
470325.104	NaN	2.793	7.587	-4.696	1511.355	1499.634	1500.366	-0.214	3.298	-4.290	0.689	6.354	-7.043
470326.080	NaN	2.793	7.598	-4.707	1510.623	1500.366	1498.901	-0.168	3.374	-4.443	0.766	6.201	-6.967
470327.057	NaN	2.783	7.598	-4.707	1512.088	1500.366	1500.366	-0.061	3.344	-4.275	0.766	6.354	-6.967
470328.033	NaN	2.783	7.609	-4.707	1512.088	1499.634	1501.832	0.137	3.389	-4.229	0.842	6.201	-7.043
470329.010	NaN	2.793	7.609	-4.717	1512.088	1499.634	1500.366	-0.031	3.405	-4.351	0.689	6.201	-6.967
470329.987	NaN	2.783	7.609	-4.717	1511.355	1498.901	1501.832	-0.092	3.450	-4.473	0.842	6.354	-7.043
470330.963	NaN	2.793	7.598	-4.707	1512.088	1499.634	1500.366	0.015	3.435	-4.351	0.766	6.201	-6.890
470331.940	NaN	2.793	7.598	-4.707	1510.623	1499.634	1499.634	-0.046	3.405	-4.321	0.612	6.201	-7.043
470332.916	NaN	2.793	7.587	-4.685	1510.623	1498.901	1498.901	-0.107	3.344	-4.351	0.689	6.278	-6.967
470333.893	NaN	2.804	7.587	-4.685	1512.088	1499.634	1500.366	-0.351	3.313	-4.382	0.612	6.278	-6.967
470334.869	NaN	2.793	7.587	-4.685	1512.088	1498.901	1500.366	-0.244	3.435	-4.305	0.689	6.278	-7.043
470335.846	NaN	2.793	7.598	-4.674	1510.623	1501.099	1500.366	0.183	3.511	-4.229	0.612	6.048	-7.043
470336.823	NaN	2.793	7.598	-4.674	1512.088	1499.634	1501.832	0.366	3.328	-4.153	0.689	6.278	-6.967
470337.799	NaN	2.793	7.598	-4.685	1511.355	1498.901	1501.099	0.458	3.344	-4.046	0.612	6.201	-6.890
470338.776	NaN	2.793	7.587	-4.685	1511.355	1498.901	1501.099	0.382	3.405	-4.229	0.689	6.354	-7.120
470339.752	NaN	2.793	7.598	-4.696	1512.088	1499.634	1500.366	0.031	3.359	-4.351	0.612	6.278	-6.890
470340.729	NaN	2.793	7.609	-4.707	1512.088	1499.634	1501.832	-0.137	3.435	-4.260	0.612	6.278	-7.120
470341.705	NaN	2.793	7.609	-4.707	1511.355	1500.366	1501.099	0.000	3.359	-4.153	0.612	6.201	-6.967
470342.682	NaN	2.793	7.609	-4.707	1510.623	1499.634	1500.366	-0.015	3.282	-4.137	0.842	6.354	-7.043
470343.658	NaN	2.793	7.609	-4.717	1509.890	1499.634	1500.366	-0.122	3.176	-4.275	0.689	6.201	-7.043
470344.635	NaN	2.793	7.598	-4.717	1511.355	1499.634	1501.099	0.076	3.145	-4.275	0.689	6.354	-6.967
470345.612	NaN	2.793	7.609	-4.707	1511.355	1499.634	1501.099	0.076	3.237	-4.061	0.766	6.278	-6.967
470346.588	NaN	2.804	7.609	-4.707	1511.355	1498.901	1500.366	-0.382	3.282	-3.969	0.689	6.278	-6.890
470347.565	NaN	2.793	7.598	-4.707	1512.088	1498.901	1499.634	-0.305	3.298	-4.000	0.612	6.201	-6.890
470348.541	NaN	2.793	7.598	-4.696	1510.623	1499.634	1500.366	-0.076	3.191	-4.183	0.536	6.124	-6.890
470349.518	NaN	2.815	7.598	-4.674	1512.088	1499.634	1501.099	0.107	3.237	-4.229	0.612	6.201	-6.967
470350.494	NaN	2.793	7.598	-4.685	1510.623	1499.634	1500.366	0.153	3.420	-4.305	0.689	6.201	-6.890
470351.471	NaN	2.793	7.598	-4.696	1510.623	1499.634	1499.634	0.229	3.481	-4.427	0.766	6.278	-7.043
470352.448	NaN	2.804	7.598	-4.696	1511.355	1498.901	1500.366	-0.031	3.450	-4.244	0.766	6.201	-7.043
470353.424	NaN	2.793	7.609	-4.696	1510.623	1499.634	1500.366	-0.137	3.450	-4.229	0.689	6.278	-7.120
470354.401	NaN	2.793	7.609	-4.685	1512.088	1498.901	1500.366	-0.305	3.435	-4.275	0.689	6.201	-6.967
470355.377	NaN	2.804	7.609	-4.696	1511.355	1498.901	1499.634	-0.092	3.496	-4.092	0.689	6.201	-7.120
470356.354	NaN	2.793	7.598	-4.696	1510.623	1498.901	1501.099	-0.107	3.557	-3.908	0.536	6.278	-7.196
470357.330	NaN	2.783	7.587	-4.707	1510.623	1500.366	1499.634	-0.168	3.496	-3.954	0.612	6.278	-7.043
470358.307	NaN	2.793	7.587	-4.707	1510.623	1500.366	1501.099	-0.168	3.450	-4.214	0.842	6.431	-6.967
470359.283	NaN	2.793	7.587	-4.696	1512.088	1499.634	1500.366	0.061	3.695	-4.229	0.689	6.278	-6.967
470360.260	NaN	2.783	7.587	-4.696	1511.355	1499.634	1500.366	-0.031	3.527	-4.290	0.612	6.201	-6.890
470361.237	NaN	2.793	7.609	-4.717	1511.355	1499.634	1500.366	-0.153	3.298	-4.305	0.689	6.354	-7.120
470362.213	NaN	2.793	7.598	-4.717	1511.355	1499.634	1501.832	-0.046	3.282	-4.336	0.612	6.278	-7.043
470363.190	NaN	2.804	7.598	-4.696	1511.355	1499.634	1501.099	-0.015	3.344	-4.198	0.536	6.124	-7.120
470364.166	NaN	2.804	7.609	-4.717	1510.623	1499.634	1501.099	0.137	3.267	-4.214	0.612	6.201	-6.890
470365.143	NaN	2.793	7.598	-4.717	1512.088	1498.901	1500.366	0.000	3.252	-4.305	0.766	6.354	-6.967
470366.119	NaN	2.783	7.598	-4.707	1512.088	1498.901	1500.366	-0.153	3.282	-4.229	0.612	6.278	-6.813
470367.096	NaN	2.793	7.598	-4.717	1512.088	1500.366	1501.099	-0.015	3.527	-4.031	0.612	6.201	-7.043
470368.073	NaN	2.793	7.609	-4.717	1510.623	1500.366	1501.099	0.229	3.588	-4.092	0.689	6.278	-6.890
470369.049	NaN	2.793	7.609	-4.707	1510.623	1499.634	1500.366	0.153	3.557	-4.168	0.766	6.201	-7.043
470388.580	NaN	2.793	7.587	-4.728	1509.890	1499.634	1501.832	0.000	3.450	-3.908	0.689	6.201	-7.043
470389.557	NaN	2.793	7.587	-4.728	1512.088	1498.901	1501.099	-0.122	3.435	-4.015	0.612	6.201	-7.120
470390.533	NaN	2.793	7.598	-4.728	1511.355	1499.634	1501.099	0.183	3.496	-4.076	0.766	6.278	-7.043
470391.510	NaN	2.783	7.598	-4.717	1511.355	1499.634	1501.099	0.046	3.496	-4.198	0.612	6.201	-7.043
470392.487	NaN	2.783	7.598	-4.707	1510.623	1499.634	1501.099	-0.031	3.313	-4.183	0.766	6.201	-7.043
470393.463	NaN	2.772	7.609	-4.717	1512.088	1499.634	1501.099	-0.015	3.221	-4.229	0.766	6.278	-7.043
470394.440	NaN	2.783	7.609	-4.717	1512.088	1499.634	1501.832	0.076	3.481	-4.351	0.689	6.431	-6.967
470395.416	NaN	2.783	7.609	-4.728	1511.355	1499.634	1500.366	0.046	3.252	-4.382	0.689	6.124	-7.043
470396.393	NaN	2.783	7.609	-4.728	1509.890	1498.901	1500.366	-0.046	3.252	-4.015	0.766	6.278	-7.043
470397.369	3736841748.390	2.772	7.598	-4.717	1510.623	1499.634	1500.366	-0.061	3.328	-3.756	0.689	6.278	-7.043
470398.346	NaN	2.783	7.598	-4.707	1511.355	1500.366	1499.634	-0.198	3.282	-3.939	0.536	6.201	-6.890
470399.323	NaN	2.783	7.587	-4.696	1511.355	1499.634	1501.832	-0.260	3.466	-4.107	0.689	6.201	-6.967
470400.299	NaN	2.793	7.598	-4.685	1510.623	1500.366	1500.366	-0.183	3.603	-4.275	0.766	6.354	-7.043
470401.276	NaN	2.793	7.598	-4.685	1510.623	1499.634	1499.634	-0.137	3.252	-4.229	0.689	6.354	-7.043
470402.252	NaN	2.783	7.598	-4.696	1512.821	1498.901	1500.366	-0.183	3.221	-3.969	0.766	6.278	-7.043
470403.229	NaN	2.793	7.609	-4.696	1512.088	1499.634	1501.099	0.000	3.237	-3.985	0.766	6.124	-7.043
470404.205	NaN	2.793	7.609	-4.685	1511.355	1498.901	1499.634	0.290	3.405	-4.153	0.842	6.354	-6.967
470405.182	NaN	2.804	7.598	-4.685	1511.355	1498.901	1500.366	0.351	3.496	-4.183	0.766	6.201	-6.967
470406.158	NaN	2.793	7.598	-4.685	1509.890	1500.366	1498.901	-0.107	3.435	-4.137	0.612	6.278	-7.043
470407.135	NaN	2.783	7.587	-4.696	1512.088	1500.366	1500.366	-0.427	3.420	-4.046	0.842	6.124	-7.120
470408.112	NaN	2.783	7.598	-4.685	1511.355	1500.366	1499.634	-0.168	3.420	-3.985	0.536	6.278	-7.196
470409.088	NaN	2.783	7.598	-4.696	1511.355	1500.366	1499.634	0.092	3.573	-4.092	0.612	6.278	-6.967
470410.065	NaN	2.783	7.587	-4.707	1510.623	1499.634	1501.832	-0.153	3.405	-3.985	0.612	6.354	-7.043
470411.041	NaN	2.783	7.587	-4.707	1511.355	1498.901	1501.832	-0.137	3.099	-3.939	0.766	6.201	-6.967
470412.018	NaN	2.783	7.587	-4.707	1512.821	1498.901	1500.366	-0.137	3.344	-4.000	0.766	6.124	-7.120
470412.994	NaN	2.793	7.587	-4.707	1512.088	1499.634	1501.099	-0.092	3.359	-4.168	0.689	6.354	-7.120
470413.971	NaN	2.783	7.598	-4.696	1511.355	1499.634	1500.366	-0.244	3.237	-3.924	0.689	6.354	-7.043
470414.948	NaN	2.783	7.598	-4.696	1511.355	1499.634	1501.099	-0.275	3.405	-3.985	0.842	6.278	-6.967
470415.924	NaN	2.783	7.587	-4.707	1512.088	1500.366	1498.901	-0.076	3.466	-4.260	0.689	6.278	-6.890
470416.901	NaN	2.783	7.598	-4.696	1510.623	1499.634	1499.634	-0.015	3.466	-4.214	0.689	6.354	-6.890
470417.877	NaN	2.783	7.587	-4.685	1511.355	1500.366	1500.366	-0.061	3.420	-4.183	0.689	6.278	-7.120
470418.854	NaN	2.772	7.587	-4.685	1512.088	1498.901	1501.099	-0.076	3.481	-4.000	0.689	6.201	-7.043
470419.830	NaN	2.772	7.598	-4.696	1511.355	1498.901	1501.832	-0.031	3.481	-4.076	0.689	6.278	-6.967
470420.807	NaN	2.772	7.598	-4.696	1511.355	1499.634	1500.366	-0.153	3.466	-4.153	0.766	6.124	-6.967
470421.783	NaN	2.793	7.609	-4.685	1510.623	1498.901	1500.366	-0.107	3.450	-3.969	0.766	6.201	-7.043
470422.760	NaN	2.804	7.598	-4.707	1511.355	1499.634	1500.366	-0.214	3.466	-4.000	0.689	6.354	-6.967
470423.737	NaN	2.804	7.609	-4.717	1512.088	1498.901	1501.832	-0.061	3.359	-4.092	0.766	6.278	-6.967
470424.713	NaN	2.793	7.609	-4.707	1509.158	1500.366	1499.634	0.046	3.298	-4.198	0.766	6.354	-7.043
470425.690	NaN	2.783	7.598	-4.707	1511.355	1498.901	1501.099	0.061	3.466	-4.076	0.766	6.201	-7.043
470426.666	NaN	2.783	7.598	-4.707	1511.355	1499.634	1499.634	0.092	3.588	-4.122	0.612	6.278	-6.813
470427.643	NaN	2.793	7.598	-4.696	1511.355	1498.901	1499.634	0.122	3.481	-3.954	0.612	6.124	-7.120
470428.619	NaN	2.793	7.598	-4.685	1510.623	1499.634	1501.099	-0.305	3.511	-3.878	0.766	6.201	-7.120
470429.596	NaN	2.793	7.598	-4.696	1512.821	1500.366	1500.366	-0.092	3.603	-3.878	0.689	6.124	-7.043
470430.573	NaN	2.793	7.587	-4.717	1511.355	1498.901	1501.099	0.015	3.603	-4.046	0.689	6.201	-7.043
470431.549	NaN	2.793	7.587	-4.696	1510.623	1498.901	1500.366	-0.168	3.496	-4.107	0.766	6.278	-7.043
470432.526	NaN	2.804	7.587	-4.707	1511.355	1500.366	1499.634	-0.046	3.435	-4.275	0.842	6.124	-7.120
470433.502	NaN	2.793	7.576	-4.707	1510.623	1498.168	1500.366	0.046	3.435	-4.244	0.766	6.354	-6.967
470434.479	NaN	2.804	7.587	-4.685	1511.355	1499.634	1500.366	0.000	3.282	-4.214	0.689	6.201	-7.043
470435.455	NaN	2.793	7.576	-4.696	1510.623	1498.901	1501.099	0.015	3.328	-4.153	0.766	6.201	-6.967
470436.432	NaN	2.804	7.576	-4.685	1509.890	1499.634	1500.366	-0.046	3.435	-3.954	0.766	6.124	-7.043
470437.408	NaN	2.793	7.587	-4.685	1511.355	1499.634	1500.366	-0.046	3.573	-4.061	0.612	6.354	-6.813
470438.385	NaN	2.793	7.576	-4.696	1510.623	1498.901	1500.366	-0.092	3.405	-4.183	0.766	6.201	-7.043
470439.362	NaN	2.804	7.598	-4.696	1510.623	1498.901	1501.099	-0.168	3.344	-4.229	0.842	6.201	-6.967
470440.338	NaN	2.804	7.609	-4.696	1509.890	1500.366	1501.099	-0.168	3.466	-4.198	0.689	6.278	-6.967
470441.315	NaN	2.804	7.609	-4.717	1510.623	1499.634	1501.099	-0.061	3.405	-3.939	0.689	6.278	-7.043
470442.291	NaN	2.793	7.609	-4.717	1512.088	1497.436	1501.832	-0.076	3.527	-3.847	0.766	6.201	-6.967
470443.268	NaN	2.804	7.609	-4.707	1510.623	1498.168	1500.366	0.092	3.542	-3.802	0.842	6.124	-6.967
470444.244	NaN	2.815	7.630	-4.696	1511.355	1499.634	1501.099	0.092	3.389	-4.000	0.766	6.124	-7.120
470445.221	NaN	2.804	7.609	-4.707	1511.355	1499.634	1501.832	0.076	3.267	-4.107	0.612	6.354	-6.890
470446.198	NaN	2.804	7.598	-4.707	1510.623	1499.634	1500.366	0.092	3.160	-4.061	0.612	6.278	-6.967
470447.174	NaN	2.815	7.609	-4.707	1511.355	1499.634	1499.634	-0.046	3.313	-4.000	0.689	6.201	-7.043
470448.151	NaN	2.793	7.587	-4.707	1510.623	1498.901	1500.366	-0.229	3.389	-4.122	0.536	6.201	-7.043
470449.127	NaN	2.804	7.587	-4.707	1510.623	1498.901	1499.634	-0.427	3.313	-4.000	0.689	6.201	-7.196
470450.104	NaN	2.804	7.587	-4.707	1511.355	1499.634	1501.099	-0.305	3.298	-3.908	0.612	6.278	-6.967
470451.080	NaN	2.804	7.587	-4.707	1510.623	1498.901	1499.634	-0.015	3.313	-3.969	0.689	6.354	-7.120
470452.057	NaN	2.804	7.587	-4.707	1512.088	1499.634	1500.366	0.015	3.313	-3.985	0.766	6.354	-7.043
470453.033	NaN	2.783	7.576	-4.728	1510.623	1499.634	1499.634	0.031	3.420	-3.969	0.766	6.201	-6.967
470454.010	NaN	2.793	7.576	-4.717	1510.623	1498.901	1500.366	-0.015	3.389	-3.969	0.766	6.201	-7.120
470454.987	NaN	2.783	7.576	-4.728	1509.890	1499.634	1501.832	-0.183	3.374	-3.863	0.689	6.278	-7.043
470455.963	NaN	2.783	7.576	-4.728	1510.623	1498.901	1498.901	-0.229	3.389	-3.939	0.766	6.278	-7.043
470456.940	NaN	2.793	7.587	-4.707	1510.623	1498.901	1499.634	-0.061	3.359	-3.817	0.689	6.278	-6.890
470457.916	NaN	2.793	7.598	-4.696	1511.355	1499.634	1500.366	-0.015	3.481	-3.786	0.842	6.201	-7.120
470458.893	NaN	2.793	7.598	-4.685	1510.623	1499.634	1501.099	0.137	3.573	-3.863	0.689	6.201	-7.043
470459.869	NaN	2.793	7.587	-4.696	1510.623	1498.901	1501.099	0.214	3.328	-4.153	0.689	6.201	-6.967
470460.846	NaN	2.793	7.598	-4.696	1512.088	1499.634	1501.099	-0.122	3.267	-4.031	0.766	6.201	-7.043
470461.823	NaN	2.783	7.598	-4.707	1511.355	1499.634	1501.832	-0.336	3.344	-3.863	0.766	6.278	-7.120
470462.799	NaN	2.793	7.609	-4.696	1511.355	1501.099	1499.634	-0.260	3.450	-3.756	0.766	6.124	-6.967
470463.776	NaN	2.783	7.609	-4.717	1512.088	1499.634	1501.099	-0.198	3.542	-3.924	0.766	6.278	-6.890
470464.752	NaN	2.793	7.609	-4.696	1512.088	1498.901	1499.634	-0.046	3.573	-4.092	0.612	6.278	-7.043
470465.729	NaN	2.793	7.598	-4.707	1511.355	1499.634	1501.832	0.046	3.557	-4.153	0.612	6.201	-6.737
470466.705	NaN	2.783	7.598	-4.717	1510.623	1498.901	1499.634	-0.137	3.405	-4.015	0.689	6.124	-7.043
470467.682	NaN	2.783	7.609	-4.707	1510.623	1499.634	1501.832	-0.412	3.221	-3.893	0.766	6.354	-7.043
470468.658	NaN	2.772	7.609	-4.717	1511.355	1499.634	1501.099	-0.321	3.237	-3.802	0.766	6.201	-7.043
470469.635	NaN	2.783	7.598	-4.717	1511.355	1498.901	1500.366	-0.260	3.466	-3.817	0.689	6.201	-7.043
470470.612	NaN	2.783	7.598	-4.717	1512.088	1500.366	1498.901	-0.092	3.511	-3.969	0.612	6.201	-7.120
470471.588	NaN	2.772	7.587	-4.728	1509.890	1499.634	1501.099	-0.198	3.405	-4.092	0.689	6.278	-7.120
470472.565	NaN	2.772	7.576	-4.717	1511.355	1498.901	1498.901	-0.366	3.405	-4.000	0.689	6.201	-6.967
470473.541	NaN	2.772	7.587	-4.717	1511.355	1499.634	1501.099	-0.275	3.496	-3.939	0.689	6.278	-7.043
470474.518	NaN	2.772	7.587	-4.728	1509.890	1499.634	1500.366	-0.031	3.557	-3.893	0.612	6.278	-6.967
470475.494	NaN	2.772	7.598	-4.717	1512.088	1500.366	1500.366	0.000	3.649	-3.893	0.612	6.201	-6.967
470476.471	NaN	2.783	7.598	-4.707	1511.355	1499.634	1500.366	-0.168	3.802	-4.168	0.689	6.354	-7.043
470477.448	NaN	2.793	7.598	-4.717	1511.355	1500.366	1499.634	-0.183	3.573	-4.153	0.766	6.278	-6.813
470478.424	NaN	2.783	7.587	-4.717	1512.088	1499.634	1501.832	-0.198	3.481	-3.954	0.612	6.201	-7.043
470479.401	NaN	2.783	7.587	-4.717	1512.821	1500.366	1501.099	-0.214	3.664	-3.817	0.689	6.278	-6.813
470480.377	NaN	2.783	7.587	-4.717	1511.355	1499.634	1500.366	-0.107	3.649	-3.649	0.612	6.278	-7.196
470481.354	NaN	2.793	7.587	-4.717	1511.355	1500.366	1499.634	-0.076	3.481	-3.756	0.689	6.201	-6.967
470482.330	NaN	2.783	7.587	-4.717	1510.623	1499.634	1501.099	0.031	3.542	-3.863	0.689	6.278	-6.967
470483.307	NaN	2.783	7.587	-4.728	1510.623	1501.832	1499.634	-0.092	3.557	-3.893	0.689	6.201	-7.120
470484.283	NaN	2.772	7.598	-4.717	1512.088	1499.634	1500.366	-0.214	3.435	-4.061	0.766	6.278	-6.967
470485.260	NaN	2.761	7.598	-4.717	1512.088	1499.634	1501.099	-0.168	3.527	-4.092	0.689	6.278	-6.890
470486.237	NaN	2.761	7.598	-4.707	1511.355	1500.366	1500.366	-0.076	3.664	-4.015	0.612	6.278	-6.967
470487.213	NaN	2.761	7.598	-4.707	1511.355	1499.634	1500.366	0.000	3.527	-3.893	0.689	6.278	-6.967
470488.190	NaN	2.761	7.620	-4.707	1512.088	1499.634	1500.366	0.031	3.389	-3.847	0.689	6.278	-7.043
470489.166	NaN	2.772	7.609	-4.707	1512.821	1500.366	1502.564	0.031	3.573	-3.817	0.689	6.278	-7.043
470490.143	NaN	2.772	7.609	-4.696	1512.088	1499.634	1501.099	0.015	3.588	-3.802	0.689	6.201	-6.967
470491.119	NaN	2.783	7.620	-4.696	1511.355	1499.634	1501.832	-0.076	3.588	-3.908	0.689	6.201	-6.967
470492.096	NaN	2.793	7.609	-4.707	1513.553	1500.366	1498.901	-0.107	3.557	-3.756	0.689	6.278	-7.043
470493.073	NaN	2.793	7.598	-4.696	1512.088	1499.634	1501.099	-0.321	3.374	-4.015	0.766	6.354	-6.967
470494.049	NaN	2.793	7.598	-4.696	1509.158	1501.099	1499.634	-0.443	3.282	-4.198	0.689	6.278	-7.043
470495.026	NaN	2.793	7.609	-4.696	1511.355	1498.901	1501.099	-0.427	3.420	-3.878	0.766	6.278	-7.043
470496.002	NaN	2.772	7.598	-4.707	1512.088	1499.634	1500.366	-0.321	3.618	-3.863	0.689	6.278	-7.043
470496.979	NaN	2.793	7.598	-4.685	1512.088	1499.634	1501.832	-0.015	3.588	-3.969	0.766	6.278	-6.967
470497.955	NaN	2.793	7.598	-4.685	1510.623	1499.634	1500.366	-0.031	3.511	-3.756	0.766	6.278	-7.196
470498.932	NaN	2.793	7.598	-4.696	1510.623	1499.634	1500.366	-0.168	3.359	-3.679	0.612	6.354	-6.967
470499.908	NaN	2.793	7.598	-4.685	1511.355	1498.168	1501.099	-0.275	3.344	-3.695	0.612	6.278	-7.120
470500.885	NaN	2.793	7.598	-4.707	1512.088	1499.634	1501.099	-0.412	3.450	-3.817	0.612	6.201	-7.043
470501.862	NaN	2.793	7.598	-4.707	1511.355	1499.634	1501.832	-0.153	3.511	-3.924	0.842	6.278	-6.890
470502.838	NaN	2.793	7.587	-4.707	1511.355	1500.366	1500.366	0.076	3.435	-3.908	0.612	6.201	-7.043
470503.815	NaN	2.804	7.587	-4.707	1511.355	1499.634	1501.099	0.000	3.450	-3.863	0.689	6.354	-7.043
470504.791	NaN	2.793	7.587	-4.707	1511.355	1499.634	1501.099	-0.153	3.557	-3.771	0.689	6.278	-6.813
470505.768	NaN	2.793	7.598	-4.696	1512.088	1499.634	1501.099	-0.183	3.618	-3.863	0.766	6.124	-7.120
470506.744	NaN	2.793	7.598	-4.707	1511.355	1499.634	1500.366	-0.305	3.649	-3.847	0.689	6.201	-7.120
470507.721	NaN	2.783	7.598	-4.707	1511.355	1498.901	1501.099	-0.015	3.511	-3.786	0.689	6.278	-6.967
470508.698	NaN	2.793	7.587	-4.707	1511.355	1499.634	1500.366	-0.015	3.527	-3.817	0.689	6.278	-6.967
470509.674	NaN	2.793	7.587	-4.707	1511.355	1500.366	1498.901	-0.061	3.481	-3.740	0.689	6.201	-6.813
470510.651	NaN	2.804	7.587	-4.707	1511.355	1499.634	1502.564	-0.061	3.481	-3.557	0.766	6.354	-7.043
470511.627	NaN	2.804	7.598	-4.696	1511.355	1500.366	1499.634	-0.198	3.450	-3.603	0.689	6.278	-6.967
470512.604	NaN	2.793	7.598	-4.707	1510.623	1500.366	1499.634	-0.214	3.557	-3.893	0.689	6.201	-7.043
470513.580	NaN	2.783	7.587	-4.717	1511.355	1499.634	1499.634	-0.122	3.496	-3.878	0.689	6.278	-7.043
470514.557	NaN	2.772	7.587	-4.717	1511.355	1500.366	1500.366	0.000	3.481	-3.832	0.766	6.201	-7.120
470515.533	NaN	2.783	7.598	-4.717	1511.355	1500.366	1501.099	-0.229	3.588	-3.557	0.689	6.201	-6.967
470516.510	NaN	2.793	7.598	-4.717	1511.355	1501.099	1500.366	-0.275	3.527	-3.573	0.766	6.278	-6.813
470517.487	NaN	2.804	7.598	-4.717	1510.623	1499.634	1501.099	-0.260	3.435	-3.527	0.766	6.278	-7.043
470518.463	NaN	2.804	7.598	-4.717	1511.355	1499.634	1501.832	-0.183	3.420	-3.756	0.612	6.278	-6.967
470519.440	NaN	2.804	7.609	-4.717	1510.623	1499.634	1501.099	0.000	3.237	-3.893	0.536	6.278	-6.967
470520.416	NaN	2.793	7.609	-4.717	1510.623	1500.366	1499.634	0.046	3.481	-3.985	0.689	6.201	-7.043
470521.393	NaN	2.793	7.598	-4.717	1511.355	1499.634	1499.634	0.061	3.634	-3.771	0.766	6.201	-7.043
470522.369	NaN	2.783	7.598	-4.707	1510.623	1499.634	1500.366	-0.031	3.573	-3.802	0.689	6.278	-7.043
470523.346	NaN	2.783	7.620	-4.707	1511.355	1500.366	1500.366	-0.275	3.557	-3.893	0.766	6.124	-6.967
470524.323	NaN	2.772	7.620	-4.707	1511.355	1498.901	1501.832	-0.412	3.527	-3.863	0.536	6.201	-7.120
470525.299	NaN	2.783	7.630	-4.707	1511.355	1498.901	1500.366	-0.336	3.573	-3.863	0.612	6.201	-6.967
470526.276	NaN	2.793	7.620	-4.685	1511.355	1499.634	1501.099	-0.427	3.634	-3.771	0.689	6.201	-6.967
470527.252	NaN	2.793	7.609	-4.685	1512.088	1498.901	1501.099	-0.489	3.725	-3.863	0.612	6.278	-6.967
470528.229	NaN	2.815	7.609	-4.685	1511.355	1499.634	1501.832	-0.137	3.557	-3.985	0.766	6.201	-6.967
470529.205	NaN	2.815	7.598	-4.674	1510.623	1499.634	1499.634	0.015	3.511	-4.000	0.689	6.201	-7.120
470530.182	NaN	2.804	7.587	-4.674	1511.355	1499.634	1500.366	-0.305	3.618	-3.878	0.766	6.201	-7.120
470531.158	NaN	2.793	7.598	-4.674	1511.355	1499.634	1501.099	-0.305	3.634	-3.664	0.689	6.278	-6.890
470532.135	NaN	2.783	7.598	-4.685	1512.088	1500.366	1499.634	0.153	3.664	-3.679	0.766	6.201	-7.043
470533.112	NaN	2.793	7.587	-4.685	1511.355	1498.901	1499.634	-0.076	3.557	-3.679	0.612	6.124	-7.043
470534.088	NaN	2.793	7.587	-4.685	1510.623	1498.168	1498.901	-0.198	3.527	-3.710	0.612	6.124	-7.043
470535.065	NaN	2.804	7.587	-4.685	1512.088	1499.634	1501.099	-0.153	3.649	-3.634	0.612	6.278	-7.043
470536.041	NaN	2.793	7.587	-4.685	1510.623	1498.168	1498.901	-0.198	3.557	-3.573	0.766	6.048	-6.967
470537.018	NaN	2.793	7.609	-4.674	1512.088	1499.634	1501.832	-0.275	3.679	-3.466	0.689	6.201	-7.120
470537.994	NaN	2.772	7.587	-4.696	1510.623	1499.634	1501.099	-0.061	3.603	-3.481	0.612	6.278	-6.967
470538.971	NaN	2.772	7.587	-4.696	1510.623	1498.901	1499.634	0.137	3.679	-3.603	0.612	6.278	-6.890
470539.948	NaN	2.772	7.576	-4.696	1510.623	1500.366	1498.901	0.061	3.695	-3.557	0.766	6.201	-6.967
470540.924	NaN	2.761	7.587	-4.717	1510.623	1499.634	1500.366	-0.198	3.557	-3.511	0.689	6.201	-7.196
470541.901	NaN	2.772	7.598	-4.696	1511.355	1499.634	1500.366	-0.244	3.328	-3.618	0.612	6.278	-7.043
470542.877	NaN	2.761	7.598	-4.717	1512.088	1500.366	1498.901	-0.183	3.405	-3.573	0.689	6.201	-6.890
470543.854	NaN	2.772	7.576	-4.696	1510.623	1498.901	1500.366	-0.137	3.634	-3.710	0.689	6.278	-7.043
470544.830	NaN	2.772	7.587	-4.696	1511.355	1498.901	1498.901	-0.061	3.603	-3.863	0.766	6.354	-7.043
470545.807	NaN	2.783	7.587	-4.696	1511.355	1500.366	1500.366	-0.336	3.542	-3.908	0.766	6.201	-6.967
470546.783	NaN	2.783	7.587	-4.717	1510.623	1501.099	1501.099	-0.412	3.420	-3.847	0.689	6.201	-7.120
470547.760	NaN	2.772	7.598	-4.717	1511.355	1500.366	1500.366	-0.244	3.405	-3.649	0.766	6.278	-6.967
470548.737	NaN	2.772	7.598	-4.707	1512.088	1499.634	1499.634	-0.351	3.588	-3.511	0.612	6.278	-7.043
470549.713	NaN	2.772	7.587	-4.707	1510.623	1498.901	1500.366	-0.260	3.649	-3.634	0.612	6.201	-7.043
470550.690	NaN	2.793	7.587	-4.696	1512.088	1500.366	1500.366	-0.214	3.542	-3.939	0.612	6.278	-7.120
470551.666	NaN	2.783	7.576	-4.717	1510.623	1499.634	1500.366	-0.321	3.496	-3.832	0.689	6.124	-6.967
470552.643	NaN	2.783	7.598	-4.707	1509.890	1498.901	1500.366	-0.336	3.511	-3.664	0.766	6.201	-6.890
470553.619	NaN	2.783	7.609	-4.707	1510.623	1499.634	1499.634	-0.260	3.634	-3.573	0.612	6.278	-7.043
470554.596	NaN	2.793	7.587	-4.717	1510.623	1498.901	1498.901	-0.290	3.725	-3.588	0.612	6.278	-6.890
470555.573	NaN	2.804	7.598	-4.707	1511.355	1499.634	1501.832	-0.275	3.649	-3.771	0.689	6.278	-7.043
470556.549	NaN	2.793	7.587	-4.717	1511.355	1500.366	1500.366	-0.229	3.649	-3.740	0.689	6.354	-7.043
470557.526	NaN	2.793	7.576	-4.717	1511.355	1498.901	1499.634	-0.260	3.725	-3.588	0.766	6.354	-7.120
470558.502	NaN	2.793	7.587	-4.717	1511.355	1498.901	1500.366	-0.198	3.725	-3.649	0.689	6.124	-6.967
470559.479	NaN	2.783	7.576	-4.717	1511.355	1498.901	1501.099	-0.168	3.603	-3.634	0.689	6.201	-7.120
470560.455	NaN	2.815	7.598	-4.696	1511.355	1498.901	1500.366	-0.229	3.573	-3.817	0.766	6.278	-7.120
470561.432	NaN	2.804	7.598	-4.696	1512.821	1499.634	1501.832	-0.076	3.725	-3.695	0.842	6.278	-6.967
470562.408	3736841748.558	2.804	7.598	-4.696	1509.890	1499.634	1499.634	0.031	3.588	-3.771	0.689	6.124	-7.043
470563.385	NaN	2.793	7.609	-4.696	1511.355	1500.366	1500.366	-0.153	3.435	-3.847	0.766	6.278	-6.967
470564.362	NaN	2.783	7.609	-4.696	1511.355	1498.901	1501.099	-0.229	3.481	-3.969	0.612	6.124	-6.967
470565.338	NaN	2.793	7.620	-4.685	1510.623	1499.634	1501.832	-0.107	3.496	-3.649	0.766	6.201	-7.043
470566.315	NaN	2.783	7.609	-4.696	1511.355	1500.366	1500.366	-0.214	3.542	-3.450	0.689	6.201	-6.967
470567.291	NaN	2.772	7.598	-4.696	1510.623	1499.634	1501.099	-0.244	3.435	-3.573	0.689	6.201	-6.967
470568.268	NaN	2.783	7.598	-4.685	1512.821	1499.634	1502.564	-0.290	3.450	-3.649	0.766	6.431	-6.967
470569.244	NaN	2.772	7.576	-4.696	1510.623	1499.634	1500.366	-0.366	3.435	-3.679	0.766	6.278	-6.967
470570.221	NaN	2.793	7.587	-4.685	1510.623	1498.168	1501.832	-0.458	3.542	-3.588	0.689	6.201	-7.043
470571.198	NaN	2.793	7.576	-4.696	1510.623	1498.901	1501.099	-0.473	3.725	-3.634	0.536	6.201	-7.043
470572.174	NaN	2.793	7.587	-4.696	1512.088	1498.901	1499.634	-0.504	3.878	-3.710	0.766	6.278	-7.043
470573.151	NaN	2.793	7.587	-4.685	1512.088	1499.634	1501.832	-0.260	3.756	-3.634	0.766	6.124	-7.043
470574.127	NaN	2.793	7.598	-4.696	1511.355	1501.099	1501.099	-0.229	3.725	-3.603	0.842	6.201	-7.043
470575.104	NaN	2.783	7.598	-4.696	1511.355	1499.634	1499.634	-0.244	3.710	-3.573	0.689	6.201	-6.890
470576.080	NaN	2.793	7.598	-4.696	1509.890	1498.901	1500.366	-0.397	3.817	-3.603	0.689	6.278	-7.043
470577.057	NaN	2.804	7.598	-4.696	1511.355	1500.366	1500.366	-0.412	3.802	-3.634	0.766	6.201	-7.043
470578.033	NaN	2.793	7.587	-4.707	1511.355	1498.901	1500.366	-0.305	3.542	-3.618	0.766	6.124	-6.967
470579.010	NaN	2.793	7.598	-4.685	1510.623	1499.634	1501.832	-0.351	3.435	-3.664	0.612	6.124	-7.043
470579.987	NaN	2.793	7.587	-4.696	1512.088	1498.901	1501.099	-0.443	3.420	-3.664	0.766	6.278	-7.043
470580.963	NaN	2.783	7.598	-4.696	1512.088	1500.366	1498.901	-0.397	3.496	-3.588	0.689	6.278	-6.967
470581.940	NaN	2.783	7.587	-4.696	1511.355	1499.634	1501.099	-0.244	3.756	-3.634	0.689	6.124	-6.890
470582.916	NaN	2.783	7.587	-4.696	1511.355	1499.634	1501.099	-0.305	3.634	-3.649	0.612	6.201	-6.967
470583.893	NaN	2.793	7.587	-4.696	1513.553	1498.901	1500.366	-0.168	3.481	-3.573	0.689	6.354	-6.967
470584.869	NaN	2.793	7.576	-4.717	1511.355	1498.901	1500.366	-0.015	3.634	-3.511	0.689	6.201	-7.196
470585.846	NaN	2.793	7.598	-4.728	1510.623	1501.099	1501.099	-0.168	3.679	-3.481	0.842	6.278	-6.967
470586.823	NaN	2.793	7.598	-4.717	1511.355	1499.634	1500.366	-0.336	3.603	-3.817	0.689	6.124	-6.890
470587.799	NaN	2.793	7.609	-4.717	1512.088	1499.634	1501.099	-0.275	3.710	-3.878	0.766	6.354	-7.043
470588.776	NaN	2.783	7.576	-4.717	1510.623	1499.634	1500.366	-0.137	3.695	-3.832	0.766	6.354	-7.120
470589.752	NaN	2.793	7.598	-4.717	1512.088	1498.901	1501.099	-0.168	3.511	-3.725	0.689	6.278	-7.120
470590.729	NaN	2.793	7.609	-4.717	1511.355	1500.366	1500.366	-0.092	3.527	-3.573	0.842	6.278	-7.043
470591.705	NaN	2.793	7.609	-4.717	1512.088	1499.634	1501.099	-0.321	3.863	-3.756	0.766	6.201	-6.967
470592.682	NaN	2.804	7.598	-4.728	1510.623	1499.634	1501.099	-0.412	3.802	-3.725	0.689	6.278	-7.043
470593.658	NaN	2.793	7.598	-4.728	1509.890	1498.901	1500.366	-0.183	3.695	-3.573	0.689	6.201	-7.043
470594.635	NaN	2.804	7.598	-4.717	1510.623	1498.901	1500.366	-0.015	3.542	-3.389	0.766	6.278	-6.967
470595.612	NaN	2.804	7.598	-4.717	1512.088	1499.634	1500.366	0.153	3.664	-3.511	0.766	6.354	-7.120
470596.588	NaN	2.804	7.598	-4.696	1510.623	1499.634	1501.099	0.061	3.756	-3.618	0.766	6.278	-6.967
470597.565	NaN	2.793	7.598	-4.707	1511.355	1500.366	1498.168	-0.031	3.771	-3.695	0.689	6.201	-7.043
470598.541	NaN	2.783	7.587	-4.717	1511.355	1500.366	1500.366	-0.046	3.756	-3.649	0.842	6.124	-6.967
470599.518	NaN	2.783	7.598	-4.707	1512.088	1499.634	1501.099	0.137	3.756	-3.557	0.612	6.278	-7.043
470600.494	NaN	2.772	7.598	-4.717	1511.355	1500.366	1500.366	-0.076	3.695	-3.313	0.689	6.201	-6.967
470601.471	NaN	2.772	7.609	-4.717	1510.623	1499.634	1500.366	-0.336	3.496	-3.374	0.766	6.201	-6.890
470602.448	NaN	2.793	7.598	-4.728	1510.623	1499.634	1501.099	-0.351	3.725	-3.374	0.612	6.201	-7.043
470603.424	NaN	2.793	7.598	-4.717	1512.088	1499.634	1499.634	-0.137	3.679	-3.420	0.842	6.354	-7.120
470604.401	NaN	2.804	7.598	-4.707	1512.088	1500.366	1501.099	-0.061	3.435	-3.588	0.612	6.278	-6.890
470605.377	NaN	2.804	7.598	-4.707	1512.088	1499.634	1501.099	-0.198	3.511	-3.664	0.689	6.201	-7.120
470606.354	NaN	2.793	7.598	-4.717	1511.355	1498.901	1499.634	-0.092	3.573	-3.725	0.689	6.278	-7.043
470607.330	NaN	2.793	7.598	-4.717	1511.355	1499.634	1500.366	-0.198	3.740	-3.664	0.689	6.278	-7.043
470608.307	NaN	2.793	7.598	-4.696	1511.355	1500.366	1500.366	-0.382	3.740	-3.649	0.766	6.201	-7.043
470609.283	NaN	2.793	7.598	-4.696	1511.355	1498.901	1499.634	-0.458	3.634	-3.710	0.612	6.201	-6.890
470610.260	NaN	2.783	7.587	-4.696	1510.623	1499.634	1500.366	-0.290	3.496	-3.695	0.689	6.278	-6.967
470611.237	NaN	2.783	7.598	-4.707	1512.821	1499.634	1500.366	-0.046	3.527	-3.573	0.766	6.354	-6.967
470612.213	NaN	2.793	7.587	-4.717	1511.355	1499.634	1501.832	-0.092	3.634	-3.481	0.766	6.431	-7.043
470613.190	NaN	2.793	7.576	-4.717	1512.088	1499.634	1500.366	0.076	3.511	-3.435	0.842	6.278	-6.967
470627.838	NaN	2.793	7.598	-4.685	1511.355	1500.366	1499.634	-0.076	3.771	-3.420	0.689	6.201	-6.967
470628.815	NaN	2.793	7.587	-4.696	1511.355	1499.634	1500.366	-0.046	3.664	-3.481	0.766	6.278	-7.043
470629.791	NaN	2.783	7.587	-4.707	1511.355	1499.634	1500.366	-0.183	3.603	-3.557	0.766	6.124	-6.890
470630.768	NaN	2.783	7.598	-4.685	1512.088	1499.634	1501.099	-0.473	3.618	-3.710	0.842	6.278	-7.043
470631.744	NaN	2.793	7.598	-4.696	1511.355	1499.634	1501.099	-0.122	3.679	-3.634	0.919	6.201	-7.043
470632.721	NaN	2.793	7.609	-4.696	1512.088	1500.366	1499.634	-0.168	3.664	-3.435	0.842	6.201	-6.967
470633.698	NaN	2.793	7.598	-4.696	1510.623	1498.901	1498.901	-0.244	3.588	-3.557	0.689	6.431	-7.043
470634.674	NaN	2.793	7.598	-4.707	1511.355	1500.366	1498.901	-0.366	3.618	-3.527	0.689	6.201	-6.890
470635.651	NaN	2.793	7.598	-4.685	1511.355	1499.634	1501.832	-0.519	3.817	-3.344	0.766	6.124	-7.043
470636.627	NaN	2.793	7.609	-4.696	1511.355	1498.901	1500.366	-0.366	3.832	-3.405	0.766	6.278	-7.043
470637.604	NaN	2.793	7.609	-4.696	1511.355	1499.634	1501.099	-0.168	3.802	-3.573	0.612	6.278	-7.043
470638.580	NaN	2.783	7.609	-4.707	1511.355	1500.366	1500.366	-0.321	3.710	-3.527	0.612	6.201	-6.967
470639.557	NaN	2.793	7.609	-4.707	1511.355	1500.366	1500.366	-0.137	3.542	-3.389	0.766	6.278	-6.967
470640.533	NaN	2.793	7.598	-4.696	1512.088	1499.634	1500.366	-0.076	3.679	-3.511	0.689	6.201	-6.967
470641.510	NaN	2.783	7.598	-4.685	1512.088	1499.634	1500.366	0.015	3.878	-3.618	0.612	6.354	-7.043
470642.487	NaN	2.793	7.598	-4.685	1509.158	1499.634	1500.366	-0.122	3.878	-3.756	0.689	6.278	-7.043
470643.463	NaN	2.783	7.598	-4.685	1512.821	1499.634	1500.366	-0.168	3.725	-3.603	0.689	6.278	-7.043
470644.440	NaN	2.793	7.609	-4.674	1511.355	1498.901	1500.366	-0.214	3.740	-3.450	0.766	6.201	-6.890
470645.416	NaN	2.783	7.620	-4.674	1511.355	1500.366	1498.901	-0.076	3.802	-3.511	0.842	6.201	-6.813
470646.393	NaN	2.761	7.598	-4.674	1509.890	1499.634	1499.634	0.046	3.817	-3.450	0.689	6.431	-6.967
470647.369	NaN	2.772	7.598	-4.685	1511.355	1499.634	1500.366	-0.092	3.725	-3.420	0.766	6.124	-6.890
470648.346	NaN	2.783	7.609	-4.696	1511.355	1498.901	1500.366	-0.290	3.664	-3.450	0.689	6.201	-7.043
470649.323	NaN	2.793	7.620	-4.685	1510.623	1498.901	1499.634	-0.427	3.588	-3.466	0.766	6.201	-7.043
470650.299	NaN	2.793	7.609	-4.696	1512.088	1498.901	1500.366	-0.366	3.695	-3.649	0.612	6.201	-7.043
470651.276	NaN	2.793	7.609	-4.696	1510.623	1500.366	1500.366	-0.198	3.817	-3.573	0.612	6.354	-6.967
470652.252	NaN	2.793	7.609	-4.696	1512.088	1498.901	1501.099	-0.076	3.618	-3.634	0.689	6.278	-7.043
470653.229	NaN	2.793	7.598	-4.685	1511.355	1500.366	1500.366	-0.229	3.679	-3.527	0.766	6.278	-6.890
470654.205	NaN	2.793	7.609	-4.685	1509.158	1499.634	1500.366	-0.214	3.542	-3.328	0.766	6.278	-7.120
470655.182	NaN	2.804	7.609	-4.685	1510.623	1501.099	1500.366	-0.107	3.405	-3.313	0.766	6.354	-6.890
470656.158	NaN	2.804	7.609	-4.696	1512.088	1498.901	1499.634	-0.107	3.649	-3.237	0.766	6.354	-7.120
470657.135	NaN	2.804	7.609	-4.696	1511.355	1498.901	1500.366	-0.122	3.649	-3.374	0.612	6.201	-6.890
470658.112	NaN	2.815	7.609	-4.685	1511.355	1499.634	1500.366	-0.183	3.435	-3.557	0.689	6.278	-6.967
470659.088	NaN	2.815	7.598	-4.696	1509.890	1499.634	1500.366	-0.275	3.466	-3.389	0.766	6.201	-6.967
470660.065	NaN	2.804	7.598	-4.696	1511.355	1500.366	1498.901	-0.153	3.557	-3.359	0.689	6.201	-7.043
470661.041	NaN	2.804	7.598	-4.696	1511.355	1499.634	1500.366	-0.076	3.603	-3.603	0.842	6.201	-6.967
470662.018	NaN	2.815	7.609	-4.685	1512.088	1499.634	1501.832	-0.275	3.847	-3.618	0.766	6.201	-6.813
470662.994	NaN	2.793	7.609	-4.685	1511.355	1499.634	1501.099	-0.275	3.924	-3.481	0.689	6.278	-7.043
470663.971	NaN	2.793	7.609	-4.696	1512.088	1499.634	1502.564	-0.168	3.588	-3.542	0.842	6.201	-6.967
470664.948	NaN	2.793	7.609	-4.707	1511.355	1499.634	1500.366	-0.015	3.420	-3.496	0.842	6.201	-6.890
470665.924	NaN	2.783	7.609	-4.728	1509.890	1498.901	1500.366	0.000	3.573	-3.420	0.612	6.354	-7.043
470666.901	NaN	2.793	7.609	-4.717	1511.355	1498.168	1498.901	-0.122	3.603	-3.573	0.689	6.354	-6.967
470667.877	NaN	2.783	7.609	-4.707	1510.623	1499.634	1501.099	-0.214	3.511	-3.618	0.689	6.201	-7.043
470668.854	NaN	2.793	7.609	-4.696	1511.355	1499.634	1500.366	-0.031	3.481	-3.573	0.689	6.124	-6.967
470669.830	NaN	2.783	7.609	-4.696	1510.623	1498.901	1499.634	-0.153	3.710	-3.511	0.612	6.201	-7.196
470670.807	NaN	2.783	7.598	-4.696	1510.623	1498.901	1500.366	-0.137	3.771	-3.420	0.842	6.201	-6.890
470671.783	NaN	2.772	7.587	-4.707	1511.355	1499.634	1499.634	-0.198	3.618	-3.420	0.689	6.201	-6.967
470672.760	NaN	2.783	7.598	-4.707	1511.355	1500.366	1500.366	-0.305	3.557	-3.374	0.689	6.278	-7.120
470673.737	NaN	2.793	7.598	-4.696	1510.623	1499.634	1500.366	-0.214	3.603	-3.450	0.766	6.354	-6.967
470674.713	NaN	2.793	7.598	-4.707	1511.355	1499.634	1501.099	-0.031	3.679	-3.496	0.766	6.354	-7.043
470675.690	NaN	2.804	7.609	-4.696	1510.623	1499.634	1501.832	-0.122	3.496	-3.466	0.612	6.278	-6.967
470676.666	NaN	2.793	7.609	-4.707	1511.355	1498.168	1501.099	-0.244	3.405	-3.603	0.766	6.354	-6.967
470677.643	NaN	2.804	7.609	-4.696	1512.088	1500.366	1501.099	-0.336	3.389	-3.664	0.689	6.201	-7.120
470678.619	NaN	2.804	7.598	-4.696	1511.355	1498.901	1501.832	-0.275	3.618	-3.573	0.766	6.278	-6.967
470679.596	NaN	2.804	7.598	-4.696	1512.821	1500.366	1500.366	-0.229	3.634	-3.237	0.766	6.354	-6.967
470680.573	NaN	2.815	7.609	-4.696	1511.355	1500.366	1500.366	-0.076	3.466	-3.130	0.689	6.201	-7.120
470681.549	NaN	2.804	7.609	-4.696	1510.623	1499.634	1501.099	0.031	3.420	-3.359	0.766	6.201	-7.043
470682.526	NaN	2.804	7.609	-4.696	1511.355	1499.634	1500.366	-0.122	3.649	-3.481	0.689	6.201	-7.196
470683.502	NaN	2.804	7.609	-4.707	1512.088	1499.634	1500.366	-0.229	3.618	-3.603	0.766	6.201	-7.120
470684.479	NaN	2.804	7.609	-4.685	1511.355	1499.634	1501.832	-0.534	3.618	-3.603	0.689	6.201	-7.043
470685.455	NaN	2.804	7.609	-4.685	1512.088	1498.901	1501.099	-0.534	3.588	-3.466	0.919	7.273	-7.043
470686.432	NaN	2.804	7.609	-4.685	1510.623	1500.366	1500.366	-0.366	3.603	-3.603	0.612	6.278	-7.120
470687.408	NaN	2.793	7.609	-4.696	1512.088	1499.634	1501.099	-0.260	3.771	-3.588	0.766	6.278	-6.967
470688.385	NaN	2.793	7.598	-4.696	1512.088	1499.634	1501.099	-0.321	3.511	-3.496	0.689	6.201	-7.043
470689.362	NaN	2.804	7.609	-4.696	1512.088	1499.634	1501.832	-0.214	3.237	-3.527	0.766	6.354	-7.120
470690.338	NaN	2.804	7.609	-4.696	1511.355	1499.634	1500.366	0.000	3.298	-3.588	0.842	6.354	-7.043
470691.315	NaN	2.804	7.609	-4.696	1511.355	1499.634	1500.366	0.076	3.466	-3.588	0.842	6.278	-6.967
470692.291	NaN	2.793	7.598	-4.696	1511.355	1500.366	1499.634	-0.275	3.511	-3.557	0.612	6.201	-6.967
470693.268	NaN	2.804	7.598	-4.685	1512.821	1500.366	1500.366	-0.580	3.328	-3.634	0.689	6.201	-7.120
470694.244	NaN	2.793	7.609	-4.674	1511.355	1500.366	1500.366	-0.397	3.603	-3.847	0.766	6.354	-6.967
470695.221	NaN	2.793	7.609	-4.674	1511.355	1500.366	1499.634	-0.244	3.496	-3.786	0.612	6.278	-6.890
470696.198	NaN	2.793	7.598	-4.685	1510.623	1499.634	1501.099	-0.122	3.435	-3.603	0.766	6.201	-7.120
470697.174	NaN	2.793	7.620	-4.685	1512.088	1498.901	1501.099	-0.137	3.359	-3.573	0.612	6.124	-6.967
470698.151	NaN	2.793	7.609	-4.685	1512.088	1500.366	1500.366	-0.366	3.466	-3.496	0.766	6.201	-6.967
470699.127	NaN	2.793	7.620	-4.696	1511.355	1499.634	1500.366	-0.321	3.450	-3.557	0.689	6.278	-6.967
470700.104	NaN	2.783	7.609	-4.707	1511.355	1499.634	1498.901	-0.321	3.466	-3.557	0.842	6.278	-7.120
470701.080	NaN	2.783	7.609	-4.707	1510.623	1498.901	1500.366	-0.260	3.588	-3.618	0.689	6.278	-7.043
470702.057	NaN	2.793	7.609	-4.707	1510.623	1498.901	1500.366	-0.244	3.695	-3.557	0.689	6.201	-6.967
470703.033	NaN	2.793	7.598	-4.717	1510.623	1498.168	1500.366	-0.137	3.588	-3.420	0.842	6.278	-6.967
470704.010	NaN	2.793	7.598	-4.717	1511.355	1499.634	1500.366	-0.137	3.298	-3.344	0.766	6.278	-6.967
470704.987	NaN	2.793	7.598	-4.717	1510.623	1499.634	1501.832	-0.366	3.328	-3.481	0.842	6.278	-6.967
470705.963	NaN	2.783	7.598	-4.717	1512.821	1498.901	1499.634	-0.458	3.573	-3.832	0.766	6.278	-7.120
470706.940	NaN	2.793	7.609	-4.707	1510.623	1499.634	1500.366	-0.229	3.603	-3.908	0.689	6.354	-7.043
470707.916	NaN	2.783	7.609	-4.707	1510.623	1500.366	1499.634	-0.244	3.359	-3.557	0.689	6.278	-6.890
470708.893	NaN	2.793	7.609	-4.707	1510.623	1498.168	1500.366	-0.198	3.176	-3.405	0.689	6.201	-7.043
470709.869	NaN	2.793	7.598	-4.707	1510.623	1500.366	1498.901	-0.260	3.328	-3.450	0.536	6.278	-7.043
470710.846	NaN	2.793	7.598	-4.717	1510.623	1498.901	1499.634	-0.290	3.374	-3.496	0.766	6.278	-7.043
470711.823	NaN	2.804	7.598	-4.696	1510.623	1498.901	1501.832	-0.229	3.481	-3.588	0.689	6.201	-7.043
470712.799	NaN	2.793	7.598	-4.707	1511.355	1499.634	1501.099	0.031	3.435	-3.557	0.766	6.278	-6.967
470713.776	NaN	2.793	7.598	-4.717	1511.355	1498.901	1499.634	0.107	3.481	-3.573	0.612	6.201	-6.967
470714.752	NaN	2.804	7.598	-4.717	1511.355	1499.634	1501.099	0.183	3.573	-3.527	0.689	6.354	-7.043
470715.729	NaN	2.793	7.587	-4.717	1511.355	1497.436	1500.366	0.031	3.511	-3.511	0.689	6.201	-6.967
470716.705	NaN	2.804	7.609	-4.717	1512.088	1499.634	1501.099	-0.031	3.588	-3.481	0.766	6.201	-6.967
470717.682	NaN	2.804	7.598	-4.717	1511.355	1499.634	1501.099	-0.107	3.634	-3.679	0.689	6.354	-6.967
470718.658	NaN	2.804	7.609	-4.717	1511.355	1498.901	1501.099	-0.092	3.511	-3.832	0.689	6.201	-7.043
470719.635	NaN	2.793	7.598	-4.717	1511.355	1499.634	1500.366	0.076	3.527	-3.679	0.766	6.278	-7.043
470720.612	NaN	2.783	7.598	-4.707	1511.355	1498.168	1499.634	0.198	3.511	-3.481	0.919	6.278	-6.890
470721.588	NaN	2.793	7.587	-4.707	1510.623	1499.634	1501.099	-0.122	3.435	-3.466	0.766	6.354	-6.967
