Timestamp	PC Timestamp	Low Noise Accelerometer X	Low Noise Accelerometer Y	Low Noise Accelerometer Z	Int A12	Int A13	Int A14	Gyroscope X	Gyroscope Y	Gyroscope Z	Wide Range Accelerometer X	Wide Range Accelerometer Y	Wide Range Accelerometer Z
93274.323	NaN	-3.174	1.489	9.478	1506.227	1503.297	1509.890	14.885	0.672	-23.481	-5.895	-0.459	8.421
93275.299	NaN	-3.174	1.489	9.478	1504.762	1504.029	1510.623	14.916	0.733	-23.618	-5.742	-0.459	8.498
93276.276	NaN	-3.185	1.489	9.467	1505.495	1504.029	1510.623	14.733	0.824	-23.420	-5.818	-0.306	8.421
93277.252	NaN	-3.185	1.489	9.457	1506.227	1504.029	1510.623	14.641	0.641	-23.557	-5.818	-0.306	8.421
93278.229	NaN	-3.185	1.489	9.467	1505.495	1504.029	1510.623	14.763	0.534	-23.664	-5.895	-0.306	8.421
93279.205	NaN	-3.185	1.478	9.467	1505.495	1503.297	1509.890	14.840	0.718	-23.710	-5.665	-0.383	8.421
93280.182	NaN	-3.174	1.478	9.457	1505.495	1502.564	1509.890	14.931	0.794	-23.435	-5.818	-0.306	8.421
93281.158	NaN	-3.163	1.489	9.467	1506.227	1504.029	1510.623	14.718	0.855	-23.344	-5.818	-0.230	8.498
93282.135	NaN	-3.163	1.489	9.467	1505.495	1504.029	1511.355	14.733	0.901	-23.634	-5.818	-0.306	8.421
93283.112	NaN	-3.163	1.489	9.457	1505.495	1504.029	1509.890	14.977	0.718	-23.634	-5.818	-0.383	8.421
93284.088	NaN	-3.174	1.478	9.457	1504.762	1502.564	1511.355	14.916	0.595	-23.496	-5.818	-0.306	8.421
93285.065	NaN	-3.174	1.489	9.457	1505.495	1504.029	1509.890	14.687	0.656	-23.420	-5.818	-0.383	8.268
93286.041	NaN	-3.174	1.489	9.457	1506.227	1503.297	1509.890	14.672	0.733	-23.405	-5.818	-0.306	8.344
93287.018	NaN	-3.163	1.489	9.467	1504.762	1504.029	1510.623	14.718	0.824	-23.511	-5.818	-0.230	8.498
93287.994	NaN	-3.174	1.489	9.467	1505.495	1504.029	1511.355	14.702	0.855	-23.557	-5.895	-0.306	8.498
93288.971	NaN	-3.163	1.489	9.457	1504.762	1504.029	1509.890	14.702	0.840	-23.450	-5.818	-0.383	8.344
93289.948	NaN	-3.152	1.489	9.457	1504.762	1504.029	1510.623	14.794	0.779	-23.496	-5.895	-0.306	8.421
93290.924	NaN	-3.152	1.500	9.467	1505.495	1504.029	1510.623	14.901	0.718	-23.466	-5.818	-0.306	8.421
93291.901	NaN	-3.141	1.489	9.457	1506.227	1504.029	1510.623	14.901	0.672	-23.420	-5.742	-0.306	8.421
93292.877	NaN	-3.141	1.489	9.467	1505.495	1503.297	1509.890	14.870	0.611	-23.420	-5.818	-0.383	8.574
93293.854	NaN	-3.152	1.489	9.467	1505.495	1504.029	1509.890	14.885	0.595	-23.542	-5.818	-0.383	8.574
93294.830	NaN	-3.141	1.489	9.478	1505.495	1504.029	1511.355	14.763	0.626	-23.466	-5.895	-0.230	8.268
93295.807	NaN	-3.152	1.489	9.478	1506.227	1504.029	1509.158	14.672	0.656	-23.313	-6.048	-0.383	8.421
93296.783	NaN	-3.152	1.489	9.467	1505.495	1504.029	1511.355	14.672	0.702	-23.176	-5.742	-0.459	8.421
93297.760	NaN	-3.163	1.489	9.467	1505.495	1503.297	1509.890	14.748	0.702	-23.252	-5.818	-0.459	8.421
93298.737	NaN	-3.163	1.500	9.467	1504.762	1503.297	1510.623	14.733	0.763	-23.282	-5.971	-0.306	8.344
93299.713	NaN	-3.152	1.500	9.478	1504.762	1504.762	1509.890	14.534	0.687	-23.435	-5.742	-0.230	8.498
93300.690	NaN	-3.163	1.489	9.467	1506.227	1504.029	1510.623	14.443	0.687	-23.405	-5.818	-0.383	8.421
93301.666	NaN	-3.174	1.478	9.467	1504.762	1504.029	1509.890	14.656	0.733	-23.145	-5.971	-0.306	8.421
93302.643	NaN	-3.163	1.478	9.457	1504.029	1503.297	1512.821	14.718	0.748	-23.038	-5.742	-0.306	8.651
93303.619	NaN	-3.152	1.489	9.457	1504.029	1504.029	1509.158	14.718	0.763	-23.176	-5.971	-0.383	8.344
93304.596	NaN	-3.163	1.478	9.457	1505.495	1504.029	1509.890	14.702	0.885	-23.344	-5.818	-0.230	8.421
93305.573	NaN	-3.152	1.478	9.446	1504.762	1503.297	1510.623	14.504	0.840	-23.298	-5.895	-0.383	8.344
93306.549	NaN	-3.152	1.467	9.435	1504.762	1503.297	1508.425	14.321	0.748	-23.206	-5.895	-0.383	8.421
93307.526	NaN	-3.152	1.478	9.446	1506.227	1504.029	1511.355	14.458	0.870	-23.237	-5.895	-0.306	8.344
93308.502	NaN	-3.152	1.489	9.446	1506.227	1504.029	1510.623	14.458	0.718	-23.145	-5.895	-0.459	8.421
93309.479	NaN	-3.163	1.478	9.435	1505.495	1504.762	1510.623	14.626	0.656	-23.053	-5.895	-0.459	8.574
93310.455	NaN	-3.163	1.478	9.435	1505.495	1504.029	1510.623	14.458	0.626	-23.084	-5.895	-0.306	8.268
93311.432	NaN	-3.174	1.467	9.446	1504.762	1503.297	1509.890	14.550	0.748	-23.282	-5.742	-0.383	8.421
93312.408	NaN	-3.163	1.467	9.457	1503.297	1502.564	1509.890	14.580	0.870	-23.359	-5.818	-0.383	8.421
93313.385	NaN	-3.152	1.478	9.467	1505.495	1503.297	1510.623	14.565	0.870	-23.252	-5.818	-0.230	8.344
93314.362	NaN	-3.152	1.467	9.457	1505.495	1503.297	1510.623	14.626	0.855	-23.099	-5.818	-0.306	8.344
93315.338	NaN	-3.152	1.478	9.457	1504.029	1502.564	1510.623	14.702	0.840	-23.191	-5.895	-0.383	8.421
93316.315	NaN	-3.163	1.478	9.446	1505.495	1504.029	1510.623	14.718	0.901	-23.191	-5.818	-0.383	8.344
93317.291	NaN	-3.152	1.478	9.457	1504.762	1503.297	1511.355	14.611	0.824	-23.053	-5.895	-0.383	8.268
93318.268	NaN	-3.141	1.478	9.457	1505.495	1504.029	1510.623	14.412	0.672	-23.084	-5.818	-0.306	8.498
93319.244	NaN	-3.152	1.478	9.457	1505.495	1503.297	1511.355	14.427	0.702	-23.359	-5.818	-0.306	8.344
93320.221	NaN	-3.174	1.467	9.446	1504.029	1503.297	1511.355	14.366	0.672	-23.359	-5.818	-0.383	8.498
93321.198	NaN	-3.163	1.467	9.446	1506.227	1503.297	1510.623	14.672	0.611	-23.252	-5.895	-0.383	8.421
93322.174	NaN	-3.163	1.467	9.424	1504.762	1504.029	1509.158	14.733	0.565	-23.115	-5.895	-0.383	8.268
93323.151	NaN	-3.163	1.467	9.457	1504.762	1503.297	1509.158	14.672	0.626	-23.053	-5.818	-0.459	8.344
93324.127	NaN	-3.152	1.500	9.457	1504.762	1504.762	1509.158	14.504	0.656	-22.779	-5.818	-0.459	8.344
93325.104	NaN	-3.152	1.489	9.457	1505.495	1504.029	1510.623	14.427	0.824	-22.809	-5.818	-0.230	8.344
93326.080	NaN	-3.141	1.489	9.457	1506.227	1504.762	1511.355	14.534	0.855	-23.038	-5.589	-0.459	8.574
93327.057	NaN	-3.152	1.500	9.457	1505.495	1504.029	1510.623	14.748	0.687	-23.176	-5.895	-0.306	8.268
93328.033	NaN	-3.152	1.500	9.446	1505.495	1504.029	1508.425	14.733	0.763	-23.160	-5.971	-0.383	8.344
93329.010	NaN	-3.163	1.478	9.446	1505.495	1503.297	1509.158	14.824	0.779	-23.099	-5.895	-0.383	8.268
93329.987	NaN	-3.163	1.489	9.446	1506.227	1504.029	1511.355	14.702	0.763	-23.038	-5.895	-0.383	8.344
93330.963	NaN	-3.152	1.489	9.446	1504.762	1504.762	1510.623	14.534	0.824	-23.084	-5.742	-0.383	8.344
93331.940	NaN	-3.163	1.500	9.446	1504.762	1504.762	1510.623	14.351	0.748	-23.115	-5.818	-0.306	8.344
93332.916	NaN	-3.163	1.489	9.446	1505.495	1504.029	1510.623	14.397	0.656	-23.084	-5.818	-0.230	8.421
93333.893	NaN	-3.174	1.489	9.446	1504.762	1503.297	1509.890	14.565	0.656	-22.962	-5.742	-0.306	8.421
93334.869	NaN	-3.163	1.489	9.446	1506.227	1504.029	1509.890	14.550	0.687	-22.992	-5.895	-0.383	8.344
93335.846	NaN	-3.152	1.489	9.446	1504.762	1504.029	1509.890	14.382	0.641	-22.947	-5.818	-0.306	8.498
93336.823	NaN	-3.163	1.478	9.446	1505.495	1504.762	1511.355	14.397	0.885	-22.977	-5.971	-0.383	8.421
93337.799	NaN	-3.163	1.467	9.457	1505.495	1503.297	1507.692	14.489	0.901	-22.794	-5.971	-0.306	8.421
93338.776	NaN	-3.163	1.467	9.467	1504.762	1503.297	1509.890	14.504	0.748	-22.718	-5.971	-0.306	8.421
93339.752	NaN	-3.174	1.467	9.467	1506.227	1502.564	1509.158	14.412	0.809	-22.702	-5.818	-0.306	8.421
93340.729	NaN	-3.163	1.478	9.478	1505.495	1504.029	1509.158	14.336	0.855	-22.809	-5.742	-0.459	8.344
93341.705	NaN	-3.152	1.467	9.478	1505.495	1504.029	1509.890	14.305	0.580	-23.053	-5.895	-0.383	8.421
93342.682	NaN	-3.174	1.467	9.467	1504.762	1503.297	1509.158	14.244	0.565	-23.084	-5.818	-0.459	8.421
93343.658	NaN	-3.152	1.489	9.457	1505.495	1504.029	1509.890	14.366	0.809	-23.038	-5.895	-0.383	8.421
93344.635	NaN	-3.163	1.489	9.457	1504.762	1504.029	1511.355	14.504	0.855	-22.962	-5.818	-0.230	8.344
93345.612	NaN	-3.163	1.489	9.446	1506.960	1503.297	1512.088	14.656	0.641	-22.931	-5.818	-0.306	8.344
93346.588	NaN	-3.163	1.489	9.446	1504.762	1503.297	1509.890	14.595	0.534	-22.962	-5.971	-0.383	8.344
93347.565	NaN	-3.163	1.489	9.446	1505.495	1504.029	1510.623	14.351	0.672	-22.855	-5.665	-0.306	8.498
93348.541	NaN	-3.163	1.489	9.457	1504.762	1504.029	1512.088	14.092	0.702	-22.656	-5.895	-0.306	8.344
93349.518	NaN	-3.163	1.500	9.457	1504.762	1504.029	1511.355	14.290	0.794	-22.611	-5.665	-0.383	8.344
93350.494	NaN	-3.163	1.489	9.457	1504.762	1504.762	1510.623	14.534	0.809	-22.687	-5.742	-0.306	8.421
93351.471	NaN	-3.174	1.489	9.457	1504.029	1503.297	1509.158	14.580	0.733	-22.840	-5.895	-0.383	8.421
93352.448	NaN	-3.163	1.489	9.446	1506.227	1504.029	1509.890	14.351	0.565	-22.947	-5.742	-0.383	8.344
93353.424	NaN	-3.174	1.500	9.457	1504.762	1503.297	1509.890	14.260	0.580	-22.779	-5.818	-0.536	8.344
93354.401	NaN	-3.163	1.511	9.467	1504.762	1504.029	1509.890	14.351	0.702	-22.641	-5.971	-0.383	8.421
93355.377	NaN	-3.152	1.500	9.478	1506.227	1503.297	1510.623	14.550	0.672	-22.626	-5.895	-0.459	8.421
93356.354	NaN	-3.163	1.500	9.500	1505.495	1503.297	1511.355	14.397	0.672	-22.824	-5.895	-0.306	8.344
93357.330	NaN	-3.152	1.511	9.500	1505.495	1504.762	1511.355	14.443	0.656	-22.779	-5.742	-0.230	8.344
93358.307	NaN	-3.152	1.500	9.500	1502.564	1504.029	1509.890	14.351	0.595	-22.702	-5.818	-0.383	8.344
93359.283	NaN	-3.152	1.489	9.500	1504.762	1503.297	1510.623	14.382	0.641	-22.794	-5.818	-0.383	8.421
93360.260	NaN	-3.152	1.478	9.489	1504.762	1503.297	1510.623	14.473	0.718	-22.794	-5.895	-0.306	8.421
93361.237	NaN	-3.163	1.478	9.478	1504.029	1504.762	1511.355	14.321	0.885	-22.733	-5.895	-0.459	8.344
93362.213	NaN	-3.152	1.478	9.478	1505.495	1504.029	1510.623	14.366	0.916	-22.840	-5.818	-0.459	8.498
93363.190	NaN	-3.163	1.478	9.467	1505.495	1503.297	1509.890	14.290	0.855	-22.840	-5.971	-0.383	8.498
93364.166	NaN	-3.152	1.478	9.467	1503.297	1503.297	1509.890	13.954	0.840	-22.702	-5.818	-0.383	8.421
93365.143	NaN	-3.152	1.467	9.467	1503.297	1504.029	1509.890	14.168	0.779	-22.611	-5.818	-0.383	8.344
93366.119	NaN	-3.163	1.457	9.467	1505.495	1503.297	1509.890	14.565	0.641	-22.656	-5.818	-0.306	8.344
93367.096	NaN	-3.152	1.478	9.478	1506.227	1503.297	1509.890	14.595	0.626	-22.672	-5.895	-0.459	8.421
93368.073	NaN	-3.152	1.467	9.467	1505.495	1504.029	1509.890	14.382	0.656	-22.580	-5.742	-0.459	8.268
93369.049	NaN	-3.163	1.478	9.467	1504.762	1503.297	1509.890	14.092	0.702	-22.580	-5.818	-0.383	8.498
93370.026	NaN	-3.152	1.478	9.467	1504.029	1503.297	1509.158	14.046	0.733	-22.626	-5.818	-0.306	8.344
93371.002	NaN	-3.163	1.478	9.446	1504.762	1503.297	1508.425	14.183	0.779	-22.626	-5.818	-0.306	8.498
93371.979	NaN	-3.163	1.489	9.457	1505.495	1504.762	1511.355	14.397	0.763	-22.672	-5.742	-0.459	8.498
93372.955	NaN	-3.163	1.489	9.457	1505.495	1504.029	1510.623	14.397	0.611	-22.718	-5.818	-0.383	8.498
93373.932	NaN	-3.174	1.467	9.457	1505.495	1503.297	1510.623	14.458	0.824	-22.779	-5.818	-0.459	8.344
93374.908	NaN	-3.152	1.478	9.457	1505.495	1504.762	1511.355	14.595	1.038	-22.336	-5.818	-0.383	8.421
93375.885	NaN	-3.152	1.478	9.457	1504.762	1504.029	1510.623	14.641	0.931	-22.336	-5.895	-0.383	8.268
93376.862	NaN	-3.163	1.467	9.446	1505.495	1504.762	1509.890	14.397	0.718	-22.458	-5.895	-0.459	8.421
93377.838	NaN	-3.163	1.467	9.435	1504.762	1502.564	1509.158	14.382	0.733	-22.427	-5.818	-0.306	8.421
93378.815	NaN	-3.163	1.489	9.435	1506.227	1504.762	1510.623	14.260	0.702	-22.351	-5.895	-0.383	8.344
93379.791	NaN	-3.152	1.489	9.446	1505.495	1504.762	1511.355	14.214	0.763	-22.443	-5.818	-0.383	8.344
93380.768	NaN	-3.152	1.489	9.457	1503.297	1504.762	1510.623	14.275	0.672	-22.580	-5.818	-0.306	8.421
93381.744	NaN	-3.163	1.489	9.457	1504.762	1504.029	1510.623	14.351	0.687	-22.580	-5.818	-0.459	8.498
93382.721	NaN	-3.174	1.478	9.457	1504.762	1503.297	1509.890	14.198	0.672	-22.489	-5.895	-0.383	8.344
93383.698	NaN	-3.163	1.489	9.446	1506.227	1503.297	1510.623	14.473	0.748	-22.534	-5.818	-0.383	8.344
93384.674	NaN	-3.152	1.489	9.457	1505.495	1504.762	1509.890	14.214	0.824	-22.534	-5.818	-0.306	8.421
93385.651	NaN	-3.152	1.489	9.446	1505.495	1503.297	1510.623	14.061	0.779	-22.397	-5.818	-0.383	8.344
93386.627	NaN	-3.152	1.500	9.446	1505.495	1503.297	1509.890	14.031	0.626	-22.382	-5.895	-0.230	8.421
93387.604	NaN	-3.152	1.478	9.446	1505.495	1504.762	1510.623	14.061	0.473	-22.336	-5.818	-0.383	8.344
93388.580	NaN	-3.152	1.489	9.457	1504.762	1504.762	1511.355	14.153	0.489	-22.382	-5.895	-0.383	8.421
93389.557	NaN	-3.174	1.478	9.446	1505.495	1504.029	1509.158	14.092	0.687	-22.427	-5.895	-0.459	8.344
93390.533	NaN	-3.152	1.489	9.446	1505.495	1504.029	1509.890	14.168	0.840	-22.412	-5.742	-0.306	8.421
93391.510	NaN	-3.163	1.478	9.446	1504.762	1503.297	1510.623	14.107	0.885	-22.305	-5.742	-0.230	8.344
93392.487	NaN	-3.152	1.478	9.435	1504.762	1504.029	1509.158	14.275	0.779	-22.412	-5.818	-0.306	8.421
93393.463	NaN	-3.141	1.500	9.457	1505.495	1504.762	1510.623	14.366	0.641	-22.244	-5.665	-0.459	8.421
93394.440	NaN	-3.152	1.500	9.446	1505.495	1504.029	1509.890	14.214	0.595	-22.183	-5.742	-0.230	8.268
93395.416	NaN	-3.152	1.489	9.446	1504.029	1503.297	1509.158	14.046	0.779	-22.229	-5.818	-0.459	8.191
93396.393	NaN	-3.152	1.489	9.424	1505.495	1504.029	1509.890	14.000	0.916	-22.366	-5.895	-0.306	8.421
93397.369	NaN	-3.152	1.489	9.435	1506.227	1504.029	1511.355	14.260	0.824	-22.244	-5.818	-0.383	8.344
93398.346	NaN	-3.152	1.489	9.446	1504.762	1503.297	1510.623	14.366	0.718	-22.244	-5.742	-0.383	8.421
93399.323	NaN	-3.163	1.489	9.457	1505.495	1504.762	1509.890	14.168	0.626	-22.183	-5.971	-0.459	8.421
93400.299	NaN	-3.163	1.489	9.457	1504.762	1503.297	1511.355	13.969	0.763	-22.214	-5.895	-0.459	8.421
93401.276	NaN	-3.163	1.489	9.457	1505.495	1503.297	1509.890	13.893	0.702	-22.321	-5.818	-0.230	8.344
93402.252	NaN	-3.152	1.500	9.467	1506.227	1503.297	1510.623	14.198	0.672	-22.122	-5.818	-0.306	8.421
93403.229	NaN	-3.163	1.500	9.467	1506.227	1504.029	1511.355	14.107	0.580	-21.924	-5.742	-0.383	8.191
93404.205	NaN	-3.163	1.511	9.467	1504.762	1503.297	1510.623	14.198	0.519	-22.031	-5.742	-0.459	8.421
93405.182	NaN	-3.163	1.489	9.457	1504.762	1504.029	1510.623	13.985	0.412	-22.015	-5.742	-0.383	8.498
93406.158	NaN	-3.152	1.500	9.467	1505.495	1504.029	1510.623	14.000	0.489	-21.985	-5.818	-0.459	8.344
93407.135	NaN	-3.163	1.489	9.467	1505.495	1504.029	1511.355	14.244	0.672	-22.183	-5.895	-0.383	8.344
93408.112	NaN	-3.163	1.489	9.467	1505.495	1503.297	1509.890	14.153	0.672	-22.290	-5.742	-0.230	8.421
93409.088	NaN	-3.163	1.489	9.457	1505.495	1504.762	1509.890	14.061	0.794	-22.275	-5.971	-0.459	8.421
93410.065	NaN	-3.174	1.500	9.467	1504.029	1503.297	1509.158	13.969	0.656	-22.198	-5.818	-0.230	8.268
93411.041	NaN	-3.163	1.500	9.467	1503.297	1504.029	1510.623	13.863	0.458	-22.107	-5.818	-0.230	8.421
93412.018	NaN	-3.174	1.500	9.457	1504.762	1503.297	1509.890	13.985	0.458	-22.076	-5.818	-0.383	8.344
93412.994	NaN	-3.163	1.489	9.457	1505.495	1504.029	1510.623	13.969	0.702	-22.153	-5.895	-0.306	8.421
93413.971	NaN	-3.174	1.500	9.457	1504.762	1503.297	1509.890	13.802	0.794	-22.244	-5.818	-0.383	8.498
93414.948	NaN	-3.163	1.489	9.457	1506.227	1504.029	1511.355	13.847	0.779	-22.244	-5.818	-0.383	8.421
93415.924	NaN	-3.163	1.500	9.467	1506.227	1502.564	1510.623	14.000	0.550	-22.183	-5.742	-0.459	8.498
93416.901	NaN	-3.163	1.500	9.467	1505.495	1503.297	1510.623	14.168	0.565	-22.061	-5.818	-0.459	8.498
93417.877	NaN	-3.174	1.478	9.467	1505.495	1503.297	1509.158	14.183	0.779	-22.107	-5.818	-0.459	8.344
93418.854	NaN	-3.163	1.489	9.457	1506.960	1504.029	1509.890	14.244	0.748	-22.153	-5.895	-0.459	8.344
93419.830	NaN	-3.163	1.489	9.457	1505.495	1504.029	1509.158	14.214	0.641	-22.168	-5.895	-0.383	8.498
93420.807	NaN	-3.163	1.500	9.457	1504.762	1503.297	1510.623	14.092	0.641	-22.015	-5.665	-0.383	8.421
93421.783	NaN	-3.163	1.489	9.457	1505.495	1504.029	1509.890	14.198	0.718	-22.061	-5.818	-0.383	8.421
93422.760	NaN	-3.163	1.489	9.457	1504.762	1504.029	1509.890	14.137	0.824	-22.046	-5.895	-0.383	8.498
93423.737	NaN	-3.152	1.500	9.457	1506.227	1504.029	1511.355	14.244	0.855	-22.260	-5.818	-0.383	8.421
93424.713	NaN	-3.152	1.500	9.457	1505.495	1504.762	1509.890	14.168	0.794	-22.015	-5.818	-0.383	8.498
93425.690	NaN	-3.163	1.489	9.457	1506.227	1503.297	1509.890	13.908	0.763	-21.969	-5.971	-0.383	8.421
93426.666	NaN	-3.163	1.500	9.467	1504.762	1503.297	1509.890	13.802	0.779	-21.939	-5.818	-0.383	8.498
93427.643	NaN	-3.174	1.489	9.467	1505.495	1504.029	1511.355	14.031	0.641	-21.893	-5.818	-0.306	8.344
93428.619	NaN	-3.163	1.489	9.467	1506.227	1503.297	1509.890	14.015	0.534	-22.000	-5.818	-0.306	8.498
93429.596	NaN	-3.163	1.489	9.446	1504.762	1503.297	1509.158	14.015	0.687	-22.168	-5.742	-0.230	8.344
93430.573	NaN	-3.152	1.511	9.457	1504.029	1503.297	1509.890	14.168	0.779	-22.000	-6.048	-0.459	8.344
93431.549	NaN	-3.152	1.500	9.467	1504.762	1504.029	1511.355	14.107	0.672	-22.046	-5.818	-0.459	8.344
93432.526	NaN	-3.152	1.500	9.467	1505.495	1503.297	1511.355	14.076	0.550	-22.107	-5.971	-0.383	8.421
93433.502	NaN	-3.152	1.489	9.478	1506.960	1504.029	1510.623	13.954	0.641	-22.015	-5.742	-0.306	8.268
93434.479	NaN	-3.152	1.489	9.467	1505.495	1504.029	1510.623	13.924	0.718	-22.061	-5.971	-0.459	8.421
93435.455	NaN	-3.152	1.489	9.457	1505.495	1503.297	1510.623	14.031	0.794	-21.863	-5.818	-0.383	8.498
93436.432	NaN	-3.152	1.478	9.457	1505.495	1502.564	1509.158	13.939	0.702	-21.939	-5.742	-0.306	8.421
93437.408	NaN	-3.141	1.500	9.457	1504.762	1504.762	1512.088	14.000	0.672	-21.954	-5.895	-0.383	8.421
93438.385	NaN	-3.152	1.478	9.457	1505.495	1504.029	1510.623	13.985	0.534	-22.000	-5.895	-0.230	8.268
93439.362	NaN	-3.163	1.478	9.446	1506.227	1503.297	1511.355	13.847	0.504	-22.031	-5.895	-0.383	8.574
93440.338	NaN	-3.163	1.478	9.457	1506.227	1503.297	1509.890	13.832	0.473	-22.031	-5.818	-0.306	8.344
93441.315	NaN	-3.163	1.489	9.446	1504.762	1503.297	1510.623	14.000	0.641	-21.985	-5.818	-0.459	8.268
93442.291	NaN	-3.163	1.489	9.446	1504.762	1503.297	1509.890	13.893	0.656	-21.969	-5.742	-0.306	8.421
93443.268	NaN	-3.163	1.500	9.446	1504.762	1503.297	1510.623	13.649	0.840	-21.924	-5.818	-0.306	8.421
93444.244	NaN	-3.152	1.500	9.446	1504.762	1504.029	1510.623	13.954	0.931	-21.817	-5.895	-0.306	8.344
93445.221	NaN	-3.163	1.500	9.446	1504.762	1504.029	1511.355	14.015	0.885	-21.817	-5.742	-0.306	8.344
93446.198	NaN	-3.152	1.511	9.435	1505.495	1503.297	1512.088	13.954	0.840	-21.863	-5.818	-0.536	8.268
93447.174	NaN	-3.163	1.500	9.446	1506.227	1504.029	1510.623	13.985	0.779	-21.939	-5.895	-0.383	8.421
93448.151	NaN	-3.163	1.500	9.435	1505.495	1503.297	1509.890	14.076	0.794	-21.939	-5.742	-0.230	8.344
93449.127	NaN	-3.174	1.500	9.446	1505.495	1503.297	1509.890	14.031	0.626	-21.878	-5.895	-0.383	8.421
93450.104	NaN	-3.174	1.489	9.435	1504.762	1503.297	1509.158	13.985	0.550	-21.756	-5.818	-0.306	8.344
93451.080	NaN	-3.152	1.500	9.446	1505.495	1503.297	1509.158	13.924	0.519	-21.664	-5.742	-0.306	8.421
93452.057	NaN	-3.174	1.489	9.457	1505.495	1504.029	1512.088	13.878	0.656	-21.588	-5.818	-0.383	8.344
93453.033	NaN	-3.174	1.489	9.457	1505.495	1504.029	1511.355	13.817	0.687	-21.786	-5.742	-0.383	8.421
93454.010	NaN	-3.174	1.478	9.457	1504.762	1503.297	1509.890	13.863	0.779	-21.786	-5.818	-0.306	8.421
93454.987	NaN	-3.174	1.489	9.457	1506.960	1504.029	1510.623	13.969	0.855	-21.695	-5.895	-0.230	8.498
93456.940	NaN	-3.163	1.489	9.446	1505.495	1504.029	1510.623	13.786	0.702	-21.756	-5.895	-0.306	8.498
93457.916	NaN	-3.163	1.489	9.446	1506.227	1504.029	1509.158	13.832	0.626	-21.786	-5.742	-0.306	8.498
93458.893	NaN	-3.152	1.489	9.435	1506.227	1504.029	1509.890	13.695	0.656	-21.740	-5.818	-0.459	8.498
93459.869	NaN	-3.152	1.500	9.435	1506.960	1504.762	1510.623	13.878	0.595	-21.695	-5.895	-0.383	8.498
93460.846	NaN	-3.152	1.500	9.435	1506.227	1504.029	1511.355	14.015	0.641	-21.863	-5.971	-0.459	8.421
93461.823	NaN	-3.152	1.489	9.446	1504.029	1503.297	1511.355	13.924	0.626	-21.756	-5.818	-0.383	8.421
93462.799	NaN	-3.152	1.489	9.446	1505.495	1504.029	1509.890	13.527	0.443	-21.542	-5.895	-0.383	8.344
93463.776	NaN	-3.163	1.489	9.457	1504.762	1504.762	1509.890	13.542	0.641	-21.649	-5.818	-0.306	8.344
93464.752	NaN	-3.163	1.489	9.467	1506.227	1504.029	1509.158	13.802	0.702	-21.603	-5.818	-0.383	8.421
93465.729	NaN	-3.163	1.489	9.446	1506.227	1503.297	1509.890	13.817	0.611	-21.725	-5.971	-0.306	8.421
93466.705	NaN	-3.174	1.489	9.446	1504.762	1503.297	1508.425	13.664	0.550	-21.786	-5.818	-0.383	8.421
93467.682	NaN	-3.163	1.500	9.446	1504.762	1504.029	1509.890	13.573	0.611	-21.557	-5.742	-0.383	8.344
93468.658	NaN	-3.152	1.511	9.467	1506.227	1504.762	1510.623	13.573	0.580	-21.634	-5.818	-0.306	8.344
93469.635	NaN	-3.152	1.511	9.467	1506.227	1504.029	1508.425	13.847	0.519	-21.588	-5.818	-0.536	8.421
93470.612	NaN	-3.163	1.500	9.457	1504.029	1504.029	1511.355	13.893	0.519	-21.557	-5.818	-0.459	8.421
93471.588	NaN	-3.163	1.511	9.457	1504.762	1504.029	1510.623	14.046	0.763	-21.634	-5.818	-0.383	8.268
93472.565	NaN	-3.163	1.500	9.457	1505.495	1504.762	1510.623	14.076	0.748	-21.603	-5.895	-0.306	8.344
93473.541	NaN	-3.152	1.500	9.467	1505.495	1504.762	1510.623	13.985	0.641	-21.634	-5.895	-0.459	8.344
93474.518	NaN	-3.174	1.489	9.457	1505.495	1503.297	1509.890	14.015	0.595	-21.695	-5.895	-0.306	8.498
93475.494	NaN	-3.174	1.500	9.446	1504.762	1503.297	1508.425	13.695	0.611	-21.511	-5.742	-0.383	8.344
93476.471	NaN	-3.174	1.489	9.446	1504.762	1504.029	1509.890	13.634	0.611	-21.420	-5.895	-0.459	8.421
93477.448	NaN	-3.163	1.500	9.446	1506.227	1504.762	1509.890	13.817	0.534	-21.618	-5.742	-0.383	8.421
93478.424	NaN	-3.163	1.489	9.457	1505.495	1503.297	1511.355	13.695	0.702	-21.817	-5.895	-0.306	8.268
93479.401	NaN	-3.152	1.478	9.467	1504.762	1503.297	1510.623	13.740	0.824	-21.679	-5.818	-0.536	8.421
93480.377	NaN	-3.174	1.478	9.467	1506.227	1504.029	1509.890	13.939	0.809	-21.435	-5.742	-0.383	8.268
93481.354	NaN	-3.174	1.478	9.467	1505.495	1503.297	1509.890	13.985	0.809	-21.527	-5.742	-0.306	8.344
93482.330	NaN	-3.174	1.467	9.478	1505.495	1504.029	1510.623	13.863	0.855	-21.634	-5.742	-0.230	8.344
93488.190	NaN	-3.163	1.467	9.457	1506.227	1504.029	1509.890	13.542	0.718	-21.511	-5.818	-0.383	8.344
93489.166	NaN	-3.174	1.467	9.457	1504.029	1504.029	1509.158	13.573	0.656	-21.466	-5.742	-0.383	8.344
93490.143	NaN	-3.174	1.467	9.457	1505.495	1503.297	1509.890	13.618	0.718	-21.374	-5.742	-0.306	8.268
93491.119	NaN	-3.163	1.478	9.457	1505.495	1505.495	1510.623	13.771	0.672	-21.206	-5.818	-0.383	8.268
93492.096	NaN	-3.163	1.489	9.457	1506.227	1504.029	1510.623	13.664	0.672	-21.252	-5.818	-0.383	8.421
93493.073	NaN	-3.163	1.478	9.467	1504.762	1503.297	1511.355	13.481	0.687	-21.466	-5.742	-0.306	8.421
93494.049	NaN	-3.163	1.478	9.457	1506.227	1503.297	1509.890	13.420	0.580	-21.496	-5.818	-0.383	8.344
93495.026	NaN	-3.174	1.489	9.467	1505.495	1504.762	1512.088	13.664	0.656	-21.191	-5.818	-0.306	8.191
93496.002	NaN	-3.163	1.489	9.467	1505.495	1504.029	1511.355	13.878	0.870	-21.023	-6.048	-0.383	8.421
93496.979	NaN	-3.163	1.489	9.467	1505.495	1504.029	1509.890	13.603	1.069	-21.328	-5.665	-0.383	8.344
93497.955	NaN	-3.163	1.478	9.457	1504.762	1503.297	1509.890	13.573	0.977	-21.527	-5.895	-0.383	8.344
93498.932	NaN	-3.174	1.467	9.457	1504.762	1503.297	1509.158	13.618	0.641	-21.450	-5.742	-0.230	8.344
93499.908	NaN	-3.163	1.467	9.467	1506.960	1504.029	1511.355	13.618	0.550	-21.359	-5.818	-0.383	8.421
93500.885	NaN	-3.163	1.467	9.467	1504.762	1504.762	1510.623	13.450	0.718	-21.450	-5.895	-0.383	8.268
93501.862	NaN	-3.163	1.467	9.478	1506.227	1503.297	1511.355	13.267	0.779	-21.420	-5.818	-0.383	8.344
93502.838	NaN	-3.174	1.467	9.478	1505.495	1504.029	1509.890	13.313	0.656	-21.267	-5.818	-0.306	8.574
93503.815	NaN	-3.185	1.467	9.478	1505.495	1504.029	1509.890	13.573	0.504	-21.267	-5.818	-0.383	8.344
93504.791	NaN	-3.174	1.478	9.478	1506.227	1503.297	1511.355	13.664	0.809	-21.282	-5.895	-0.306	8.421
93505.768	NaN	-3.163	1.489	9.467	1505.495	1504.029	1510.623	13.695	0.779	-21.527	-5.818	-0.306	8.344
93506.744	NaN	-3.152	1.478	9.467	1504.762	1504.029	1509.890	13.511	0.656	-21.496	-5.818	-0.383	8.344
93507.721	NaN	-3.163	1.478	9.467	1505.495	1503.297	1509.158	13.389	0.779	-21.206	-5.742	-0.306	8.498
93508.698	NaN	-3.163	1.489	9.478	1506.227	1504.029	1509.158	13.359	0.733	-21.023	-5.895	-0.383	8.421
93509.674	NaN	-3.174	1.478	9.457	1504.762	1504.029	1509.158	13.389	0.626	-21.221	-5.742	-0.306	8.268
93510.651	NaN	-3.163	1.478	9.457	1504.029	1502.564	1509.158	13.542	0.672	-21.313	-5.742	-0.383	8.498
93511.627	NaN	-3.163	1.489	9.467	1504.029	1503.297	1511.355	13.878	0.748	-21.191	-6.048	-0.383	8.344
93512.604	NaN	-3.174	1.478	9.467	1503.297	1502.564	1508.425	13.771	0.794	-21.206	-5.818	-0.383	8.421
93513.580	NaN	-3.163	1.489	9.478	1505.495	1504.762	1510.623	13.557	0.794	-21.115	-5.742	-0.306	8.421
93514.557	NaN	-3.174	1.489	9.467	1505.495	1503.297	1509.158	13.374	0.794	-21.130	-5.818	-0.306	8.344
93515.533	NaN	-3.174	1.500	9.467	1504.762	1502.564	1509.158	13.405	0.824	-21.160	-5.742	-0.306	8.421
93516.510	NaN	-3.174	1.500	9.478	1505.495	1503.297	1509.890	13.603	0.656	-21.313	-5.742	-0.383	8.344
93517.487	NaN	-3.185	1.500	9.489	1504.029	1503.297	1509.890	13.435	0.565	-21.420	-5.742	-0.306	8.498
93518.463	NaN	-3.174	1.489	9.478	1504.029	1503.297	1508.425	13.527	0.687	-21.389	-5.818	-0.383	8.421
93519.440	NaN	-3.163	1.500	9.467	1504.029	1503.297	1509.890	13.695	0.641	-21.099	-5.895	-0.153	8.498
93520.416	NaN	-3.152	1.489	9.478	1505.495	1502.564	1510.623	13.481	0.626	-21.008	-5.742	-0.383	8.498
93521.393	NaN	-3.152	1.489	9.467	1504.762	1502.564	1510.623	13.435	0.763	-21.191	-5.742	-0.306	8.344
93522.369	NaN	-3.141	1.489	9.467	1505.495	1504.029	1510.623	13.496	0.718	-21.130	-5.818	-0.383	8.498
93523.346	NaN	-3.163	1.489	9.446	1506.227	1502.564	1509.158	13.405	0.565	-21.069	-5.895	-0.459	8.344
93524.323	NaN	-3.163	1.489	9.467	1505.495	1501.832	1510.623	13.420	0.718	-20.931	-5.818	-0.306	8.421
93525.299	NaN	-3.163	1.489	9.457	1504.762	1504.029	1509.890	13.405	0.794	-20.885	-5.665	-0.306	8.344
93526.276	NaN	-3.174	1.489	9.457	1504.762	1503.297	1509.890	13.435	0.794	-21.008	-5.742	-0.306	8.421
93527.252	NaN	-3.163	1.500	9.467	1505.495	1504.762	1509.890	13.405	0.794	-21.130	-5.818	-0.306	8.344
93528.229	NaN	-3.174	1.489	9.457	1504.029	1504.029	1509.890	13.282	0.794	-21.160	-5.818	-0.230	8.191
93529.205	NaN	-3.174	1.500	9.457	1504.029	1503.297	1510.623	13.206	0.641	-21.038	-5.818	-0.306	8.344
93530.182	NaN	-3.174	1.489	9.457	1504.762	1503.297	1509.890	13.466	0.519	-21.099	-5.818	-0.383	8.421
93531.158	NaN	-3.152	1.500	9.446	1504.762	1504.029	1510.623	13.282	0.641	-20.962	-5.895	-0.306	8.344
93532.135	NaN	-3.163	1.500	9.446	1505.495	1504.029	1510.623	13.481	0.626	-20.885	-5.742	-0.306	8.191
93533.112	NaN	-3.163	1.500	9.457	1506.227	1504.029	1509.890	13.511	0.672	-20.931	-5.895	-0.306	8.421
93534.088	NaN	-3.152	1.500	9.457	1505.495	1503.297	1509.158	13.313	0.656	-21.069	-5.742	-0.383	8.344
93535.065	NaN	-3.163	1.500	9.457	1504.762	1503.297	1509.158	13.374	0.534	-21.023	-5.895	-0.306	8.344
93536.041	NaN	-3.163	1.511	9.467	1504.762	1504.029	1510.623	13.481	0.687	-21.160	-5.818	-0.536	8.344
93537.018	NaN	-3.163	1.511	9.478	1505.495	1504.762	1509.890	13.221	0.794	-21.038	-5.895	-0.306	8.498
93537.994	NaN	-3.152	1.511	9.478	1504.762	1504.029	1510.623	13.282	0.687	-20.809	-5.818	-0.383	8.421
93538.971	NaN	-3.163	1.511	9.457	1504.762	1504.029	1510.623	13.542	0.763	-20.733	-5.895	-0.230	8.498
93539.948	NaN	-3.152	1.511	9.467	1505.495	1504.029	1512.088	13.573	0.947	-20.809	-5.818	-0.383	8.421
93540.924	NaN	-3.152	1.511	9.467	1506.227	1503.297	1511.355	13.221	1.023	-20.794	-5.742	-0.306	8.421
93541.901	NaN	-3.152	1.500	9.446	1505.495	1502.564	1511.355	13.206	0.809	-20.870	-5.589	-0.383	8.574
93542.877	NaN	-3.141	1.511	9.457	1504.762	1504.029	1510.623	13.313	0.626	-20.840	-5.895	-0.383	8.421
93543.854	NaN	-3.163	1.500	9.446	1505.495	1503.297	1509.890	13.359	0.687	-20.824	-5.895	-0.383	8.421
93544.830	NaN	-3.152	1.500	9.446	1504.762	1504.762	1511.355	13.313	0.962	-20.779	-5.818	-0.459	8.421
93545.807	NaN	-3.152	1.500	9.446	1506.227	1504.029	1512.088	13.282	0.855	-20.779	-5.818	-0.306	8.421
93546.783	NaN	-3.163	1.500	9.457	1505.495	1504.029	1509.158	13.282	0.718	-20.763	-5.895	-0.306	8.498
93547.760	NaN	-3.163	1.489	9.457	1504.762	1504.029	1509.890	13.282	0.687	-20.977	-5.818	-0.383	8.498
93548.737	NaN	-3.163	1.500	9.457	1505.495	1504.029	1510.623	13.160	0.672	-21.084	-5.742	-0.383	8.421
93549.713	NaN	-3.163	1.500	9.467	1506.227	1503.297	1510.623	13.313	0.504	-21.038	-5.742	-0.459	8.344
93550.690	NaN	-3.141	1.500	9.478	1505.495	1504.762	1510.623	13.298	0.641	-20.901	-5.895	-0.383	8.574
93551.666	NaN	-3.152	1.500	9.467	1504.762	1504.762	1510.623	13.115	0.992	-20.595	-5.818	-0.153	8.268
93552.643	NaN	-3.152	1.500	9.467	1505.495	1503.297	1508.425	13.115	0.901	-20.641	-5.818	-0.459	8.574
93553.619	NaN	-3.152	1.511	9.467	1505.495	1504.029	1509.890	13.206	0.565	-20.702	-5.742	-0.230	8.498
93554.596	NaN	-3.152	1.511	9.457	1505.495	1504.029	1509.890	13.344	0.565	-20.733	-5.895	-0.383	8.421
93555.573	NaN	-3.163	1.511	9.457	1504.762	1504.029	1509.890	13.328	0.687	-20.626	-5.818	-0.306	8.344
93556.549	NaN	-3.163	1.500	9.457	1506.227	1504.029	1509.158	13.267	0.763	-20.565	-5.742	-0.459	8.421
93557.526	NaN	-3.163	1.500	9.446	1505.495	1504.029	1510.623	13.069	0.748	-20.565	-5.818	-0.306	8.498
93558.502	NaN	-3.152	1.489	9.446	1506.227	1504.029	1511.355	13.359	0.733	-20.794	-5.742	-0.230	8.498
93559.479	NaN	-3.152	1.489	9.457	1505.495	1504.762	1512.088	13.466	0.718	-20.687	-5.665	-0.306	8.344
93560.455	3736848539.353	-3.152	1.489	9.446	1504.029	1504.029	1510.623	13.328	0.687	-20.687	-5.895	-0.306	8.344
93561.432	NaN	-3.152	1.489	9.457	1503.297	1503.297	1511.355	13.099	0.595	-20.733	-5.818	-0.383	8.344
93562.408	NaN	-3.152	1.500	9.467	1505.495	1505.495	1510.623	13.115	0.748	-20.794	-5.895	-0.383	8.421
93563.385	NaN	-3.163	1.478	9.467	1505.495	1503.297	1510.623	13.023	0.718	-20.733	-5.818	-0.383	8.421
93564.362	NaN	-3.152	1.489	9.478	1505.495	1503.297	1509.890	13.115	0.595	-20.656	-5.818	-0.306	8.344
93565.338	NaN	-3.152	1.489	9.467	1506.227	1503.297	1511.355	13.145	0.550	-20.763	-5.818	-0.306	8.344
93566.315	NaN	-3.163	1.478	9.467	1504.762	1502.564	1510.623	12.977	0.550	-20.718	-5.895	-0.230	8.498
93567.291	NaN	-3.141	1.489	9.457	1505.495	1504.029	1510.623	12.977	0.611	-20.458	-5.742	-0.383	8.344
93568.268	NaN	-3.152	1.489	9.446	1505.495	1503.297	1509.158	13.084	0.794	-20.534	-5.971	-0.306	8.498
93569.244	NaN	-3.152	1.467	9.446	1504.029	1503.297	1509.158	13.252	0.962	-20.595	-5.895	-0.383	8.344
93570.221	NaN	-3.152	1.478	9.457	1504.762	1504.029	1510.623	13.160	0.626	-20.580	-5.895	-0.383	8.498
93571.198	NaN	-3.152	1.467	9.467	1506.227	1504.762	1511.355	13.267	0.672	-20.489	-5.895	-0.383	8.268
93572.174	NaN	-3.152	1.478	9.478	1504.762	1504.029	1509.890	13.069	0.718	-20.458	-5.742	-0.383	8.498
93573.151	NaN	-3.141	1.467	9.478	1505.495	1504.029	1509.890	12.840	0.794	-20.534	-5.895	-0.383	8.268
93574.127	NaN	-3.141	1.467	9.467	1505.495	1503.297	1511.355	12.992	0.718	-20.824	-5.818	-0.459	8.344
93575.104	NaN	-3.141	1.467	9.478	1506.227	1503.297	1509.158	13.145	0.595	-21.053	-5.895	-0.383	8.421
93576.080	NaN	-3.141	1.478	9.457	1506.227	1504.762	1511.355	13.191	0.672	-20.779	-5.665	-0.306	8.421
93577.057	NaN	-3.141	1.489	9.467	1505.495	1504.029	1511.355	13.084	0.809	-20.565	-5.818	-0.459	8.421
93578.033	NaN	-3.141	1.489	9.478	1504.762	1504.029	1511.355	13.221	0.809	-20.489	-5.818	-0.383	8.421
93579.010	NaN	-3.141	1.478	9.467	1506.227	1503.297	1509.158	13.160	0.794	-20.672	-5.895	-0.306	8.574
93579.987	NaN	-3.152	1.489	9.467	1505.495	1504.762	1510.623	12.947	0.855	-20.733	-5.742	-0.230	8.421
93580.963	NaN	-3.152	1.478	9.467	1505.495	1504.029	1511.355	12.702	0.687	-20.748	-5.742	-0.383	8.344
93581.940	NaN	-3.163	1.500	9.467	1504.762	1504.762	1510.623	12.824	0.672	-20.763	-5.895	-0.230	8.421
93582.916	NaN	-3.163	1.489	9.457	1504.762	1504.029	1510.623	13.084	0.794	-20.626	-5.895	-0.306	8.421
93583.893	NaN	-3.174	1.489	9.435	1506.227	1503.297	1510.623	13.344	0.748	-20.489	-5.895	-0.383	8.344
93584.869	NaN	-3.185	1.500	9.446	1505.495	1504.029	1509.890	13.084	0.473	-20.504	-5.742	-0.306	8.344
93585.846	NaN	-3.185	1.489	9.424	1505.495	1504.029	1510.623	12.794	0.397	-20.519	-5.742	-0.306	8.421
93586.823	NaN	-3.174	1.478	9.435	1504.762	1502.564	1510.623	12.840	0.595	-20.580	-5.818	-0.459	8.268
93587.799	NaN	-3.174	1.478	9.435	1505.495	1503.297	1509.890	12.977	0.565	-20.565	-5.818	-0.459	8.498
93588.776	NaN	-3.174	1.478	9.435	1505.495	1504.029	1510.623	13.069	0.595	-20.519	-5.971	-0.383	8.344
93589.752	NaN	-3.163	1.489	9.446	1505.495	1503.297	1509.158	13.069	0.779	-20.534	-5.742	-0.383	8.344
93590.729	NaN	-3.152	1.500	9.446	1505.495	1504.762	1511.355	12.901	0.916	-20.336	-5.895	-0.383	8.421
93591.705	NaN	-3.152	1.511	9.446	1505.495	1503.297	1509.158	12.824	0.840	-20.290	-5.818	-0.383	8.421
93592.682	NaN	-3.163	1.500	9.457	1505.495	1503.297	1510.623	12.931	0.672	-20.397	-5.895	-0.612	8.344
93593.658	NaN	-3.152	1.500	9.467	1504.762	1504.029	1509.890	13.069	0.687	-20.458	-5.742	-0.459	8.421
93594.635	NaN	-3.141	1.511	9.467	1505.495	1504.029	1512.088	13.130	0.672	-20.351	-5.742	-0.383	8.344
93595.612	NaN	-3.130	1.511	9.478	1504.762	1504.029	1510.623	12.855	0.687	-20.275	-5.818	-0.306	8.344
93596.588	NaN	-3.141	1.500	9.478	1506.227	1504.029	1509.158	12.718	0.763	-20.214	-5.818	-0.383	8.421
93597.565	NaN	-3.152	1.500	9.467	1505.495	1503.297	1510.623	12.855	0.763	-20.214	-5.742	-0.459	8.344
93598.541	NaN	-3.141	1.500	9.467	1505.495	1504.029	1509.890	13.038	0.595	-20.198	-5.895	-0.306	8.268
93599.518	NaN	-3.141	1.500	9.457	1506.960	1503.297	1510.623	13.130	0.534	-20.412	-5.818	-0.306	8.344
93600.494	NaN	-3.141	1.489	9.457	1506.227	1503.297	1509.890	13.069	0.672	-20.336	-5.818	-0.306	8.574
93601.471	NaN	-3.152	1.478	9.446	1504.762	1503.297	1509.158	13.084	0.947	-20.229	-5.742	-0.306	8.498
93602.448	NaN	-3.152	1.478	9.446	1504.762	1504.029	1510.623	13.084	0.748	-20.290	-5.818	-0.306	8.498
93603.424	NaN	-3.152	1.489	9.446	1504.762	1504.762	1509.890	12.992	0.656	-20.260	-5.895	-0.459	8.421
93604.401	NaN	-3.163	1.489	9.446	1505.495	1504.762	1510.623	12.763	0.611	-20.183	-5.818	-0.383	8.344
93605.377	NaN	-3.174	1.489	9.446	1506.227	1504.029	1509.890	12.702	0.748	-20.153	-5.971	-0.383	8.498
93606.354	NaN	-3.174	1.489	9.446	1506.227	1504.029	1510.623	12.809	0.809	-20.137	-5.895	-0.306	8.421
93607.330	NaN	-3.163	1.500	9.467	1505.495	1504.762	1509.890	12.611	0.763	-20.168	-5.895	-0.383	8.421
93608.307	NaN	-3.163	1.489	9.478	1504.029	1504.029	1510.623	12.626	0.702	-20.321	-5.742	-0.306	8.344
93609.283	NaN	-3.163	1.489	9.467	1504.029	1504.762	1510.623	12.748	0.656	-20.443	-5.818	-0.383	8.421
93610.260	NaN	-3.152	1.489	9.478	1504.762	1504.029	1510.623	12.947	0.580	-20.412	-5.818	-0.383	8.344
93611.237	NaN	-3.152	1.500	9.467	1505.495	1504.029	1509.890	12.794	0.687	-20.260	-5.895	-0.459	8.344
93612.213	NaN	-3.152	1.500	9.467	1506.227	1504.029	1511.355	12.779	0.702	-20.290	-5.895	-0.306	8.498
93613.190	NaN	-3.163	1.511	9.457	1505.495	1504.029	1510.623	12.809	0.733	-20.336	-5.742	-0.612	8.344
93614.166	NaN	-3.163	1.500	9.446	1504.762	1503.297	1509.890	12.870	0.824	-20.244	-5.742	-0.383	8.421
93615.143	NaN	-3.163	1.500	9.457	1506.227	1503.297	1509.890	13.038	0.931	-20.198	-5.895	-0.230	8.421
93616.119	NaN	-3.152	1.500	9.457	1506.227	1504.029	1512.088	13.023	0.885	-20.321	-5.818	-0.306	8.344
93617.096	NaN	-3.152	1.500	9.467	1506.227	1504.029	1510.623	12.962	0.763	-20.290	-5.665	-0.459	8.421
93618.073	NaN	-3.152	1.489	9.467	1504.762	1504.029	1511.355	12.870	0.931	-20.351	-5.818	-0.306	8.421
93619.049	NaN	-3.174	1.500	9.467	1504.762	1503.297	1509.158	12.763	0.962	-20.473	-5.895	-0.306	8.421
93620.026	NaN	-3.163	1.500	9.457	1504.762	1503.297	1509.890	12.702	0.763	-20.275	-5.742	-0.306	8.421
93621.002	NaN	-3.163	1.511	9.467	1504.762	1504.029	1511.355	12.580	0.763	-20.092	-5.818	-0.306	8.421
93621.979	NaN	-3.174	1.489	9.446	1505.495	1503.297	1510.623	12.534	0.809	-20.198	-5.818	-0.383	8.344
93622.955	NaN	-3.174	1.478	9.446	1504.762	1502.564	1509.158	12.840	0.916	-20.275	-5.818	-0.230	8.421
93623.932	NaN	-3.174	1.478	9.446	1504.762	1503.297	1509.890	12.718	0.840	-20.244	-5.818	-0.306	8.421
93624.908	NaN	-3.163	1.478	9.446	1504.029	1504.029	1509.158	12.611	0.824	-20.076	-5.742	-0.383	8.344
93625.885	NaN	-3.141	1.489	9.467	1504.762	1503.297	1507.692	12.672	0.885	-20.046	-5.895	-0.306	8.344
93626.862	NaN	-3.152	1.489	9.467	1506.227	1504.029	1509.890	12.748	0.763	-20.229	-5.742	-0.459	8.268
93627.838	NaN	-3.152	1.489	9.457	1504.762	1503.297	1509.158	12.458	0.718	-20.458	-5.818	-0.306	8.498
93628.815	NaN	-3.152	1.489	9.467	1504.029	1505.495	1510.623	12.763	0.916	-20.489	-5.818	-0.306	8.421
93629.791	NaN	-3.163	1.489	9.467	1506.227	1503.297	1509.890	12.763	0.885	-20.321	-5.742	-0.459	8.498
93630.768	NaN	-3.141	1.500	9.467	1504.029	1504.762	1510.623	12.656	0.702	-20.198	-5.818	-0.230	8.344
93631.744	NaN	-3.152	1.489	9.467	1505.495	1504.762	1509.890	12.702	0.702	-19.969	-5.665	-0.383	8.344
93632.721	NaN	-3.130	1.500	9.457	1505.495	1502.564	1509.158	12.718	0.840	-19.969	-5.742	-0.230	8.498
93633.698	NaN	-3.141	1.489	9.446	1505.495	1504.762	1511.355	12.809	0.916	-19.969	-5.895	-0.459	8.421
93634.674	NaN	-3.152	1.489	9.446	1504.029	1503.297	1508.425	12.824	0.870	-20.198	-5.742	-0.306	8.344
93635.651	NaN	-3.152	1.500	9.467	1504.762	1503.297	1509.158	12.641	0.824	-20.229	-5.818	-0.306	8.421
93636.627	NaN	-3.152	1.489	9.457	1505.495	1504.029	1509.158	12.397	0.824	-20.122	-5.895	-0.383	8.421
93637.604	NaN	-3.163	1.478	9.446	1504.762	1504.029	1508.425	12.504	0.794	-20.046	-5.818	-0.383	8.344
93638.580	NaN	-3.141	1.489	9.457	1505.495	1504.029	1510.623	12.458	0.855	-19.847	-5.818	-0.459	8.421
93639.557	NaN	-3.152	1.489	9.435	1505.495	1504.029	1508.425	12.489	0.809	-19.969	-5.818	-0.383	8.498
93640.533	NaN	-3.130	1.500	9.446	1505.495	1503.297	1508.425	12.565	0.809	-20.198	-5.895	-0.383	8.344
93641.510	NaN	-3.152	1.500	9.457	1505.495	1504.029	1509.890	12.733	0.916	-20.137	-5.818	-0.536	8.421
93642.487	NaN	-3.152	1.500	9.457	1505.495	1502.564	1509.158	12.809	0.947	-20.000	-5.895	-0.383	8.498
93643.463	NaN	-3.130	1.500	9.457	1504.762	1504.762	1509.890	12.779	0.840	-19.817	-5.895	-0.306	8.344
93644.440	NaN	-3.141	1.500	9.457	1505.495	1503.297	1509.890	12.473	0.626	-19.924	-5.818	-0.383	8.498
93645.416	NaN	-3.141	1.489	9.467	1504.029	1503.297	1509.158	12.489	0.519	-20.046	-5.971	-0.383	8.498
93646.393	NaN	-3.163	1.489	9.457	1506.227	1504.029	1509.158	12.473	0.748	-20.015	-5.742	-0.383	8.344
93647.369	NaN	-3.163	1.489	9.467	1504.762	1503.297	1509.890	12.626	0.687	-20.092	-5.818	-0.306	8.421
93648.346	NaN	-3.152	1.500	9.478	1505.495	1504.029	1509.890	12.794	0.794	-20.046	-5.818	-0.306	8.421
93649.323	NaN	-3.163	1.500	9.478	1504.762	1504.762	1510.623	12.702	0.809	-19.847	-5.742	-0.230	8.344
93650.299	NaN	-3.163	1.478	9.467	1504.762	1504.029	1509.158	12.489	0.794	-19.725	-5.742	-0.230	8.344
93651.276	NaN	-3.163	1.478	9.457	1504.762	1504.029	1512.088	12.351	0.763	-19.863	-5.895	-0.306	8.344
93652.252	NaN	-3.174	1.467	9.457	1504.762	1504.029	1509.890	12.336	0.748	-19.954	-5.742	-0.383	8.421
93653.229	NaN	-3.163	1.467	9.467	1505.495	1503.297	1509.158	12.473	0.840	-20.107	-5.742	-0.383	8.421
93654.205	NaN	-3.174	1.467	9.467	1505.495	1503.297	1510.623	12.611	0.885	-20.107	-5.742	-0.383	8.421
93655.182	NaN	-3.174	1.457	9.457	1504.029	1502.564	1509.158	12.779	0.611	-19.832	-5.742	-0.383	8.344
93656.158	NaN	-3.174	1.478	9.467	1506.960	1504.762	1510.623	12.626	0.534	-19.878	-5.971	-0.230	8.344
93657.135	NaN	-3.185	1.467	9.467	1504.762	1503.297	1509.890	12.397	0.763	-20.122	-5.895	-0.459	8.498
93658.112	NaN	-3.163	1.489	9.467	1504.762	1503.297	1510.623	12.504	0.824	-20.107	-5.818	-0.459	8.574
93659.088	NaN	-3.163	1.478	9.457	1505.495	1504.029	1510.623	12.504	0.992	-19.710	-5.971	-0.383	8.344
93660.065	NaN	-3.174	1.489	9.457	1506.227	1504.762	1509.890	12.580	0.870	-19.664	-5.818	-0.383	8.498
93661.041	NaN	-3.163	1.489	9.467	1503.297	1503.297	1511.355	12.595	0.702	-19.817	-5.895	-0.459	8.421
93662.018	NaN	-3.152	1.500	9.467	1505.495	1504.029	1510.623	12.504	0.809	-19.847	-5.742	-0.383	8.498
93662.994	NaN	-3.163	1.500	9.467	1504.762	1504.029	1509.890	12.458	0.947	-19.802	-5.971	-0.383	8.498
93663.971	NaN	-3.163	1.489	9.457	1504.762	1504.029	1509.890	12.214	0.809	-19.695	-5.742	-0.383	8.421
93664.948	NaN	-3.152	1.489	9.457	1505.495	1504.762	1510.623	12.168	0.779	-19.649	-5.895	-0.306	8.421
93665.924	NaN	-3.152	1.500	9.446	1505.495	1503.297	1510.623	12.076	0.947	-19.740	-5.742	-0.459	8.344
93666.901	NaN	-3.152	1.489	9.457	1505.495	1504.029	1511.355	12.290	0.855	-19.710	-5.818	-0.383	8.268
93667.877	NaN	-3.141	1.489	9.467	1505.495	1504.029	1509.158	12.489	0.580	-19.511	-5.895	-0.383	8.421
93668.854	NaN	-3.141	1.478	9.467	1505.495	1504.029	1510.623	12.458	0.519	-19.527	-5.742	-0.306	8.191
93669.830	NaN	-3.141	1.489	9.457	1506.227	1504.762	1509.890	12.427	0.550	-19.847	-5.742	-0.383	8.344
93670.807	NaN	-3.141	1.489	9.467	1505.495	1504.029	1510.623	12.519	0.672	-20.031	-5.818	-0.230	8.421
93671.783	NaN	-3.152	1.489	9.457	1505.495	1503.297	1510.623	12.550	0.702	-19.847	-5.895	-0.383	8.574
93672.760	NaN	-3.152	1.500	9.457	1504.762	1502.564	1509.890	12.397	0.672	-19.710	-5.818	-0.383	8.344
93673.737	NaN	-3.152	1.500	9.457	1506.227	1504.029	1510.623	12.260	0.641	-19.725	-5.818	-0.383	8.268
93674.713	NaN	-3.152	1.489	9.457	1504.762	1504.029	1511.355	12.336	0.672	-19.634	-5.742	-0.306	8.344
93675.690	NaN	-3.152	1.500	9.457	1505.495	1504.762	1510.623	12.489	0.641	-19.542	-5.895	-0.230	8.421
93676.666	NaN	-3.163	1.478	9.457	1504.029	1503.297	1510.623	12.183	0.611	-19.481	-5.665	-0.306	8.268
93677.643	NaN	-3.163	1.467	9.457	1504.762	1503.297	1509.890	12.260	0.748	-19.603	-5.818	-0.383	8.498
93678.619	NaN	-3.152	1.489	9.467	1506.960	1504.762	1511.355	12.198	0.794	-19.557	-5.818	-0.230	8.498
93679.596	NaN	-3.152	1.478	9.457	1506.227	1503.297	1509.890	12.198	0.870	-19.756	-5.895	-0.306	8.498
93680.573	NaN	-3.141	1.489	9.457	1504.762	1504.029	1510.623	12.321	0.885	-19.817	-5.665	-0.306	8.344
93681.549	NaN	-3.152	1.489	9.457	1504.762	1503.297	1509.890	12.412	0.656	-19.374	-5.818	-0.383	8.344
93682.526	NaN	-3.152	1.500	9.446	1506.227	1504.762	1509.158	12.244	0.550	-19.374	-5.895	-0.230	8.498
93683.502	NaN	-3.163	1.500	9.446	1505.495	1503.297	1509.890	12.168	0.718	-19.664	-5.818	-0.459	8.268
93684.479	NaN	-3.174	1.511	9.457	1504.029	1504.029	1508.425	12.183	0.794	-19.863	-5.665	-0.383	8.498
93685.455	NaN	-3.163	1.511	9.457	1504.762	1503.297	1510.623	12.290	0.947	-19.756	-5.818	-0.230	8.268
93686.432	NaN	-3.163	1.500	9.457	1503.297	1503.297	1509.158	12.290	0.748	-19.450	-5.818	-0.383	8.344
93687.408	NaN	-3.163	1.511	9.457	1504.762	1504.029	1509.890	12.321	0.672	-19.481	-5.742	-0.230	8.498
93688.385	NaN	-3.163	1.489	9.457	1504.762	1503.297	1509.890	12.366	0.824	-19.603	-5.818	-0.459	8.268
93689.362	NaN	-3.163	1.489	9.457	1504.762	1501.832	1509.158	12.443	0.824	-19.603	-5.818	-0.306	8.498
93690.338	NaN	-3.141	1.489	9.457	1504.762	1503.297	1509.158	12.229	0.748	-19.389	-5.742	-0.306	8.498
93691.315	NaN	-3.152	1.478	9.457	1504.762	1503.297	1509.158	12.153	0.901	-19.389	-5.818	-0.383	8.421
93692.291	NaN	-3.141	1.489	9.478	1505.495	1503.297	1509.890	12.000	0.931	-19.496	-5.818	-0.459	8.574
93693.268	NaN	-3.152	1.489	9.478	1505.495	1504.029	1510.623	12.015	0.931	-19.435	-5.818	-0.383	8.421
93694.244	NaN	-3.152	1.478	9.489	1505.495	1503.297	1509.890	12.550	0.748	-19.420	-5.665	-0.383	8.421
93695.221	NaN	-3.163	1.478	9.489	1505.495	1504.029	1509.158	12.519	0.733	-19.496	-5.818	-0.306	8.268
93696.198	NaN	-3.152	1.489	9.489	1505.495	1504.762	1512.088	12.412	0.763	-19.634	-5.742	-0.306	8.498
93697.174	NaN	-3.163	1.478	9.489	1503.297	1504.029	1509.158	12.137	0.748	-19.557	-5.818	-0.536	8.344
93698.151	NaN	-3.163	1.489	9.489	1505.495	1502.564	1509.158	12.275	0.763	-19.542	-5.818	-0.383	8.574
93699.127	NaN	-3.163	1.500	9.478	1504.762	1503.297	1510.623	12.260	0.824	-19.344	-5.895	-0.383	8.344
93700.104	NaN	-3.163	1.489	9.467	1503.297	1503.297	1508.425	12.198	0.748	-19.191	-5.742	-0.383	8.421
93701.080	NaN	-3.152	1.500	9.478	1505.495	1504.762	1509.890	11.954	0.595	-19.450	-5.895	-0.459	8.421
93702.057	NaN	-3.163	1.489	9.478	1504.029	1504.029	1510.623	11.710	0.718	-19.527	-5.895	-0.383	8.498
93703.033	NaN	-3.163	1.489	9.467	1505.495	1503.297	1510.623	12.092	0.733	-19.496	-5.895	-0.459	8.421
93704.010	NaN	-3.152	1.489	9.457	1504.762	1503.297	1511.355	12.076	0.733	-19.267	-5.818	-0.383	8.421
93704.987	NaN	-3.163	1.489	9.446	1506.960	1503.297	1509.890	12.122	0.824	-19.267	-5.818	-0.383	8.498
93705.963	NaN	-3.152	1.489	9.435	1506.227	1503.297	1510.623	12.214	0.702	-19.557	-5.971	-0.459	8.344
93706.940	NaN	-3.163	1.489	9.435	1502.564	1504.762	1509.158	12.122	0.641	-19.878	-5.895	-0.306	8.268
93707.916	NaN	-3.152	1.489	9.446	1505.495	1504.029	1510.623	12.183	0.611	-19.893	-5.818	-0.230	8.498
93708.893	NaN	-3.152	1.489	9.446	1505.495	1503.297	1509.158	12.168	0.580	-19.420	-5.818	-0.306	8.268
93709.869	NaN	-3.141	1.489	9.457	1505.495	1504.029	1510.623	12.153	0.733	-19.252	-5.971	-0.383	8.344
93710.846	NaN	-3.141	1.500	9.467	1506.227	1503.297	1510.623	12.031	0.870	-19.206	-5.665	-0.383	8.574
93711.823	NaN	-3.141	1.500	9.467	1506.227	1504.762	1509.890	11.893	0.947	-19.282	-5.742	-0.459	8.268
93712.799	NaN	-3.141	1.500	9.457	1504.762	1503.297	1509.158	12.000	0.870	-19.481	-5.818	-0.383	8.421
93713.776	NaN	-3.152	1.489	9.457	1505.495	1504.029	1510.623	12.214	0.992	-19.374	-5.742	-0.306	8.421
93714.752	NaN	-3.152	1.489	9.457	1505.495	1503.297	1509.158	12.275	0.840	-19.237	-5.742	-0.383	8.421
93715.729	NaN	-3.141	1.500	9.457	1504.762	1503.297	1510.623	12.183	0.794	-19.252	-5.818	-0.306	8.421
93716.705	NaN	-3.141	1.500	9.446	1506.227	1504.029	1509.158	12.122	0.977	-19.344	-5.895	-0.383	8.344
93717.682	NaN	-3.141	1.489	9.446	1504.762	1503.297	1509.890	12.214	0.809	-19.405	-5.818	-0.306	8.344
93718.658	NaN	-3.130	1.489	9.446	1505.495	1504.029	1510.623	12.260	0.611	-19.435	-5.818	-0.459	8.421
93719.635	NaN	-3.152	1.478	9.446	1506.227	1503.297	1509.890	12.061	0.565	-19.374	-5.742	-0.459	8.421
93720.612	NaN	-3.141	1.478	9.457	1504.762	1503.297	1509.890	12.061	0.489	-19.328	-5.971	-0.306	8.421
93721.588	NaN	-3.141	1.478	9.457	1506.227	1503.297	1509.158	11.969	0.626	-19.344	-5.895	-0.306	8.344
93722.565	NaN	-3.163	1.467	9.457	1505.495	1504.029	1510.623	11.985	0.870	-19.206	-5.742	-0.383	8.344
93723.541	NaN	-3.163	1.478	9.467	1506.227	1504.762	1509.890	12.046	0.779	-19.053	-5.895	-0.230	8.421
93724.518	NaN	-3.152	1.478	9.467	1504.762	1504.029	1509.158	12.061	0.733	-19.115	-5.818	-0.306	8.421
93725.494	NaN	-3.141	1.489	9.478	1506.227	1503.297	1509.158	11.786	0.763	-19.206	-5.895	-0.459	8.421
93726.471	NaN	-3.152	1.489	9.478	1504.762	1503.297	1510.623	11.695	0.763	-19.328	-5.742	-0.306	8.268
93727.448	NaN	-3.141	1.500	9.467	1506.227	1504.762	1510.623	11.908	0.824	-19.267	-5.895	-0.306	8.498
93728.424	NaN	-3.152	1.489	9.467	1505.495	1504.762	1511.355	11.924	0.885	-19.191	-5.895	-0.459	8.498
93729.401	NaN	-3.152	1.489	9.457	1506.227	1503.297	1508.425	12.076	0.779	-19.160	-5.818	-0.459	8.344
93730.377	NaN	-3.141	1.489	9.457	1504.762	1503.297	1510.623	12.061	0.748	-19.176	-5.895	-0.383	8.344
93731.354	NaN	-3.141	1.489	9.446	1505.495	1504.762	1509.890	11.985	0.809	-19.160	-5.742	-0.459	8.421
93732.330	NaN	-3.141	1.478	9.446	1504.762	1504.762	1509.890	11.954	0.748	-19.176	-5.742	-0.306	8.191
93733.307	NaN	-3.141	1.478	9.457	1505.495	1502.564	1509.890	11.817	0.870	-19.099	-5.818	-0.306	8.498
93734.283	NaN	-3.130	1.489	9.478	1505.495	1503.297	1510.623	11.740	0.916	-18.885	-5.818	-0.459	8.344
93735.260	NaN	-3.152	1.489	9.478	1506.227	1504.029	1510.623	11.511	0.947	-19.206	-5.818	-0.306	8.498
93736.237	NaN	-3.152	1.489	9.467	1506.227	1503.297	1510.623	11.802	0.885	-19.359	-5.742	-0.459	8.344
93737.213	NaN	-3.130	1.478	9.467	1505.495	1503.297	1511.355	12.122	0.763	-19.252	-5.665	-0.306	8.498
93738.190	NaN	-3.141	1.467	9.467	1504.762	1504.029	1509.890	11.847	0.626	-19.115	-5.895	-0.306	8.421
93739.166	NaN	-3.152	1.478	9.467	1504.029	1504.029	1509.158	11.847	0.641	-19.069	-5.818	-0.306	8.344
93740.143	NaN	-3.163	1.467	9.446	1504.762	1504.029	1510.623	11.710	0.763	-18.931	-5.818	-0.383	8.421
93741.119	NaN	-3.163	1.467	9.446	1504.762	1503.297	1510.623	11.908	0.809	-18.947	-5.895	-0.383	8.268
93742.096	3736848539.507	-3.152	1.478	9.457	1504.762	1503.297	1510.623	12.000	0.779	-19.084	-5.742	-0.383	8.268
93743.073	NaN	-3.163	1.478	9.446	1505.495	1504.029	1510.623	11.924	0.626	-19.053	-5.818	-0.459	8.421
93744.049	NaN	-3.163	1.478	9.446	1504.762	1502.564	1510.623	11.832	0.687	-18.977	-5.742	-0.383	8.421
93745.026	NaN	-3.163	1.500	9.457	1505.495	1503.297	1509.890	11.802	0.718	-19.023	-5.818	-0.383	8.498
93746.002	NaN	-3.163	1.489	9.457	1504.762	1503.297	1509.158	11.618	0.733	-19.084	-5.895	-0.230	8.268
93746.979	NaN	-3.163	1.500	9.446	1505.495	1504.762	1510.623	11.664	0.687	-18.947	-5.742	-0.230	8.498
93747.955	NaN	-3.152	1.489	9.457	1505.495	1504.029	1511.355	11.649	0.672	-18.840	-5.742	-0.306	8.651
93748.932	NaN	-3.152	1.489	9.457	1505.495	1503.297	1510.623	11.618	0.809	-18.718	-5.895	-0.230	8.421
93749.908	NaN	-3.141	1.489	9.467	1506.227	1504.029	1511.355	11.847	0.885	-18.672	-5.742	-0.306	8.268
93750.885	NaN	-3.163	1.478	9.467	1504.762	1502.564	1511.355	12.000	0.855	-18.809	-5.665	-0.536	8.344
93751.862	NaN	-3.152	1.500	9.489	1506.227	1504.029	1512.088	12.015	0.870	-18.977	-5.818	-0.459	8.344
93752.838	NaN	-3.152	1.489	9.489	1504.762	1504.029	1510.623	12.137	0.794	-19.206	-5.818	-0.383	8.344
93753.815	NaN	-3.152	1.500	9.478	1504.029	1502.564	1510.623	12.000	0.763	-18.992	-5.742	-0.383	8.344
93754.791	NaN	-3.141	1.500	9.467	1504.762	1504.762	1510.623	11.771	0.794	-18.840	-5.742	-0.306	8.268
93755.768	NaN	-3.163	1.500	9.467	1504.762	1504.029	1509.890	11.679	0.779	-18.885	-5.818	-0.306	8.344
93756.744	NaN	-3.152	1.511	9.457	1504.762	1503.297	1509.890	11.924	0.855	-19.038	-5.895	-0.306	8.421
93757.721	NaN	-3.152	1.511	9.467	1505.495	1504.029	1510.623	11.802	0.855	-18.947	-5.742	-0.306	8.344
93758.698	NaN	-3.152	1.511	9.467	1505.495	1504.029	1509.890	11.466	0.794	-18.870	-5.818	-0.383	8.498
93759.674	NaN	-3.152	1.500	9.467	1506.227	1503.297	1509.890	11.573	0.687	-18.962	-5.895	-0.459	8.421
93760.651	NaN	-3.141	1.500	9.457	1505.495	1504.029	1509.890	11.573	0.672	-19.084	-5.742	-0.306	8.344
93761.627	NaN	-3.130	1.489	9.467	1503.297	1503.297	1510.623	11.740	0.718	-18.992	-5.818	-0.383	8.421
93762.604	NaN	-3.141	1.478	9.457	1506.227	1504.029	1509.890	11.786	0.748	-18.763	-5.818	-0.383	8.574
93763.580	NaN	-3.141	1.478	9.467	1506.227	1503.297	1510.623	11.924	0.779	-18.595	-5.895	-0.383	8.651
93764.557	NaN	-3.152	1.478	9.478	1506.227	1504.029	1511.355	11.817	0.809	-18.702	-5.742	-0.306	8.574
93765.533	NaN	-3.163	1.489	9.478	1504.029	1504.029	1511.355	11.664	0.748	-18.977	-5.818	-0.306	8.344
93766.510	NaN	-3.163	1.500	9.467	1505.495	1504.762	1510.623	11.542	0.779	-19.008	-5.818	-0.306	8.421
93767.487	NaN	-3.152	1.500	9.467	1506.227	1504.029	1511.355	11.542	0.947	-18.916	-5.818	-0.306	8.421
93768.463	NaN	-3.152	1.500	9.478	1505.495	1504.029	1510.623	11.588	0.687	-18.931	-5.971	-0.306	8.268
93769.440	NaN	-3.152	1.489	9.478	1504.762	1504.029	1508.425	11.695	0.672	-18.779	-5.818	-0.459	8.268
93770.416	NaN	-3.152	1.489	9.489	1503.297	1502.564	1509.158	11.802	0.824	-18.702	-5.818	-0.459	8.421
93771.393	NaN	-3.152	1.489	9.489	1505.495	1502.564	1509.890	11.878	0.855	-18.565	-5.895	-0.383	8.344
93772.369	NaN	-3.141	1.500	9.489	1505.495	1504.762	1511.355	11.710	0.901	-18.519	-5.742	-0.383	8.191
93773.346	NaN	-3.152	1.478	9.467	1504.029	1504.029	1509.158	11.710	1.008	-18.702	-5.818	-0.459	8.268
93774.323	NaN	-3.152	1.478	9.478	1504.029	1503.297	1508.425	11.679	0.931	-18.809	-5.895	-0.306	8.344
93775.299	NaN	-3.163	1.467	9.478	1504.762	1504.029	1509.158	11.786	0.687	-18.931	-5.895	-0.383	8.344
93776.276	NaN	-3.163	1.478	9.467	1506.227	1504.029	1510.623	11.771	0.718	-18.840	-5.895	-0.306	8.421
93777.252	NaN	-3.163	1.467	9.467	1505.495	1503.297	1511.355	11.649	0.855	-18.626	-5.818	-0.383	8.498
93778.229	NaN	-3.174	1.478	9.467	1506.227	1504.762	1510.623	11.618	0.809	-18.473	-5.818	-0.383	8.344
93779.205	NaN	-3.163	1.478	9.467	1504.762	1504.029	1511.355	11.557	0.641	-18.565	-5.895	-0.383	8.344
93780.182	NaN	-3.163	1.478	9.457	1506.960	1502.564	1509.158	11.634	0.687	-18.626	-5.895	-0.383	8.421
93781.158	NaN	-3.163	1.489	9.478	1504.762	1504.762	1510.623	11.557	0.763	-18.595	-5.971	-0.306	8.344
93782.135	NaN	-3.152	1.489	9.478	1504.762	1504.029	1510.623	11.496	0.855	-18.504	-5.895	-0.383	8.498
93783.112	NaN	-3.152	1.500	9.478	1506.227	1504.029	1510.623	11.710	0.718	-18.641	-5.971	-0.230	8.268
93784.088	NaN	-3.152	1.500	9.478	1503.297	1504.762	1511.355	11.817	0.641	-18.626	-5.895	-0.306	8.498
93785.065	NaN	-3.141	1.489	9.467	1506.227	1504.029	1509.890	11.511	0.687	-18.641	-5.895	-0.306	8.421
93786.041	NaN	-3.141	1.500	9.467	1506.227	1504.029	1511.355	11.664	0.611	-18.534	-5.895	-0.383	8.344
93787.018	NaN	-3.141	1.500	9.467	1505.495	1504.029	1511.355	11.817	0.687	-18.550	-5.818	-0.459	8.268
93787.994	NaN	-3.141	1.500	9.467	1505.495	1504.029	1510.623	11.832	0.794	-18.855	-5.665	-0.459	8.344
93788.971	NaN	-3.141	1.489	9.457	1504.029	1503.297	1509.158	11.588	0.702	-18.809	-5.665	-0.230	8.421
93789.948	NaN	-3.141	1.489	9.457	1504.029	1501.832	1509.890	11.634	0.824	-18.534	-5.818	-0.383	8.421
93790.924	NaN	-3.141	1.478	9.467	1505.495	1504.029	1509.158	11.557	0.916	-18.427	-5.742	-0.230	8.421
93791.901	NaN	-3.130	1.478	9.467	1505.495	1503.297	1510.623	11.710	0.885	-18.336	-5.818	-0.230	8.344
93792.877	NaN	-3.141	1.489	9.467	1505.495	1503.297	1509.158	11.802	0.885	-18.443	-5.971	-0.306	8.344
93793.854	NaN	-3.141	1.478	9.478	1506.227	1503.297	1510.623	11.725	0.962	-18.687	-5.818	-0.536	8.421
93794.830	NaN	-3.141	1.489	9.478	1505.495	1503.297	1511.355	11.450	1.008	-18.534	-5.818	-0.383	8.344
93795.807	NaN	-3.130	1.489	9.467	1506.227	1504.762	1510.623	11.527	0.656	-18.443	-5.818	-0.306	8.421
93796.783	NaN	-3.130	1.489	9.478	1505.495	1504.029	1509.890	11.664	0.595	-18.397	-5.818	-0.306	8.344
93797.760	NaN	-3.141	1.478	9.478	1505.495	1503.297	1509.890	11.634	0.718	-18.412	-5.818	-0.459	8.421
93798.737	NaN	-3.130	1.489	9.467	1505.495	1504.029	1511.355	11.573	0.718	-18.382	-5.818	-0.459	8.421
93799.713	NaN	-3.130	1.500	9.467	1506.227	1504.029	1509.890	11.588	0.748	-18.305	-5.818	-0.306	8.268
93800.690	NaN	-3.141	1.489	9.467	1505.495	1504.029	1510.623	11.481	0.748	-18.382	-5.818	-0.306	8.344
93801.666	NaN	-3.141	1.489	9.467	1504.762	1504.029	1509.158	11.374	0.626	-18.275	-5.742	-0.459	8.268
93802.643	NaN	-3.130	1.489	9.467	1505.495	1503.297	1510.623	11.359	0.718	-18.382	-5.895	-0.306	8.268
93803.619	NaN	-3.141	1.489	9.467	1506.227	1504.029	1510.623	11.527	0.779	-18.489	-5.818	-0.383	8.421
93804.596	NaN	-3.152	1.478	9.467	1505.495	1503.297	1510.623	11.679	0.733	-18.519	-5.818	-0.306	8.344
93805.573	NaN	-3.141	1.489	9.478	1506.227	1504.762	1509.890	11.664	0.672	-18.427	-5.895	-0.383	8.344
93806.549	NaN	-3.163	1.478	9.478	1505.495	1503.297	1509.158	11.573	0.733	-18.305	-5.971	-0.306	8.421
93807.526	NaN	-3.163	1.478	9.457	1504.029	1504.029	1509.158	11.664	0.870	-18.290	-5.818	-0.459	8.344
93808.502	NaN	-3.152	1.489	9.457	1504.762	1504.029	1510.623	11.618	0.870	-18.260	-5.895	-0.306	8.421
93809.479	NaN	-3.152	1.478	9.457	1505.495	1504.029	1509.158	11.481	0.672	-18.366	-5.971	-0.383	8.574
93810.455	NaN	-3.152	1.478	9.457	1504.762	1503.297	1509.890	11.466	0.595	-18.412	-5.818	-0.306	8.421
93811.432	NaN	-3.163	1.478	9.467	1504.762	1503.297	1508.425	11.450	0.626	-18.519	-5.818	-0.383	8.344
93812.408	NaN	-3.152	1.478	9.467	1504.762	1503.297	1509.158	11.420	0.672	-18.550	-5.818	-0.383	8.344
93813.385	NaN	-3.141	1.500	9.467	1505.495	1503.297	1510.623	11.420	0.641	-18.412	-5.818	-0.383	8.344
93814.362	NaN	-3.152	1.489	9.457	1506.227	1504.029	1511.355	11.481	0.565	-18.305	-5.818	-0.306	8.268
93815.338	NaN	-3.141	1.500	9.467	1504.762	1504.029	1510.623	11.389	0.748	-18.183	-5.895	-0.383	8.498
93816.315	NaN	-3.141	1.478	9.457	1506.960	1503.297	1510.623	11.298	0.947	-18.382	-5.665	-0.306	8.421
93817.291	NaN	-3.152	1.489	9.457	1506.227	1503.297	1509.158	11.252	0.885	-18.595	-5.971	-0.383	8.421
93818.268	NaN	-3.141	1.489	9.457	1505.495	1503.297	1511.355	11.344	0.809	-18.382	-5.818	-0.383	8.344
93819.244	NaN	-3.141	1.489	9.457	1505.495	1503.297	1509.890	11.374	0.855	-18.473	-5.742	-0.459	8.498
93820.221	NaN	-3.130	1.489	9.467	1505.495	1504.029	1510.623	11.359	0.840	-18.290	-5.742	-0.230	8.421
93821.198	NaN	-3.130	1.478	9.457	1506.960	1504.029	1509.890	11.267	0.656	-18.092	-5.818	-0.383	8.421
93822.174	NaN	-3.152	1.489	9.446	1504.762	1504.029	1510.623	11.313	0.641	-18.305	-5.818	-0.306	8.344
93823.151	NaN	-3.141	1.511	9.457	1505.495	1504.029	1511.355	11.221	0.779	-18.565	-5.742	-0.459	8.344
93824.127	NaN	-3.152	1.500	9.478	1505.495	1504.029	1510.623	11.405	0.733	-18.305	-5.895	-0.383	8.344
93825.104	NaN	-3.163	1.500	9.478	1504.762	1502.564	1508.425	11.618	0.733	-18.107	-5.742	-0.383	8.344
93826.080	NaN	-3.152	1.500	9.478	1505.495	1504.029	1510.623	11.649	0.824	-18.061	-5.971	-0.306	8.344
93827.057	NaN	-3.163	1.478	9.478	1504.762	1503.297	1509.158	11.603	0.840	-18.198	-5.742	-0.383	8.421
93828.033	NaN	-3.152	1.489	9.489	1505.495	1503.297	1510.623	11.267	0.870	-18.214	-5.818	-0.459	8.421
93829.010	NaN	-3.152	1.489	9.489	1504.762	1503.297	1509.890	11.267	0.916	-17.832	-5.742	-0.459	8.421
93829.987	NaN	-3.152	1.478	9.489	1504.762	1504.029	1510.623	11.328	0.901	-17.908	-5.971	-0.306	8.268
93830.963	NaN	-3.141	1.489	9.489	1506.227	1504.029	1510.623	11.420	0.870	-18.244	-5.818	-0.306	8.421
93831.940	NaN	-3.141	1.500	9.489	1505.495	1504.029	1511.355	11.405	0.870	-18.214	-5.818	-0.383	8.421
93832.916	NaN	-3.152	1.500	9.478	1506.227	1504.029	1509.158	11.527	0.885	-18.015	-5.742	-0.383	8.574
93833.893	NaN	-3.174	1.500	9.467	1505.495	1503.297	1509.158	11.573	0.962	-17.985	-5.818	-0.306	8.574
93834.869	NaN	-3.174	1.511	9.457	1506.227	1504.029	1511.355	11.511	0.824	-17.985	-5.742	-0.383	8.421
93835.846	3736848539.631	-3.163	1.500	9.446	1505.495	1504.029	1510.623	11.374	0.763	-18.000	-5.971	-0.306	8.268
93836.823	NaN	-3.141	1.478	9.457	1504.762	1503.297	1510.623	11.405	0.779	-18.122	-5.895	-0.306	8.421
93837.799	NaN	-3.141	1.478	9.457	1505.495	1504.029	1510.623	11.344	0.641	-18.076	-5.818	-0.459	8.268
93838.776	NaN	-3.163	1.478	9.457	1505.495	1504.762	1511.355	11.542	0.748	-18.000	-5.742	-0.383	8.421
93839.752	NaN	-3.152	1.489	9.457	1504.029	1504.029	1511.355	11.588	0.885	-17.924	-5.895	-0.306	8.498
93840.729	NaN	-3.141	1.478	9.467	1504.762	1503.297	1509.890	11.542	0.748	-18.031	-5.665	-0.459	8.344
93841.705	NaN	-3.141	1.478	9.467	1504.762	1504.029	1509.890	11.252	0.763	-18.122	-5.818	-0.306	8.344
93842.682	NaN	-3.152	1.478	9.457	1505.495	1504.762	1509.890	11.191	0.855	-18.137	-5.818	-0.383	8.421
93843.658	NaN	-3.152	1.489	9.467	1505.495	1505.495	1509.890	11.435	0.870	-18.092	-5.742	-0.306	8.498
93844.635	NaN	-3.152	1.478	9.467	1504.762	1504.029	1509.890	11.389	0.931	-17.954	-6.048	-0.383	8.344
93845.612	NaN	-3.152	1.467	9.467	1504.029	1503.297	1509.158	11.267	0.763	-17.908	-5.742	-0.536	8.344
93846.588	NaN	-3.152	1.478	9.467	1505.495	1504.762	1510.623	11.038	0.840	-17.939	-5.818	-0.459	8.344
93847.565	NaN	-3.141	1.478	9.457	1504.029	1504.762	1510.623	10.977	0.779	-17.832	-5.971	-0.306	8.421
93848.541	NaN	-3.130	1.478	9.457	1506.227	1504.029	1510.623	11.206	0.779	-17.817	-5.895	-0.306	8.344
93849.518	NaN	-3.130	1.478	9.457	1506.227	1504.029	1510.623	11.435	0.748	-17.878	-5.895	-0.459	8.421
93850.494	NaN	-3.141	1.478	9.457	1505.495	1503.297	1509.890	11.542	0.855	-17.969	-5.742	-0.306	8.268
93851.471	NaN	-3.152	1.478	9.457	1504.762	1503.297	1509.890	11.527	0.992	-17.969	-5.895	-0.306	8.498
93852.448	NaN	-3.163	1.489	9.467	1504.029	1503.297	1509.158	11.420	0.855	-17.969	-5.818	-0.230	8.421
93853.424	NaN	-3.152	1.489	9.467	1506.227	1504.029	1510.623	11.176	0.595	-17.908	-5.742	-0.383	8.344
93854.401	NaN	-3.163	1.489	9.457	1504.762	1504.029	1509.158	11.221	0.748	-18.122	-5.818	-0.306	8.421
93855.377	NaN	-3.174	1.489	9.446	1504.762	1503.297	1510.623	11.389	0.748	-18.061	-5.742	-0.459	8.344
93856.354	NaN	-3.174	1.478	9.446	1505.495	1503.297	1509.158	11.328	0.809	-17.786	-5.895	-0.383	8.344
93857.330	NaN	-3.163	1.489	9.457	1505.495	1504.029	1510.623	11.237	0.794	-17.679	-5.818	-0.383	8.421
93858.307	NaN	-3.163	1.489	9.467	1504.762	1503.297	1509.890	11.374	0.809	-17.618	-5.895	-0.383	8.421
93859.283	NaN	-3.174	1.489	9.467	1504.762	1503.297	1510.623	11.405	0.779	-17.725	-5.971	-0.383	8.268
93860.260	NaN	-3.174	1.489	9.478	1505.495	1502.564	1510.623	11.282	0.779	-17.985	-6.048	-0.383	8.421
93861.237	NaN	-3.163	1.489	9.467	1506.960	1502.564	1510.623	11.359	0.901	-18.137	-5.818	-0.536	8.421
93862.213	NaN	-3.163	1.489	9.467	1505.495	1504.029	1511.355	11.344	0.916	-17.771	-5.742	-0.306	8.421
93863.190	NaN	-3.152	1.489	9.478	1505.495	1503.297	1510.623	11.191	0.840	-17.588	-5.971	-0.306	8.421
93864.166	NaN	-3.163	1.489	9.467	1505.495	1502.564	1509.890	11.221	0.779	-17.450	-5.818	-0.459	8.574
93865.143	NaN	-3.163	1.489	9.457	1504.029	1503.297	1509.158	11.069	0.855	-17.725	-5.818	-0.306	8.268
93866.119	NaN	-3.141	1.489	9.467	1505.495	1504.762	1510.623	11.176	0.931	-17.802	-5.818	-0.459	8.421
93867.096	NaN	-3.152	1.478	9.467	1505.495	1502.564	1510.623	11.328	0.794	-17.740	-5.895	-0.306	8.421
93868.073	NaN	-3.152	1.478	9.467	1504.029	1503.297	1509.890	11.282	0.733	-17.511	-5.742	-0.230	8.344
93869.049	NaN	-3.141	1.489	9.457	1505.495	1503.297	1510.623	11.252	0.672	-17.496	-5.742	-0.306	8.344
93873.932	NaN	-3.152	1.467	9.446	1505.495	1503.297	1509.890	11.496	0.840	-17.786	-5.742	-0.383	8.498
93874.908	NaN	-3.152	1.478	9.446	1504.029	1502.564	1509.158	11.115	0.611	-18.000	-5.818	-0.383	8.421
93875.885	NaN	-3.152	1.478	9.446	1504.762	1503.297	1509.890	10.779	0.580	-17.863	-5.742	-0.306	8.498
93876.862	NaN	-3.152	1.478	9.446	1505.495	1504.029	1509.890	10.916	0.519	-17.649	-5.742	-0.383	8.344
93877.838	NaN	-3.141	1.478	9.457	1504.762	1503.297	1509.158	11.160	0.504	-17.618	-5.895	-0.383	8.498
93878.815	NaN	-3.163	1.489	9.446	1504.762	1504.029	1511.355	11.405	0.580	-17.573	-5.818	-0.306	8.421
93879.791	NaN	-3.163	1.511	9.467	1505.495	1503.297	1509.158	11.206	0.809	-17.634	-5.818	-0.383	8.421
93880.768	NaN	-3.163	1.500	9.467	1506.227	1504.029	1509.890	11.221	0.977	-17.573	-5.818	-0.383	8.344
93881.744	NaN	-3.141	1.489	9.467	1504.029	1503.297	1510.623	11.023	0.885	-17.649	-5.818	-0.306	8.421
93882.721	NaN	-3.141	1.489	9.467	1504.762	1503.297	1510.623	11.053	0.824	-17.588	-5.818	-0.306	8.574
93883.698	NaN	-3.141	1.489	9.478	1505.495	1504.762	1510.623	11.099	0.748	-17.527	-5.742	-0.306	8.498
93884.674	NaN	-3.152	1.500	9.478	1504.762	1504.029	1511.355	11.130	0.718	-17.878	-5.742	-0.383	8.421
93885.651	NaN	-3.152	1.500	9.467	1505.495	1504.029	1509.890	11.282	0.656	-17.786	-5.971	-0.230	8.421
93886.627	NaN	-3.141	1.500	9.467	1504.762	1504.029	1510.623	11.191	0.641	-17.481	-5.818	-0.383	8.344
93887.604	NaN	-3.152	1.489	9.467	1505.495	1503.297	1509.890	11.099	0.748	-17.435	-5.818	-0.459	8.344
93888.580	NaN	-3.152	1.489	9.467	1506.227	1504.762	1510.623	10.916	0.763	-17.466	-5.742	-0.306	8.268
93889.557	NaN	-3.152	1.489	9.457	1504.762	1503.297	1510.623	10.733	0.870	-17.450	-5.895	-0.383	8.344
93890.533	NaN	-3.141	1.489	9.457	1505.495	1504.029	1510.623	10.580	0.901	-17.542	-5.742	-0.306	8.268
93891.510	NaN	-3.152	1.478	9.467	1505.495	1503.297	1509.890	10.901	0.824	-17.695	-5.742	-0.383	8.421
93892.487	NaN	-3.141	1.500	9.457	1506.227	1504.029	1510.623	11.130	0.656	-17.603	-5.895	-0.459	8.421
93893.463	NaN	-3.141	1.489	9.457	1505.495	1504.029	1511.355	11.252	0.702	-17.527	-5.665	-0.383	8.344
93894.440	NaN	-3.141	1.489	9.446	1504.762	1504.762	1511.355	11.298	0.809	-17.435	-5.818	-0.383	8.191
93895.416	NaN	-3.163	1.489	9.446	1504.762	1503.297	1509.890	11.145	0.763	-17.405	-5.895	-0.383	8.344
93896.393	NaN	-3.163	1.478	9.435	1505.495	1504.029	1510.623	10.824	0.611	-17.527	-5.742	-0.459	8.498
93897.369	NaN	-3.163	1.489	9.446	1504.762	1504.762	1512.088	10.840	0.763	-17.573	-5.818	-0.306	8.344
93898.346	NaN	-3.163	1.489	9.446	1505.495	1503.297	1510.623	10.870	0.840	-17.679	-5.895	-0.306	8.421
93899.323	NaN	-3.152	1.489	9.457	1505.495	1504.029	1509.890	10.748	0.794	-17.695	-5.818	-0.383	8.421
93900.299	NaN	-3.141	1.478	9.457	1504.762	1503.297	1509.890	10.718	0.626	-17.542	-5.895	-0.306	8.344
93901.276	NaN	-3.152	1.489	9.457	1506.227	1504.029	1509.890	10.885	0.809	-17.405	-5.971	-0.383	8.268
93902.252	NaN	-3.141	1.489	9.457	1504.762	1504.029	1509.890	10.931	0.809	-17.420	-5.818	-0.230	8.421
93903.229	NaN	-3.152	1.489	9.467	1505.495	1504.029	1512.088	10.916	0.733	-17.511	-5.742	-0.383	8.498
93904.205	NaN	-3.152	1.500	9.467	1504.762	1503.297	1509.890	10.763	0.794	-17.435	-5.742	-0.383	8.498
93905.182	NaN	-3.163	1.489	9.457	1506.227	1502.564	1510.623	10.885	0.656	-17.389	-5.742	-0.383	8.651
93906.158	NaN	-3.163	1.500	9.457	1504.762	1502.564	1509.890	10.718	0.718	-17.359	-5.818	-0.383	8.498
93907.135	NaN	-3.152	1.500	9.457	1506.960	1503.297	1510.623	10.931	0.779	-17.298	-5.742	-0.306	8.421
93908.112	NaN	-3.152	1.489	9.457	1504.762	1504.029	1511.355	11.084	0.824	-17.130	-5.665	-0.153	8.344
93909.088	NaN	-3.163	1.489	9.457	1505.495	1503.297	1508.425	10.947	0.947	-16.977	-5.818	-0.383	8.421
93910.065	NaN	-3.152	1.500	9.435	1504.762	1504.029	1509.890	10.885	0.824	-17.160	-5.818	-0.383	8.421
93911.041	NaN	-3.163	1.489	9.446	1506.227	1503.297	1510.623	10.931	0.580	-17.237	-5.818	-0.459	8.344
93912.018	NaN	-3.152	1.489	9.457	1504.762	1503.297	1509.158	10.977	0.748	-17.435	-5.818	-0.383	8.344
93912.994	NaN	-3.152	1.500	9.446	1505.495	1503.297	1510.623	11.115	0.962	-17.496	-5.895	-0.383	8.421
93913.971	NaN	-3.152	1.511	9.457	1504.029	1503.297	1509.158	11.023	0.901	-17.374	-5.818	-0.383	8.498
93914.948	NaN	-3.152	1.511	9.457	1505.495	1504.029	1510.623	11.053	0.733	-17.328	-5.818	-0.306	8.498
93915.924	NaN	-3.152	1.500	9.478	1505.495	1503.297	1510.623	10.870	0.718	-17.221	-5.665	-0.306	8.498
93916.901	NaN	-3.163	1.500	9.467	1502.564	1503.297	1510.623	10.977	0.779	-17.176	-5.818	-0.306	8.498
93917.877	NaN	-3.163	1.500	9.467	1504.029	1504.029	1508.425	11.008	0.931	-17.069	-5.818	-0.306	8.498
93918.854	NaN	-3.152	1.500	9.467	1504.029	1502.564	1509.890	10.824	0.901	-17.282	-5.818	-0.459	8.421
93919.830	NaN	-3.152	1.500	9.467	1506.227	1503.297	1511.355	10.748	0.656	-17.420	-5.895	-0.306	8.344
93920.807	NaN	-3.174	1.478	9.467	1505.495	1504.029	1509.890	10.656	0.687	-17.313	-5.895	-0.306	8.421
93921.783	NaN	-3.163	1.478	9.467	1504.762	1503.297	1508.425	10.656	0.840	-17.206	-5.818	-0.306	8.498
93922.760	NaN	-3.152	1.467	9.467	1505.495	1503.297	1509.890	10.916	0.885	-17.191	-5.742	-0.459	8.421
93923.737	NaN	-3.141	1.489	9.457	1506.227	1504.029	1510.623	11.115	0.779	-17.160	-5.742	-0.383	8.421
93924.713	NaN	-3.141	1.478	9.457	1504.762	1504.029	1510.623	11.176	0.702	-17.160	-5.818	-0.306	8.498
93925.690	NaN	-3.141	1.489	9.446	1505.495	1503.297	1509.158	10.901	0.687	-17.206	-5.742	-0.383	8.421
93926.666	NaN	-3.141	1.489	9.457	1504.762	1503.297	1509.158	10.489	0.840	-17.237	-5.818	-0.383	8.115
93927.643	NaN	-3.141	1.500	9.467	1504.762	1504.029	1509.158	10.321	0.824	-17.374	-5.895	-0.383	8.344
93928.619	NaN	-3.152	1.500	9.457	1504.762	1503.297	1509.158	10.656	0.840	-17.328	-5.971	-0.306	8.421
93929.596	NaN	-3.163	1.489	9.457	1504.762	1504.029	1508.425	10.901	1.053	-17.237	-5.818	-0.306	8.421
93930.573	NaN	-3.141	1.500	9.457	1505.495	1503.297	1510.623	10.763	1.008	-17.252	-5.818	-0.383	8.268
93931.549	NaN	-3.163	1.489	9.467	1506.227	1504.029	1509.890	10.595	0.870	-17.160	-5.971	-0.383	8.421
93932.526	NaN	-3.141	1.489	9.457	1506.227	1504.029	1509.890	10.718	0.718	-17.084	-5.742	-0.383	8.421
93933.502	NaN	-3.141	1.489	9.467	1505.495	1503.297	1509.158	10.840	0.779	-17.099	-5.818	-0.459	8.344
93934.479	NaN	-3.141	1.489	9.478	1505.495	1504.029	1510.623	10.962	0.840	-17.023	-5.742	-0.306	8.498
93935.455	NaN	-3.152	1.489	9.467	1504.762	1504.029	1510.623	10.977	0.901	-17.176	-5.971	-0.383	8.344
93936.432	NaN	-3.152	1.489	9.467	1505.495	1504.029	1510.623	10.687	0.855	-17.053	-5.742	-0.383	8.498
93937.408	NaN	-3.141	1.489	9.467	1506.227	1504.029	1511.355	10.702	0.962	-16.977	-5.742	-0.383	8.421
93938.385	NaN	-3.152	1.500	9.457	1506.227	1504.029	1510.623	10.763	1.099	-17.084	-5.818	-0.230	8.421
93939.362	NaN	-3.141	1.500	9.457	1504.762	1503.297	1511.355	10.977	0.931	-16.992	-5.895	-0.383	8.421
93940.338	NaN	-3.141	1.489	9.457	1505.495	1503.297	1510.623	10.992	0.794	-16.916	-5.742	-0.459	8.421
93941.315	NaN	-3.141	1.489	9.467	1506.227	1504.029	1510.623	10.733	0.809	-16.916	-5.742	-0.306	8.268
93942.291	NaN	-3.141	1.489	9.467	1506.227	1504.029	1512.088	10.733	0.718	-17.038	-5.818	-0.383	8.344
93943.268	NaN	-3.141	1.500	9.467	1504.762	1504.029	1509.890	10.611	0.855	-17.145	-5.742	-0.383	8.344
93944.244	NaN	-3.141	1.500	9.467	1506.227	1504.029	1512.088	10.733	0.992	-17.099	-5.895	-0.459	8.498
93945.221	NaN	-3.152	1.489	9.457	1504.762	1503.297	1509.890	10.626	0.901	-16.947	-5.818	-0.383	8.498
93946.198	NaN	-3.152	1.489	9.467	1504.762	1502.564	1510.623	10.611	0.794	-17.023	-5.742	-0.459	8.421
93947.174	NaN	-3.152	1.500	9.457	1504.762	1503.297	1511.355	10.702	0.824	-17.084	-5.818	-0.383	8.344
93948.151	NaN	-3.130	1.500	9.467	1504.762	1504.029	1511.355	10.687	0.840	-17.160	-5.818	-0.306	8.268
93949.127	NaN	-3.141	1.489	9.446	1505.495	1503.297	1509.158	10.550	0.870	-17.237	-5.971	-0.383	8.421
93950.104	NaN	-3.163	1.489	9.435	1505.495	1504.029	1510.623	10.473	0.992	-17.115	-5.742	-0.306	8.421
93951.080	NaN	-3.174	1.489	9.435	1506.227	1503.297	1509.158	10.733	0.947	-17.130	-5.895	-0.383	8.421
93952.057	NaN	-3.163	1.500	9.435	1504.762	1503.297	1509.890	10.870	0.779	-17.099	-5.818	-0.306	8.344
93953.033	NaN	-3.163	1.500	9.435	1504.762	1504.029	1510.623	10.611	0.794	-16.901	-5.742	-0.383	8.344
93954.010	NaN	-3.174	1.489	9.435	1504.762	1504.029	1510.623	10.656	0.702	-16.855	-5.818	-0.306	8.344
93954.987	NaN	-3.174	1.500	9.424	1505.495	1504.029	1510.623	10.962	0.718	-16.962	-5.665	-0.306	8.344
93955.963	NaN	-3.163	1.500	9.435	1506.227	1504.029	1511.355	10.733	0.794	-17.069	-5.742	-0.306	8.344
93956.940	NaN	-3.163	1.500	9.446	1505.495	1503.297	1510.623	10.595	0.763	-16.916	-5.971	-0.383	8.344
93957.916	NaN	-3.152	1.500	9.446	1505.495	1502.564	1510.623	10.656	0.809	-16.733	-5.818	-0.306	8.421
93958.893	NaN	-3.163	1.489	9.435	1504.762	1504.029	1511.355	10.595	1.008	-16.733	-5.742	-0.383	8.421
93959.869	NaN	-3.152	1.489	9.435	1504.762	1504.029	1511.355	10.275	0.992	-16.855	-5.742	-0.383	8.498
93960.846	NaN	-3.152	1.467	9.435	1506.227	1504.029	1508.425	10.382	0.870	-16.901	-5.742	-0.459	8.421
93961.823	NaN	-3.130	1.489	9.435	1504.762	1504.029	1509.158	10.641	0.702	-16.931	-5.742	-0.306	8.421
93962.799	NaN	-3.141	1.489	9.446	1505.495	1503.297	1509.158	10.855	0.626	-16.962	-5.971	-0.230	8.498
93963.776	NaN	-3.152	1.489	9.435	1505.495	1504.029	1510.623	10.840	0.779	-16.824	-5.895	-0.459	8.421
93964.752	NaN	-3.141	1.500	9.446	1505.495	1504.029	1512.088	10.611	0.901	-16.809	-5.742	-0.153	8.344
93965.729	NaN	-3.141	1.500	9.435	1505.495	1504.762	1509.890	10.427	0.962	-16.763	-5.818	-0.306	8.344
93966.705	NaN	-3.141	1.500	9.435	1504.029	1503.297	1510.623	10.580	0.748	-16.580	-5.818	-0.459	8.344
93967.682	NaN	-3.152	1.489	9.435	1504.762	1504.029	1510.623	10.916	0.687	-16.565	-5.818	-0.459	8.344
93968.658	NaN	-3.141	1.500	9.446	1506.227	1504.762	1510.623	10.901	0.855	-16.794	-5.895	-0.383	8.421
93969.635	NaN	-3.152	1.489	9.435	1505.495	1503.297	1509.158	10.641	0.962	-16.962	-5.818	-0.306	8.421
93970.612	NaN	-3.152	1.489	9.446	1503.297	1502.564	1508.425	10.397	0.870	-16.840	-5.589	-0.306	8.421
93971.588	NaN	-3.141	1.489	9.446	1505.495	1504.029	1509.158	10.244	0.748	-16.412	-5.818	-0.230	8.344
93972.565	NaN	-3.152	1.500	9.435	1503.297	1502.564	1509.158	10.412	0.748	-16.473	-5.818	-0.306	8.344
93973.541	NaN	-3.141	1.500	9.435	1504.029	1503.297	1509.890	10.534	0.885	-16.809	-5.742	-0.383	8.344
93974.518	NaN	-3.152	1.489	9.446	1505.495	1503.297	1509.890	10.504	0.885	-16.840	-5.895	-0.306	8.344
93975.494	NaN	-3.152	1.500	9.457	1505.495	1503.297	1512.088	10.443	0.626	-16.641	-5.971	-0.383	8.421
93976.471	NaN	-3.163	1.489	9.457	1506.960	1503.297	1510.623	10.473	0.565	-16.672	-5.818	-0.230	8.498
93977.448	NaN	-3.152	1.489	9.446	1506.227	1504.029	1510.623	10.321	0.718	-16.580	-5.818	-0.306	8.498
93978.424	NaN	-3.141	1.478	9.446	1505.495	1503.297	1510.623	10.229	0.931	-16.550	-5.895	-0.459	8.498
93979.401	NaN	-3.141	1.489	9.457	1504.762	1503.297	1509.890	10.382	0.870	-16.473	-5.818	-0.459	8.344
93980.377	NaN	-3.141	1.500	9.457	1504.029	1504.029	1509.890	10.336	0.718	-16.565	-5.742	-0.230	8.268
93981.354	NaN	-3.152	1.489	9.446	1505.495	1504.029	1510.623	10.260	0.672	-16.626	-5.818	-0.459	8.344
93982.330	NaN	-3.141	1.500	9.457	1504.762	1504.762	1512.088	10.351	0.672	-16.656	-5.818	-0.383	8.498
93983.307	NaN	-3.141	1.489	9.467	1505.495	1504.029	1509.890	10.443	0.748	-16.626	-5.818	-0.306	8.421
93984.283	NaN	-3.141	1.500	9.467	1504.762	1504.029	1511.355	10.489	0.794	-16.550	-5.665	-0.383	8.421
93985.260	NaN	-3.152	1.489	9.467	1505.495	1504.029	1509.890	10.351	0.702	-16.656	-5.818	-0.383	8.268
93986.237	NaN	-3.152	1.489	9.467	1506.227	1504.029	1509.890	10.031	0.595	-16.809	-5.742	-0.306	8.344
93987.213	NaN	-3.152	1.489	9.457	1505.495	1503.297	1509.890	10.092	0.504	-16.748	-5.818	-0.306	8.421
93988.190	NaN	-3.152	1.489	9.467	1505.495	1503.297	1509.158	10.473	0.733	-16.718	-5.895	-0.306	8.498
93989.166	NaN	-3.152	1.489	9.478	1504.029	1503.297	1509.890	10.733	0.718	-16.687	-5.742	-0.383	8.574
93990.143	NaN	-3.152	1.478	9.478	1506.227	1503.297	1510.623	10.595	0.672	-16.534	-5.818	-0.306	8.421
93991.119	NaN	-3.152	1.478	9.489	1505.495	1504.029	1512.088	10.473	1.008	-16.489	-5.895	-0.306	8.421
93992.096	NaN	-3.152	1.478	9.489	1505.495	1503.297	1510.623	10.504	0.992	-16.443	-5.895	-0.383	8.268
93993.073	NaN	-3.141	1.467	9.467	1504.762	1503.297	1512.088	10.275	0.824	-16.458	-6.048	-0.383	8.268
93994.049	NaN	-3.130	1.478	9.467	1504.762	1503.297	1510.623	10.244	0.687	-16.534	-5.665	-0.230	8.498
93995.026	NaN	-3.141	1.467	9.467	1506.227	1504.029	1509.890	10.229	0.672	-16.687	-5.818	-0.459	8.344
93996.002	NaN	-3.152	1.467	9.467	1505.495	1504.029	1509.158	10.076	0.794	-16.489	-5.895	-0.306	8.498
93996.979	NaN	-3.141	1.478	9.478	1504.762	1502.564	1509.890	10.275	0.916	-16.351	-5.818	-0.306	8.498
93997.955	NaN	-3.152	1.478	9.478	1505.495	1504.029	1511.355	10.336	0.992	-16.260	-5.742	-0.459	8.498
93998.932	NaN	-3.152	1.478	9.478	1505.495	1504.029	1510.623	10.229	0.947	-16.275	-5.818	-0.383	8.344
93999.908	NaN	-3.152	1.489	9.500	1505.495	1504.029	1512.088	10.214	0.947	-16.382	-6.048	-0.306	8.498
94000.885	NaN	-3.163	1.478	9.489	1504.029	1503.297	1509.158	10.260	0.718	-16.626	-5.895	-0.383	8.421
94001.862	NaN	-3.141	1.500	9.489	1506.227	1504.029	1509.890	10.137	0.901	-16.427	-5.742	-0.306	8.421
94002.838	NaN	-3.152	1.489	9.489	1504.762	1504.029	1510.623	9.969	1.023	-16.443	-6.048	-0.383	8.421
94003.815	NaN	-3.163	1.489	9.467	1504.762	1503.297	1508.425	9.847	1.008	-16.473	-5.818	-0.383	8.421
94004.791	NaN	-3.163	1.500	9.478	1504.762	1503.297	1510.623	10.107	0.977	-16.473	-5.818	-0.383	8.498
94005.768	NaN	-3.163	1.489	9.467	1504.029	1504.029	1511.355	10.534	0.901	-16.244	-5.818	-0.306	8.421
94006.744	NaN	-3.174	1.489	9.467	1504.762	1503.297	1510.623	10.473	0.611	-16.214	-5.818	-0.306	8.344
94007.721	NaN	-3.174	1.489	9.467	1504.762	1503.297	1509.890	10.168	0.626	-16.473	-5.895	-0.383	8.344
94008.698	NaN	-3.163	1.489	9.467	1505.495	1504.762	1512.088	10.015	0.794	-16.336	-5.818	-0.459	8.421
94009.674	NaN	-3.163	1.500	9.467	1506.960	1504.762	1511.355	10.000	0.824	-16.260	-5.895	-0.306	8.344
94010.651	3736848539.784	-3.163	1.511	9.467	1505.495	1504.762	1510.623	10.107	0.824	-16.168	-5.665	-0.383	8.344
94011.627	NaN	-3.152	1.500	9.457	1505.495	1504.029	1509.890	10.519	0.794	-16.260	-5.818	-0.230	8.344
94012.604	NaN	-3.152	1.489	9.467	1504.762	1502.564	1509.890	10.168	0.748	-16.366	-5.818	-0.230	8.574
94013.580	NaN	-3.141	1.489	9.467	1504.029	1504.029	1509.890	9.832	0.840	-16.366	-5.742	-0.459	8.421
94014.557	NaN	-3.141	1.489	9.457	1505.495	1503.297	1509.890	9.985	0.962	-16.290	-5.818	-0.383	8.268
94015.533	NaN	-3.141	1.500	9.457	1504.762	1502.564	1509.890	10.015	0.947	-16.229	-5.742	-0.383	8.421
94016.510	NaN	-3.141	1.489	9.457	1504.029	1503.297	1509.890	9.985	1.053	-16.305	-5.742	-0.383	8.421
94017.487	NaN	-3.163	1.489	9.446	1504.762	1503.297	1509.890	10.107	1.084	-16.229	-5.818	-0.306	8.498
94018.463	NaN	-3.152	1.500	9.446	1504.762	1503.297	1510.623	9.954	1.053	-16.305	-5.971	-0.306	8.498
94019.440	NaN	-3.152	1.489	9.457	1505.495	1503.297	1509.890	9.863	0.916	-16.489	-5.742	-0.306	8.191
94020.416	NaN	-3.163	1.489	9.446	1506.227	1503.297	1510.623	9.802	0.672	-16.672	-5.742	-0.306	8.268
94021.393	NaN	-3.163	1.478	9.446	1506.227	1504.029	1509.158	9.954	0.840	-16.412	-5.818	-0.383	8.344
94022.369	NaN	-3.141	1.489	9.457	1505.495	1503.297	1509.890	10.260	0.947	-16.260	-5.818	-0.306	8.421
94023.346	NaN	-3.141	1.478	9.446	1506.227	1504.029	1511.355	10.336	0.763	-16.198	-5.818	-0.383	8.498
94024.323	NaN	-3.141	1.478	9.457	1504.762	1504.029	1509.158	10.275	0.824	-16.305	-5.895	-0.306	8.498
94025.299	NaN	-3.152	1.478	9.457	1504.762	1504.029	1511.355	10.107	0.824	-16.336	-5.742	-0.306	8.344
94026.276	NaN	-3.163	1.489	9.446	1505.495	1504.762	1509.890	9.954	1.023	-16.321	-5.742	-0.306	8.344
94027.252	NaN	-3.174	1.478	9.446	1505.495	1502.564	1511.355	10.061	1.145	-16.198	-5.818	-0.383	8.344
94028.229	NaN	-3.174	1.489	9.446	1504.029	1504.029	1509.890	10.031	0.916	-16.214	-5.742	-0.383	8.344
94029.205	NaN	-3.163	1.500	9.435	1504.762	1504.029	1510.623	10.214	0.672	-16.198	-5.742	-0.306	8.344
94030.182	NaN	-3.152	1.489	9.424	1504.029	1502.564	1509.890	10.198	0.763	-16.229	-5.971	-0.383	8.344
94031.158	NaN	-3.141	1.489	9.435	1504.762	1504.762	1511.355	9.969	0.916	-16.305	-5.895	-0.383	8.344
94032.135	NaN	-3.152	1.489	9.435	1504.762	1503.297	1509.158	9.954	0.885	-16.244	-5.818	-0.306	8.191
94033.112	NaN	-3.152	1.511	9.446	1504.029	1503.297	1510.623	10.076	0.870	-16.198	-5.742	-0.306	8.421
94034.088	NaN	-3.152	1.500	9.457	1505.495	1504.029	1509.890	10.076	0.931	-16.290	-5.742	-0.383	8.268
94035.065	NaN	-3.152	1.500	9.446	1504.762	1502.564	1510.623	10.229	0.977	-16.260	-5.665	-0.306	8.268
94036.041	NaN	-3.130	1.511	9.457	1504.762	1503.297	1510.623	10.046	0.809	-16.061	-5.665	-0.230	8.421
94037.018	NaN	-3.130	1.500	9.446	1505.495	1504.029	1510.623	10.092	0.687	-16.153	-5.895	-0.383	8.344
94037.994	NaN	-3.141	1.500	9.446	1506.227	1503.297	1510.623	10.046	0.748	-16.153	-5.895	-0.383	8.421
94038.971	NaN	-3.152	1.489	9.446	1506.227	1503.297	1510.623	9.939	0.779	-15.985	-5.818	-0.383	8.421
94039.948	NaN	-3.152	1.500	9.446	1506.227	1504.762	1509.890	9.954	0.794	-15.985	-5.895	-0.459	8.421
94040.924	NaN	-3.152	1.511	9.446	1506.227	1504.029	1512.088	9.939	0.962	-16.092	-5.818	-0.306	8.498
94041.901	NaN	-3.152	1.500	9.446	1504.762	1504.029	1512.088	9.725	1.008	-16.015	-5.742	-0.306	8.421
94042.877	NaN	-3.163	1.500	9.446	1504.762	1504.029	1509.890	9.649	1.008	-16.092	-5.818	-0.383	8.421
94043.854	NaN	-3.163	1.500	9.446	1505.495	1504.029	1509.890	9.878	0.947	-16.046	-5.895	-0.383	8.268
94044.830	NaN	-3.163	1.500	9.446	1504.762	1503.297	1508.425	9.954	0.794	-16.061	-5.895	-0.306	8.268
94045.807	NaN	-3.152	1.500	9.457	1505.495	1503.297	1509.158	10.046	0.718	-16.137	-5.818	-0.383	8.268
94046.783	NaN	-3.141	1.511	9.457	1504.762	1504.029	1509.158	10.092	0.763	-16.244	-5.818	-0.153	8.421
94047.760	NaN	-3.152	1.500	9.457	1504.762	1503.297	1509.158	9.679	0.748	-15.985	-5.818	-0.230	8.421
94048.737	NaN	-3.141	1.500	9.446	1504.762	1504.762	1510.623	9.527	0.687	-15.985	-5.895	-0.383	8.268
94049.713	NaN	-3.152	1.500	9.457	1504.762	1504.029	1511.355	9.664	0.794	-15.985	-5.895	-0.306	8.421
94050.690	NaN	-3.163	1.500	9.457	1504.762	1504.029	1510.623	9.679	0.916	-15.924	-5.818	-0.383	8.344
94051.666	NaN	-3.152	1.500	9.467	1505.495	1504.029	1509.890	9.695	0.870	-15.985	-5.818	-0.306	8.421
94052.643	NaN	-3.152	1.489	9.457	1505.495	1503.297	1510.623	9.771	0.718	-15.954	-5.818	-0.459	8.344
94053.619	NaN	-3.141	1.511	9.467	1505.495	1504.762	1510.623	9.725	0.611	-16.092	-5.665	-0.306	8.421
94054.596	NaN	-3.141	1.500	9.467	1506.227	1504.029	1509.890	9.603	0.809	-15.969	-5.742	-0.306	8.421
94055.573	NaN	-3.130	1.500	9.467	1505.495	1504.029	1509.890	9.679	1.038	-16.076	-5.818	-0.459	8.344
94056.549	NaN	-3.130	1.489	9.467	1505.495	1503.297	1512.088	9.695	1.069	-16.107	-5.971	-0.459	8.344
94057.526	NaN	-3.141	1.489	9.467	1506.227	1504.762	1509.890	9.603	0.962	-15.939	-5.742	-0.383	8.344
94058.502	NaN	-3.130	1.500	9.467	1505.495	1504.762	1509.890	9.618	0.855	-15.802	-5.895	-0.459	8.498
94059.479	NaN	-3.141	1.500	9.457	1505.495	1504.029	1509.890	9.863	0.718	-15.786	-5.742	-0.383	8.421
94060.455	NaN	-3.141	1.500	9.457	1504.762	1504.029	1510.623	10.031	0.916	-15.878	-5.895	-0.459	8.421
94061.432	NaN	-3.141	1.500	9.446	1505.495	1504.029	1510.623	9.969	0.962	-15.954	-5.971	-0.306	8.344
94062.408	NaN	-3.130	1.511	9.446	1507.692	1504.762	1510.623	9.847	1.053	-15.786	-5.818	-0.383	8.268
94063.385	NaN	-3.141	1.511	9.457	1506.227	1504.029	1512.088	9.771	0.824	-15.863	-5.742	-0.306	8.498
94064.362	NaN	-3.141	1.500	9.446	1505.495	1503.297	1510.623	9.496	0.580	-15.863	-5.742	-0.306	8.344
94065.338	NaN	-3.141	1.489	9.446	1505.495	1502.564	1509.890	9.496	0.534	-15.878	-5.742	-0.459	8.421
94066.315	NaN	-3.152	1.489	9.446	1506.227	1504.029	1511.355	9.634	0.626	-15.802	-5.742	-0.459	8.344
94067.291	NaN	-3.141	1.478	9.457	1506.227	1504.029	1510.623	9.527	0.870	-15.771	-5.818	-0.306	8.421
94068.268	NaN	-3.141	1.478	9.457	1505.495	1504.762	1509.890	9.435	0.779	-15.786	-5.895	-0.383	8.421
94069.244	NaN	-3.141	1.478	9.457	1504.762	1503.297	1509.158	9.328	0.779	-15.725	-5.818	-0.306	8.498
94070.221	NaN	-3.152	1.478	9.457	1504.762	1503.297	1509.890	9.298	0.840	-15.878	-5.971	-0.306	8.344
94071.198	NaN	-3.152	1.489	9.446	1506.227	1505.495	1510.623	9.634	0.916	-15.710	-5.818	-0.383	8.344
94072.174	NaN	-3.152	1.478	9.446	1505.495	1504.029	1511.355	9.756	1.008	-15.771	-5.818	-0.383	8.268
94073.151	NaN	-3.152	1.489	9.446	1504.762	1504.029	1509.890	9.634	0.779	-15.817	-5.818	-0.459	8.344
94074.127	NaN	-3.152	1.489	9.457	1505.495	1504.762	1512.088	9.710	0.840	-15.863	-5.895	-0.383	8.421
94075.104	NaN	-3.163	1.500	9.446	1506.227	1504.762	1510.623	9.786	0.901	-16.000	-5.818	-0.459	8.421
94076.080	NaN	-3.152	1.500	9.457	1505.495	1504.762	1510.623	9.588	1.023	-16.015	-5.818	-0.383	8.421
94077.057	NaN	-3.163	1.489	9.467	1504.762	1504.029	1510.623	9.344	1.008	-15.893	-5.742	-0.306	8.498
94078.033	NaN	-3.174	1.478	9.467	1505.495	1504.029	1509.158	9.466	0.809	-15.740	-5.895	-0.230	8.344
94079.010	NaN	-3.174	1.478	9.467	1504.762	1504.029	1510.623	9.802	0.824	-15.771	-5.818	-0.306	8.498
94079.987	NaN	-3.163	1.478	9.467	1504.762	1504.029	1509.158	9.786	0.962	-15.771	-5.742	-0.383	8.498
94080.963	NaN	-3.141	1.500	9.467	1504.762	1504.762	1510.623	9.573	1.038	-15.771	-5.895	-0.383	8.498
94081.940	NaN	-3.152	1.489	9.467	1505.495	1504.029	1510.623	9.374	0.931	-15.817	-5.895	-0.153	8.344
94082.916	NaN	-3.152	1.489	9.478	1504.762	1503.297	1509.158	9.405	0.947	-15.832	-5.742	-0.230	8.344
94083.893	NaN	-3.141	1.500	9.467	1505.495	1504.029	1511.355	9.496	0.916	-15.603	-5.818	-0.306	8.344
94084.869	NaN	-3.141	1.489	9.478	1504.762	1502.564	1508.425	9.603	1.008	-15.374	-5.895	-0.306	8.498
94085.846	NaN	-3.130	1.500	9.467	1505.495	1504.029	1510.623	9.679	1.023	-15.298	-5.818	-0.306	8.191
94086.823	NaN	-3.141	1.500	9.457	1504.762	1504.029	1511.355	9.420	1.008	-15.450	-5.895	-0.306	8.421
94087.799	NaN	-3.141	1.489	9.457	1504.762	1503.297	1510.623	9.191	0.962	-15.649	-5.971	-0.306	8.268
94088.776	NaN	-3.152	1.500	9.457	1505.495	1504.029	1511.355	9.267	0.763	-15.466	-5.818	-0.459	8.498
94089.752	NaN	-3.152	1.489	9.457	1505.495	1504.029	1509.890	9.237	0.672	-15.664	-5.742	-0.459	8.191
94090.729	NaN	-3.163	1.489	9.446	1501.099	1503.297	1509.890	9.282	0.748	-15.710	-5.742	-0.383	8.344
94091.705	NaN	-3.141	1.500	9.457	1505.495	1504.029	1510.623	9.664	0.885	-15.710	-5.818	-0.383	8.421
94092.682	NaN	-3.163	1.500	9.446	1505.495	1503.297	1511.355	9.405	0.748	-15.588	-5.818	-0.230	8.498
94093.658	NaN	-3.163	1.489	9.446	1504.029	1503.297	1509.890	9.328	0.656	-15.450	-5.971	-0.383	8.498
94094.635	NaN	-3.152	1.500	9.446	1504.029	1503.297	1510.623	9.405	0.809	-15.298	-5.895	-0.306	8.344
94095.612	NaN	-3.152	1.500	9.446	1506.227	1503.297	1510.623	9.420	0.885	-15.313	-5.818	-0.306	8.421
94096.588	NaN	-3.163	1.489	9.457	1505.495	1504.029	1509.890	9.389	0.718	-15.344	-5.818	-0.306	8.498
94097.565	NaN	-3.152	1.489	9.446	1504.762	1502.564	1509.158	9.466	0.641	-15.603	-5.742	-0.306	8.421
94098.541	NaN	-3.152	1.500	9.467	1505.495	1504.762	1509.158	9.328	0.794	-15.740	-5.742	-0.230	8.421
94099.518	NaN	-3.163	1.489	9.457	1504.762	1503.297	1509.890	9.328	0.824	-15.817	-5.742	-0.306	8.421
94100.494	NaN	-3.163	1.489	9.457	1504.762	1502.564	1508.425	9.359	0.855	-15.679	-5.895	-0.383	8.344
94101.471	NaN	-3.163	1.500	9.457	1504.762	1503.297	1509.890	9.405	0.962	-15.588	-5.818	-0.306	8.421
94102.448	NaN	-3.163	1.500	9.457	1505.495	1503.297	1509.158	9.282	0.824	-15.573	-5.818	-0.230	8.498
94103.424	NaN	-3.152	1.500	9.467	1505.495	1504.029	1509.890	9.237	0.794	-15.557	-5.818	-0.383	8.344
94104.401	NaN	-3.163	1.500	9.467	1505.495	1504.029	1510.623	9.267	0.870	-15.466	-5.895	-0.306	8.421
94105.377	NaN	-3.152	1.500	9.478	1504.029	1504.029	1510.623	9.237	0.840	-15.267	-5.818	-0.383	8.498
94106.354	NaN	-3.152	1.489	9.467	1505.495	1504.029	1512.088	9.191	0.901	-15.282	-5.742	-0.306	8.344
94107.330	NaN	-3.152	1.500	9.457	1504.762	1504.762	1511.355	9.176	1.069	-15.511	-5.818	-0.230	8.344
94108.307	NaN	-3.152	1.500	9.457	1505.495	1504.762	1509.890	9.084	1.160	-15.664	-5.742	-0.306	8.421
94109.283	NaN	-3.152	1.489	9.457	1505.495	1504.029	1510.623	9.221	0.977	-15.481	-5.818	-0.383	8.344
94110.260	NaN	-3.163	1.489	9.457	1505.495	1504.029	1510.623	9.069	0.779	-15.435	-5.818	-0.306	8.421
94111.237	NaN	-3.152	1.489	9.446	1504.029	1503.297	1509.890	8.916	0.855	-15.527	-5.742	-0.383	8.498
94112.213	NaN	-3.141	1.500	9.457	1505.495	1504.762	1510.623	8.992	0.977	-15.481	-5.665	-0.383	8.421
94113.190	NaN	-3.152	1.489	9.446	1505.495	1504.029	1510.623	9.237	0.794	-15.267	-6.048	-0.459	8.498
94114.166	NaN	-3.152	1.511	9.457	1504.762	1503.297	1509.890	9.435	0.901	-15.328	-5.742	-0.383	8.344
94115.143	NaN	-3.152	1.489	9.457	1505.495	1504.029	1510.623	9.466	0.824	-15.618	-5.742	-0.383	8.421
94116.119	NaN	-3.152	1.489	9.457	1505.495	1503.297	1509.890	9.511	0.901	-15.664	-5.742	-0.383	8.191
94117.096	NaN	-3.141	1.489	9.467	1505.495	1504.029	1512.088	9.389	0.947	-15.435	-5.818	-0.230	8.268
94118.073	NaN	-3.141	1.500	9.457	1504.762	1504.029	1511.355	9.176	1.053	-15.313	-5.895	-0.459	8.421
94119.049	NaN	-3.163	1.478	9.457	1504.762	1504.029	1510.623	9.206	0.992	-15.481	-5.742	-0.383	8.191
94120.026	NaN	-3.163	1.489	9.446	1502.564	1503.297	1509.158	9.328	0.870	-15.496	-5.895	-0.306	8.191
94121.002	NaN	-3.152	1.489	9.457	1504.762	1504.762	1510.623	9.206	0.916	-15.634	-5.742	-0.383	8.268
94121.979	NaN	-3.152	1.489	9.446	1506.227	1504.762	1509.890	9.176	1.008	-15.420	-5.895	-0.306	8.268
94122.955	NaN	-3.152	1.489	9.446	1504.762	1504.029	1509.158	9.298	1.008	-15.328	-5.818	-0.306	8.344
94123.932	NaN	-3.152	1.489	9.446	1506.227	1503.297	1509.890	9.313	0.977	-15.328	-5.818	-0.306	8.344
94124.908	NaN	-3.152	1.489	9.457	1504.762	1504.762	1510.623	9.282	0.992	-15.344	-5.895	-0.383	8.344
94125.885	NaN	-3.141	1.500	9.478	1505.495	1504.029	1509.890	9.221	1.084	-15.344	-5.818	-0.306	8.498
94126.862	NaN	-3.152	1.500	9.478	1506.227	1503.297	1509.158	9.130	1.038	-15.298	-5.895	-0.306	8.421
94127.838	NaN	-3.152	1.500	9.467	1505.495	1504.029	1509.158	9.252	1.008	-15.206	-5.742	-0.383	8.344
94128.815	NaN	-3.152	1.500	9.467	1506.227	1504.762	1509.890	9.252	0.962	-15.252	-5.895	-0.383	8.344
94129.791	NaN	-3.174	1.500	9.467	1504.762	1503.297	1509.158	9.221	0.885	-15.374	-5.818	-0.230	8.268
94130.768	NaN	-3.163	1.489	9.489	1504.762	1503.297	1509.158	9.069	0.794	-15.359	-5.818	-0.306	8.344
94131.744	NaN	-3.152	1.500	9.478	1506.227	1503.297	1509.890	9.176	0.779	-15.252	-5.818	-0.230	8.421
94132.721	NaN	-3.163	1.489	9.467	1504.029	1503.297	1509.158	9.145	0.824	-15.206	-5.895	-0.306	8.421
94133.698	NaN	-3.141	1.500	9.467	1505.495	1503.297	1508.425	9.191	0.840	-15.298	-5.742	-0.383	8.574
94134.674	NaN	-3.152	1.489	9.467	1504.762	1504.029	1509.890	9.267	0.824	-15.435	-5.818	-0.383	8.344
94135.651	NaN	-3.163	1.489	9.478	1502.564	1504.029	1511.355	9.008	0.992	-15.237	-5.818	-0.383	8.268
94136.627	NaN	-3.141	1.489	9.489	1504.029	1504.762	1509.890	9.099	1.069	-15.130	-5.818	-0.306	8.344
94137.604	NaN	-3.152	1.489	9.478	1506.227	1504.029	1509.890	9.206	1.008	-15.237	-5.665	-0.383	8.498
94138.580	NaN	-3.152	1.478	9.478	1505.495	1505.495	1509.890	8.992	0.931	-15.344	-5.742	-0.383	8.498
94139.557	NaN	-3.163	1.467	9.478	1504.762	1503.297	1509.890	9.130	0.763	-15.298	-5.818	-0.306	8.344
94140.533	NaN	-3.152	1.478	9.478	1506.960	1503.297	1512.821	9.145	0.916	-15.267	-5.818	-0.306	8.498
94141.510	NaN	-3.163	1.478	9.457	1505.495	1503.297	1511.355	9.038	0.840	-15.267	-5.665	-0.383	8.421
94142.487	NaN	-3.163	1.489	9.457	1506.227	1504.029	1509.890	9.008	0.763	-15.282	-5.818	-0.306	8.421
94143.463	NaN	-3.163	1.500	9.478	1505.495	1504.029	1510.623	9.267	0.870	-15.176	-5.971	-0.306	8.421
94144.440	NaN	-3.163	1.500	9.467	1503.297	1504.762	1509.890	9.176	0.870	-15.038	-5.818	-0.306	8.344
94145.416	NaN	-3.163	1.511	9.467	1504.762	1504.029	1510.623	8.916	0.794	-14.870	-5.895	-0.459	8.344
94146.393	3736848539.952	-3.163	1.500	9.467	1504.762	1503.297	1509.158	8.687	0.763	-15.084	-5.665	-0.383	8.421
94147.369	NaN	-3.141	1.500	9.467	1506.227	1504.762	1509.890	8.840	0.779	-15.405	-5.895	-0.459	8.421
94148.346	NaN	-3.163	1.489	9.457	1505.495	1504.029	1509.890	9.160	0.901	-15.313	-5.818	-0.383	8.344
94149.323	NaN	-3.152	1.500	9.467	1504.029	1503.297	1508.425	9.282	0.870	-15.145	-5.742	-0.306	8.268
94150.299	NaN	-3.152	1.500	9.467	1504.762	1504.029	1510.623	9.176	0.641	-15.267	-5.818	-0.230	8.421
94151.276	NaN	-3.163	1.500	9.457	1506.227	1504.762	1510.623	9.115	0.687	-15.206	-5.971	-0.306	8.498
94152.252	NaN	-3.141	1.489	9.467	1505.495	1503.297	1512.088	8.992	0.931	-15.130	-5.742	-0.306	8.344
94153.229	NaN	-3.141	1.489	9.467	1506.227	1503.297	1510.623	8.901	1.023	-15.008	-5.742	-0.383	8.268
94154.205	NaN	-3.141	1.478	9.478	1503.297	1501.832	1509.158	8.992	0.931	-15.038	-5.818	-0.230	8.498
94155.182	NaN	-3.141	1.478	9.467	1505.495	1503.297	1509.890	9.176	0.870	-14.885	-5.818	-0.459	8.421
94156.158	NaN	-3.141	1.489	9.467	1504.029	1503.297	1509.158	8.901	0.794	-14.870	-5.895	-0.383	8.268
94157.135	NaN	-3.120	1.500	9.446	1504.762	1504.029	1510.623	8.672	0.763	-14.855	-5.818	-0.383	8.421
94158.112	NaN	-3.130	1.500	9.446	1505.495	1504.029	1509.890	8.656	0.840	-14.855	-5.818	-0.383	8.344
94159.088	NaN	-3.141	1.489	9.457	1505.495	1503.297	1509.158	8.763	0.992	-14.885	-5.895	-0.230	8.344
94160.065	NaN	-3.130	1.489	9.467	1505.495	1502.564	1509.890	8.977	1.069	-14.840	-5.971	-0.230	8.268
94161.041	NaN	-3.130	1.500	9.478	1505.495	1504.029	1511.355	8.992	0.840	-14.977	-5.818	-0.383	8.421
94162.018	NaN	-3.141	1.489	9.489	1505.495	1504.029	1511.355	9.023	0.779	-15.038	-5.895	-0.383	8.344
94162.994	NaN	-3.130	1.500	9.489	1504.762	1504.762	1511.355	8.779	0.901	-14.855	-5.818	-0.459	8.344
94163.971	NaN	-3.141	1.500	9.467	1504.762	1504.029	1509.890	8.595	0.916	-14.885	-5.895	-0.306	8.498
94164.948	NaN	-3.130	1.511	9.457	1505.495	1504.762	1510.623	8.687	0.794	-15.053	-5.818	-0.230	8.421
94165.924	NaN	-3.141	1.500	9.457	1504.762	1504.029	1508.425	8.824	0.748	-14.840	-5.818	-0.306	8.344
94166.901	NaN	-3.130	1.500	9.467	1504.762	1504.029	1510.623	8.824	0.702	-14.824	-5.818	-0.306	8.574
94167.877	NaN	-3.130	1.489	9.457	1505.495	1504.029	1509.890	8.885	0.733	-14.962	-5.742	-0.383	8.344
94168.854	NaN	-3.152	1.478	9.446	1504.762	1504.762	1509.158	9.145	0.824	-14.992	-5.742	-0.383	8.344
94169.830	NaN	-3.152	1.478	9.446	1505.495	1504.029	1509.890	9.053	0.870	-14.779	-5.665	-0.383	8.344
94170.807	NaN	-3.163	1.478	9.446	1505.495	1504.029	1511.355	8.855	0.626	-14.534	-5.895	-0.383	8.421
94171.783	NaN	-3.163	1.478	9.446	1504.762	1504.029	1510.623	9.038	0.672	-14.656	-5.742	-0.383	8.498
94172.760	NaN	-3.163	1.478	9.457	1504.029	1503.297	1509.890	9.191	0.824	-14.916	-5.818	-0.306	8.421
94173.737	NaN	-3.163	1.489	9.457	1504.762	1502.564	1509.158	8.901	1.023	-14.855	-5.742	-0.306	8.344
94174.713	NaN	-3.152	1.500	9.467	1506.227	1503.297	1509.890	8.748	1.008	-14.931	-5.971	-0.383	8.421
94175.690	NaN	-3.163	1.500	9.457	1505.495	1504.029	1509.890	8.809	0.977	-15.069	-5.818	-0.306	8.344
94176.666	NaN	-3.163	1.489	9.457	1505.495	1502.564	1509.158	8.779	0.840	-14.916	-5.971	-0.383	8.268
94177.643	NaN	-3.152	1.478	9.467	1506.227	1503.297	1509.158	8.702	0.794	-14.901	-5.895	-0.383	8.268
94178.619	NaN	-3.152	1.489	9.467	1505.495	1505.495	1510.623	8.855	0.977	-15.008	-5.971	-0.230	8.344
94179.596	NaN	-3.163	1.489	9.478	1506.227	1503.297	1509.890	8.916	0.977	-14.870	-5.895	-0.459	8.421
94180.573	NaN	-3.163	1.489	9.478	1506.227	1504.029	1510.623	8.840	0.794	-14.763	-5.818	-0.383	8.574
94181.549	NaN	-3.174	1.489	9.467	1505.495	1503.297	1509.158	8.840	0.794	-14.718	-5.818	-0.383	8.421
94182.526	NaN	-3.163	1.489	9.446	1505.495	1503.297	1509.890	8.824	0.840	-14.733	-5.895	-0.383	8.421
94183.502	NaN	-3.163	1.489	9.457	1503.297	1503.297	1509.890	8.824	0.992	-14.733	-5.818	-0.383	8.344
94184.479	NaN	-3.152	1.500	9.457	1505.495	1504.029	1511.355	8.672	0.947	-14.962	-5.971	-0.383	8.344
94185.455	NaN	-3.163	1.489	9.467	1504.762	1504.029	1510.623	8.702	0.870	-14.947	-5.818	-0.383	8.421
94186.432	NaN	-3.174	1.489	9.467	1505.495	1503.297	1509.890	8.611	0.870	-14.656	-5.895	-0.306	8.498
94187.408	NaN	-3.174	1.489	9.467	1505.495	1504.029	1510.623	8.641	0.855	-14.565	-5.818	-0.306	8.344
94188.385	NaN	-3.174	1.500	9.478	1506.227	1504.029	1510.623	8.504	0.947	-14.626	-5.818	-0.459	8.498
94189.362	NaN	-3.174	1.500	9.478	1505.495	1504.029	1509.890	8.489	0.962	-14.656	-5.818	-0.306	8.498
94190.338	NaN	-3.163	1.489	9.478	1504.762	1504.762	1509.158	8.595	0.809	-14.672	-5.818	-0.383	8.268
94191.315	NaN	-3.174	1.478	9.467	1505.495	1504.029	1511.355	8.611	0.733	-14.672	-5.818	-0.383	8.344
94192.291	NaN	-3.163	1.489	9.478	1505.495	1504.029	1509.890	8.519	0.733	-14.718	-5.971	-0.383	8.421
94193.268	NaN	-3.152	1.489	9.478	1504.762	1504.762	1510.623	8.595	0.916	-14.656	-5.818	-0.230	8.421
94194.244	NaN	-3.163	1.489	9.478	1505.495	1503.297	1511.355	8.763	0.947	-14.748	-5.818	-0.459	8.421
94195.221	NaN	-3.163	1.489	9.478	1504.029	1504.029	1510.623	8.595	0.687	-14.824	-5.742	-0.383	8.344
94196.198	NaN	-3.152	1.500	9.467	1503.297	1504.762	1510.623	8.458	0.534	-14.855	-5.742	-0.383	8.498
94197.174	NaN	-3.152	1.489	9.478	1505.495	1503.297	1512.088	8.611	0.641	-14.733	-5.818	-0.230	8.421
94198.151	NaN	-3.163	1.489	9.478	1503.297	1504.029	1510.623	8.824	0.855	-14.611	-5.971	-0.383	8.498
94199.127	NaN	-3.163	1.500	9.478	1504.762	1504.029	1509.890	8.718	0.870	-14.672	-5.818	-0.306	8.344
94200.104	NaN	-3.163	1.500	9.467	1505.495	1503.297	1509.890	8.611	0.870	-14.626	-5.895	-0.459	8.344
94201.080	NaN	-3.152	1.500	9.478	1505.495	1504.762	1510.623	8.519	0.931	-14.611	-5.742	-0.306	8.344
94202.057	NaN	-3.163	1.500	9.467	1505.495	1504.029	1509.158	8.565	1.008	-14.427	-5.742	-0.383	8.498
94203.033	NaN	-3.163	1.489	9.467	1504.762	1503.297	1509.890	8.443	0.824	-14.336	-5.742	-0.459	8.498
94204.010	NaN	-3.163	1.489	9.467	1505.495	1504.029	1509.158	8.489	0.824	-14.519	-5.895	-0.536	8.498
94204.987	NaN	-3.163	1.489	9.457	1504.762	1504.762	1511.355	8.504	0.809	-14.504	-5.818	-0.383	8.344
94205.963	NaN	-3.163	1.500	9.457	1505.495	1503.297	1511.355	8.748	0.794	-14.641	-5.742	-0.306	8.421
94206.940	NaN	-3.174	1.500	9.457	1504.762	1503.297	1510.623	8.672	0.855	-14.534	-5.895	-0.153	8.498
94207.916	NaN	-3.174	1.500	9.467	1505.495	1502.564	1509.158	8.550	0.855	-14.336	-5.818	-0.306	8.498
94208.893	NaN	-3.174	1.500	9.467	1504.762	1504.029	1510.623	8.687	0.855	-14.458	-5.742	-0.306	8.421
94209.869	NaN	-3.163	1.489	9.467	1506.227	1504.762	1509.890	8.672	0.870	-14.427	-5.665	-0.459	8.421
94210.846	NaN	-3.174	1.489	9.478	1504.762	1504.029	1509.158	8.718	0.809	-14.458	-5.818	-0.383	8.421
94211.823	NaN	-3.174	1.489	9.467	1504.762	1503.297	1509.890	8.366	0.916	-14.473	-5.895	-0.230	8.421
94212.799	NaN	-3.163	1.489	9.457	1504.762	1504.029	1509.890	8.519	1.053	-14.534	-5.895	-0.306	8.421
94213.776	NaN	-3.163	1.489	9.467	1504.762	1504.762	1508.425	8.733	0.885	-14.336	-5.895	-0.536	8.344
94214.752	NaN	-3.141	1.489	9.457	1505.495	1504.762	1509.890	8.855	0.779	-14.214	-5.971	-0.383	8.421
94215.729	NaN	-3.141	1.489	9.457	1505.495	1503.297	1509.890	8.626	0.885	-14.351	-5.818	-0.306	8.344
94216.705	NaN	-3.152	1.467	9.446	1505.495	1503.297	1510.623	8.580	0.947	-14.550	-5.742	-0.383	8.421
94217.682	NaN	-3.163	1.467	9.446	1504.762	1504.029	1509.890	8.626	0.962	-14.519	-5.742	-0.383	8.344
94218.658	NaN	-3.152	1.478	9.446	1506.227	1504.029	1511.355	8.534	0.916	-14.321	-5.895	-0.459	8.421
94219.635	NaN	-3.152	1.478	9.446	1505.495	1503.297	1509.890	8.397	1.038	-14.183	-5.742	-0.306	8.344
94220.612	NaN	-3.152	1.478	9.446	1504.029	1503.297	1510.623	8.351	0.977	-14.229	-5.818	-0.459	8.344
94221.588	NaN	-3.141	1.478	9.435	1505.495	1503.297	1509.890	8.519	0.916	-14.366	-5.589	-0.230	8.421
94222.565	NaN	-3.152	1.478	9.446	1505.495	1504.029	1509.890	8.611	1.023	-14.412	-5.895	-0.459	8.421
94223.541	NaN	-3.141	1.500	9.457	1505.495	1504.029	1510.623	8.534	0.885	-14.397	-5.742	-0.306	8.344
94232.330	NaN	-3.141	1.489	9.457	1505.495	1504.762	1510.623	8.534	0.809	-14.351	-5.895	-0.383	8.574
94233.307	NaN	-3.163	1.478	9.457	1505.495	1504.029	1509.890	8.458	0.794	-14.229	-5.818	-0.306	8.268
94234.283	NaN	-3.152	1.489	9.467	1504.762	1502.564	1509.158	8.382	0.824	-14.305	-5.818	-0.459	8.344
94235.260	NaN	-3.152	1.489	9.478	1504.762	1504.029	1509.890	8.366	0.718	-14.305	-5.742	-0.383	8.421
94236.237	NaN	-3.152	1.478	9.467	1504.762	1504.029	1510.623	8.519	0.824	-14.122	-5.742	-0.383	8.344
94237.213	NaN	-3.152	1.489	9.467	1506.227	1503.297	1511.355	8.504	1.023	-14.183	-5.895	-0.306	8.344
94238.190	NaN	-3.141	1.489	9.467	1505.495	1503.297	1510.623	8.489	0.992	-14.305	-5.818	-0.383	8.268
94239.166	NaN	-3.141	1.489	9.457	1505.495	1504.762	1510.623	8.565	0.855	-14.244	-5.971	-0.459	8.268
94240.143	NaN	-3.152	1.489	9.457	1505.495	1503.297	1510.623	8.565	0.748	-14.198	-5.895	-0.459	8.421
94241.119	NaN	-3.141	1.500	9.457	1506.227	1504.029	1511.355	8.565	0.809	-14.275	-5.895	-0.306	8.344
94242.096	NaN	-3.152	1.489	9.457	1505.495	1503.297	1510.623	8.366	0.824	-14.336	-5.742	-0.306	8.344
94243.073	NaN	-3.152	1.489	9.467	1506.227	1502.564	1510.623	8.504	0.840	-14.214	-5.895	-0.383	8.344
94244.049	NaN	-3.152	1.489	9.457	1505.495	1504.029	1510.623	8.534	0.840	-14.137	-5.818	-0.153	8.344
94245.026	NaN	-3.163	1.489	9.467	1506.227	1504.029	1509.890	8.382	0.733	-14.229	-5.818	-0.383	8.344
94246.002	NaN	-3.152	1.489	9.467	1504.762	1503.297	1510.623	8.061	0.809	-14.214	-5.742	-0.306	8.498
94246.979	NaN	-3.141	1.489	9.467	1504.029	1503.297	1511.355	8.290	0.855	-14.092	-5.589	-0.230	8.421
94247.955	NaN	-3.141	1.489	9.457	1504.762	1504.762	1511.355	8.550	0.748	-14.031	-5.742	-0.306	8.421
94248.932	NaN	-3.152	1.489	9.457	1506.227	1503.297	1509.890	8.427	0.779	-14.092	-5.742	-0.383	8.344
94249.908	NaN	-3.152	1.489	9.457	1505.495	1504.762	1509.890	8.275	0.748	-14.061	-5.971	-0.306	8.498
94250.885	NaN	-3.152	1.489	9.457	1505.495	1504.029	1510.623	8.427	0.641	-14.000	-5.895	-0.459	8.268
94251.862	NaN	-3.141	1.489	9.457	1504.762	1503.297	1510.623	8.443	0.718	-14.153	-5.895	-0.383	8.498
94252.838	NaN	-3.141	1.489	9.467	1504.762	1504.029	1509.890	8.351	0.885	-14.092	-5.665	-0.306	8.498
94253.815	NaN	-3.141	1.489	9.467	1504.762	1504.762	1509.158	8.382	0.840	-14.137	-5.818	-0.383	8.498
94254.791	NaN	-3.141	1.489	9.467	1506.227	1504.029	1510.623	8.366	0.779	-14.046	-5.818	-0.459	8.421
94255.768	NaN	-3.141	1.489	9.457	1505.495	1503.297	1509.890	8.427	0.809	-13.908	-5.818	-0.306	8.498
94256.744	NaN	-3.152	1.500	9.446	1504.762	1504.029	1509.890	8.595	0.885	-14.046	-5.818	-0.459	8.574
94257.721	NaN	-3.152	1.500	9.457	1504.762	1503.297	1510.623	8.580	0.855	-14.031	-5.742	-0.383	8.421
94258.698	NaN	-3.163	1.500	9.446	1504.762	1504.762	1510.623	8.336	0.656	-14.061	-5.971	-0.306	8.191
94259.674	NaN	-3.152	1.500	9.457	1505.495	1504.029	1512.088	8.137	0.656	-13.985	-5.895	-0.459	8.421
94260.651	NaN	-3.163	1.500	9.457	1506.227	1503.297	1510.623	8.229	0.626	-13.954	-5.742	-0.459	8.344
94261.627	NaN	-3.163	1.489	9.457	1506.227	1503.297	1509.890	8.290	0.855	-14.122	-5.665	-0.306	8.268
94262.604	NaN	-3.174	1.489	9.446	1506.960	1504.029	1509.890	8.153	0.901	-14.092	-5.818	-0.383	8.421
94263.580	NaN	-3.163	1.489	9.457	1505.495	1504.029	1512.088	8.198	0.885	-14.107	-5.818	-0.306	8.268
94264.557	NaN	-3.163	1.478	9.457	1505.495	1504.029	1509.890	8.198	0.763	-13.817	-5.895	-0.383	8.268
94265.533	NaN	-3.152	1.489	9.467	1504.762	1503.297	1510.623	8.260	0.779	-13.802	-5.895	-0.383	8.344
94266.510	NaN	-3.163	1.489	9.457	1505.495	1503.297	1510.623	8.183	0.748	-13.847	-5.818	-0.306	8.344
94267.487	NaN	-3.152	1.489	9.457	1505.495	1504.029	1510.623	8.153	0.702	-13.985	-5.665	-0.536	8.344
94268.463	NaN	-3.141	1.500	9.457	1505.495	1504.762	1509.158	8.137	0.733	-14.000	-5.895	-0.306	8.344
94269.440	NaN	-3.141	1.489	9.467	1505.495	1504.029	1511.355	8.122	0.763	-14.015	-5.665	-0.306	8.421
94270.416	NaN	-3.141	1.489	9.467	1504.762	1504.762	1509.890	8.382	0.794	-13.954	-5.818	-0.306	8.498
94271.393	NaN	-3.163	1.489	9.467	1506.227	1503.297	1509.890	8.534	0.763	-13.847	-5.818	-0.230	8.498
94272.369	NaN	-3.163	1.489	9.467	1505.495	1504.762	1510.623	8.504	0.901	-13.863	-5.818	-0.306	8.268
94273.346	NaN	-3.152	1.489	9.478	1504.029	1504.762	1511.355	8.183	1.023	-13.969	-5.818	-0.306	8.498
94274.323	NaN	-3.141	1.489	9.478	1505.495	1504.029	1511.355	7.832	0.748	-14.046	-5.818	-0.383	8.421
94275.299	NaN	-3.152	1.478	9.478	1504.029	1504.029	1510.623	7.954	0.763	-13.695	-5.895	-0.306	8.344
94276.276	NaN	-3.152	1.489	9.478	1504.762	1504.029	1510.623	8.168	0.809	-13.771	-5.971	-0.306	8.421
94277.252	NaN	-3.152	1.489	9.478	1505.495	1503.297	1510.623	8.153	1.023	-13.786	-5.818	-0.383	8.421
94278.229	NaN	-3.141	1.489	9.467	1504.029	1504.029	1510.623	8.305	1.008	-13.847	-5.895	-0.383	8.344
94279.205	NaN	-3.130	1.489	9.467	1504.762	1504.029	1510.623	8.305	0.992	-13.817	-5.818	-0.459	8.421
94280.182	NaN	-3.141	1.489	9.467	1504.762	1503.297	1510.623	8.427	0.855	-13.832	-5.818	-0.383	8.421
94281.158	NaN	-3.152	1.500	9.478	1504.762	1504.762	1509.890	8.305	0.794	-13.740	-5.895	-0.383	8.421
94282.135	NaN	-3.141	1.489	9.467	1505.495	1504.762	1510.623	8.183	0.901	-13.695	-5.818	-0.383	8.268
94283.112	NaN	-3.152	1.489	9.467	1505.495	1503.297	1509.158	8.031	0.916	-13.756	-5.818	-0.459	8.498
94284.088	NaN	-3.163	1.489	9.478	1504.762	1503.297	1509.890	8.061	0.794	-13.847	-5.895	-0.306	8.344
94285.065	NaN	-3.152	1.489	9.478	1504.762	1504.029	1509.158	8.198	0.870	-13.817	-5.742	-0.306	8.421
94286.041	NaN	-3.152	1.489	9.478	1506.227	1503.297	1509.158	8.229	1.130	-13.786	-5.895	-0.459	8.344
94287.018	NaN	-3.152	1.489	9.489	1504.029	1503.297	1512.088	8.427	1.084	-13.740	-5.742	-0.383	8.268
94287.994	NaN	-3.152	1.489	9.478	1506.227	1504.029	1510.623	8.198	0.931	-13.756	-5.818	-0.383	8.421
94288.971	NaN	-3.163	1.489	9.478	1504.762	1502.564	1509.890	7.985	0.931	-13.817	-5.818	-0.459	8.498
94289.948	NaN	-3.152	1.500	9.467	1506.227	1504.029	1510.623	7.924	0.901	-13.557	-5.895	-0.383	8.268
94290.924	NaN	-3.163	1.500	9.467	1504.762	1503.297	1510.623	8.046	0.809	-13.466	-5.895	-0.459	8.421
94291.901	NaN	-3.163	1.511	9.467	1504.029	1502.564	1508.425	8.168	0.687	-13.557	-5.895	-0.459	8.344
94292.877	NaN	-3.152	1.500	9.478	1504.762	1503.297	1509.158	7.924	0.656	-13.511	-5.742	-0.383	8.421
94293.854	NaN	-3.163	1.489	9.478	1504.029	1503.297	1509.890	7.725	0.763	-13.649	-5.818	-0.230	8.344
94294.830	NaN	-3.163	1.489	9.467	1504.029	1502.564	1509.158	8.076	0.824	-13.908	-5.818	-0.306	8.421
94295.807	NaN	-3.163	1.489	9.467	1506.227	1503.297	1510.623	8.229	0.840	-13.802	-5.895	-0.306	8.421
94296.783	NaN	-3.163	1.489	9.467	1505.495	1504.029	1511.355	8.122	0.885	-13.756	-5.742	-0.383	8.498
94297.760	NaN	-3.163	1.489	9.467	1504.029	1502.564	1509.890	8.061	0.916	-13.603	-5.818	-0.306	8.421
94298.737	NaN	-3.152	1.489	9.478	1504.029	1502.564	1509.158	7.954	0.840	-13.496	-5.818	-0.383	8.421
94299.713	NaN	-3.152	1.500	9.467	1505.495	1504.762	1509.158	7.878	0.809	-13.756	-5.818	-0.230	8.421
94300.690	NaN	-3.163	1.500	9.467	1506.227	1503.297	1510.623	8.122	0.916	-13.847	-5.742	-0.459	8.421
94301.666	NaN	-3.163	1.500	9.467	1504.762	1503.297	1509.890	7.969	0.870	-13.496	-5.742	-0.383	8.268
94302.643	NaN	-3.163	1.500	9.478	1504.762	1504.029	1509.890	7.878	0.916	-13.374	-5.665	-0.383	8.421
94303.619	NaN	-3.152	1.489	9.467	1504.762	1502.564	1509.158	7.924	0.870	-13.405	-5.742	-0.306	8.498
94304.596	NaN	-3.130	1.489	9.457	1504.762	1504.029	1509.890	7.908	0.931	-13.527	-5.895	-0.459	8.344
94305.573	NaN	-3.141	1.478	9.457	1506.227	1503.297	1511.355	7.832	0.916	-13.573	-5.742	-0.230	8.421
94306.549	NaN	-3.141	1.478	9.446	1505.495	1502.564	1509.890	7.954	0.794	-13.435	-5.742	-0.383	8.421
94307.526	NaN	-3.130	1.500	9.457	1505.495	1504.762	1510.623	8.031	0.824	-13.603	-5.895	-0.306	8.344
94308.502	NaN	-3.141	1.489	9.467	1505.495	1502.564	1509.890	7.908	0.885	-13.557	-5.971	-0.383	8.191
94309.479	NaN	-3.130	1.500	9.478	1505.495	1504.029	1511.355	7.908	0.840	-13.466	-5.742	-0.383	8.344
94310.455	NaN	-3.141	1.489	9.478	1504.762	1503.297	1508.425	7.710	0.748	-13.328	-5.971	-0.306	8.421
94311.432	NaN	-3.141	1.489	9.467	1505.495	1503.297	1510.623	8.076	0.809	-13.557	-5.895	-0.459	8.268
94312.408	NaN	-3.130	1.489	9.467	1506.227	1504.029	1510.623	8.061	0.733	-13.679	-5.818	-0.230	8.421
94313.385	NaN	-3.141	1.489	9.467	1506.227	1503.297	1510.623	8.031	0.824	-13.756	-5.742	-0.306	8.344
94314.362	NaN	-3.141	1.489	9.467	1504.762	1504.029	1510.623	7.710	0.977	-13.435	-5.742	-0.306	8.421
94315.338	NaN	-3.152	1.489	9.457	1503.297	1504.029	1510.623	7.695	0.855	-13.344	-5.895	-0.383	8.421
94316.315	NaN	-3.152	1.478	9.446	1504.762	1504.762	1510.623	7.817	0.809	-13.359	-5.818	-0.383	8.344
94317.291	NaN	-3.152	1.489	9.457	1506.227	1504.029	1512.088	7.924	0.840	-13.206	-5.895	-0.306	8.344
94318.268	NaN	-3.163	1.500	9.457	1505.495	1504.029	1510.623	8.214	0.733	-13.328	-5.818	-0.306	8.344
94319.244	NaN	-3.163	1.500	9.457	1506.227	1504.029	1509.890	8.107	0.855	-13.313	-5.895	-0.383	8.498
94320.221	NaN	-3.163	1.489	9.467	1504.762	1504.029	1510.623	7.649	0.901	-13.374	-5.895	-0.536	8.498
94321.198	NaN	-3.163	1.489	9.467	1504.762	1502.564	1509.158	7.664	0.763	-13.573	-5.818	-0.306	8.191
94322.174	NaN	-3.152	1.500	9.478	1504.762	1504.029	1511.355	7.969	0.809	-13.481	-5.895	-0.383	8.344
94323.151	NaN	-3.152	1.500	9.457	1506.227	1504.762	1509.890	8.137	0.809	-13.237	-5.665	-0.306	8.268
94324.127	NaN	-3.152	1.500	9.457	1505.495	1503.297	1509.890	7.908	0.870	-13.221	-5.742	-0.306	8.574
94325.104	NaN	-3.152	1.500	9.457	1505.495	1503.297	1509.890	7.679	0.992	-13.374	-5.895	-0.459	8.421
94326.080	NaN	-3.141	1.500	9.467	1504.762	1503.297	1509.890	7.863	0.962	-13.389	-5.742	-0.383	8.498
94327.057	NaN	-3.141	1.500	9.467	1506.227	1504.029	1509.890	8.092	0.931	-13.313	-5.742	-0.306	8.498
94328.033	NaN	-3.141	1.489	9.446	1504.029	1504.762	1510.623	8.137	0.794	-13.313	-5.895	-0.153	8.344
94329.010	NaN	-3.152	1.478	9.446	1505.495	1503.297	1509.158	8.076	0.702	-13.298	-5.895	-0.306	8.344
94329.987	NaN	-3.141	1.489	9.457	1506.227	1504.029	1509.890	7.740	0.702	-13.282	-5.895	-0.306	8.498
94330.963	NaN	-3.152	1.500	9.446	1506.227	1503.297	1511.355	7.618	0.779	-13.313	-5.742	-0.383	8.344
94331.940	NaN	-3.174	1.489	9.446	1506.227	1504.029	1510.623	7.634	0.916	-13.298	-5.742	-0.306	8.574
94332.916	NaN	-3.163	1.500	9.435	1506.227	1503.297	1511.355	7.740	0.885	-13.206	-5.742	-0.306	8.498
94333.893	NaN	-3.174	1.478	9.413	1505.495	1504.762	1509.890	7.832	0.855	-13.252	-5.895	-0.383	8.268
94334.869	NaN	-3.163	1.478	9.413	1504.029	1503.297	1509.890	7.924	0.840	-13.160	-5.665	-0.230	8.344
94335.846	NaN	-3.152	1.478	9.424	1504.762	1503.297	1509.158	7.802	0.672	-13.221	-5.665	-0.230	8.421
94336.823	NaN	-3.141	1.489	9.435	1504.029	1503.297	1509.890	7.740	0.687	-13.313	-5.742	-0.383	8.268
94337.799	NaN	-3.152	1.478	9.435	1505.495	1503.297	1509.158	7.939	0.885	-13.160	-5.818	-0.383	8.268
94338.776	NaN	-3.141	1.478	9.435	1504.762	1504.029	1509.158	7.954	0.885	-13.160	-5.742	-0.306	8.268
94339.752	NaN	-3.141	1.467	9.457	1504.029	1502.564	1509.158	7.603	0.763	-13.160	-5.742	-0.383	8.498
94340.729	NaN	-3.130	1.478	9.457	1504.762	1503.297	1510.623	7.603	0.580	-13.115	-5.742	-0.383	8.344
94341.705	NaN	-3.130	1.478	9.457	1505.495	1503.297	1511.355	7.878	0.672	-13.038	-5.971	-0.459	8.268
94342.682	NaN	-3.141	1.478	9.435	1505.495	1502.564	1509.890	7.924	0.779	-13.130	-5.742	-0.383	8.421
94343.658	NaN	-3.152	1.489	9.435	1505.495	1505.495	1510.623	7.710	0.748	-13.099	-5.895	-0.383	8.344
94344.635	NaN	-3.141	1.489	9.435	1505.495	1504.029	1511.355	7.435	0.580	-12.992	-5.818	-0.306	8.344
94345.612	NaN	-3.141	1.478	9.435	1505.495	1504.029	1509.890	7.481	0.748	-13.099	-5.742	-0.383	8.421
94346.588	3736848540.120	-3.152	1.467	9.435	1506.227	1503.297	1509.890	7.603	0.855	-13.130	-5.971	-0.306	8.421
94347.565	NaN	-3.163	1.467	9.435	1505.495	1504.762	1509.890	7.817	0.641	-12.931	-5.971	-0.306	8.574
94348.541	NaN	-3.152	1.478	9.446	1506.960	1504.762	1509.890	7.924	0.718	-12.840	-5.971	-0.306	8.421
94349.518	NaN	-3.163	1.467	9.457	1504.762	1503.297	1510.623	7.725	0.870	-12.992	-5.742	-0.383	8.421
94350.494	NaN	-3.141	1.478	9.457	1504.029	1503.297	1510.623	7.802	0.855	-12.977	-5.818	-0.383	8.344
94351.471	NaN	-3.141	1.489	9.457	1504.762	1502.564	1509.890	7.908	0.824	-12.977	-5.818	-0.459	8.574
94352.448	NaN	-3.130	1.489	9.435	1504.762	1504.762	1509.890	7.847	0.840	-13.115	-5.589	-0.383	8.344
94353.424	NaN	-3.141	1.489	9.424	1505.495	1503.297	1509.890	7.878	0.855	-13.221	-5.895	-0.230	8.344
94354.401	NaN	-3.130	1.500	9.435	1504.762	1504.029	1510.623	7.908	0.840	-13.069	-5.818	-0.306	8.421
94355.377	NaN	-3.141	1.478	9.435	1504.762	1503.297	1510.623	7.847	0.931	-12.840	-5.895	-0.306	8.421
94356.354	NaN	-3.152	1.478	9.435	1504.762	1504.029	1510.623	7.634	0.870	-12.626	-5.742	-0.306	8.344
94357.330	NaN	-3.130	1.489	9.446	1504.762	1504.029	1509.158	7.450	0.779	-12.489	-5.818	-0.383	8.421
94358.307	NaN	-3.141	1.489	9.457	1505.495	1504.029	1511.355	7.450	0.855	-12.748	-5.818	-0.383	8.498
94359.283	NaN	-3.141	1.478	9.467	1505.495	1503.297	1510.623	7.450	0.840	-12.931	-5.895	-0.306	8.498
94360.260	NaN	-3.130	1.467	9.478	1504.762	1503.297	1509.158	7.450	0.718	-13.008	-5.818	-0.306	8.574
94361.237	NaN	-3.130	1.478	9.478	1505.495	1504.029	1511.355	7.725	0.824	-13.069	-5.818	-0.383	8.344
94362.213	NaN	-3.130	1.489	9.478	1505.495	1504.029	1511.355	7.954	0.885	-12.977	-5.742	-0.306	8.344
94363.190	NaN	-3.152	1.489	9.478	1504.029	1504.029	1509.890	7.756	1.069	-12.916	-5.818	-0.383	8.498
94364.166	NaN	-3.152	1.489	9.478	1504.029	1503.297	1510.623	7.618	0.992	-12.977	-5.818	-0.306	8.268
94365.143	NaN	-3.141	1.500	9.478	1504.762	1503.297	1509.890	7.481	0.931	-12.947	-5.895	-0.383	8.344
94368.073	NaN	-3.141	1.489	9.478	1505.495	1504.029	1509.890	7.710	0.870	-12.779	-5.818	-0.306	8.344
94369.049	NaN	-3.152	1.478	9.467	1504.762	1503.297	1509.890	7.786	0.870	-12.611	-5.818	-0.383	8.421
94370.026	NaN	-3.152	1.500	9.457	1506.227	1504.029	1510.623	7.863	0.855	-12.534	-5.818	-0.306	8.421
94371.002	NaN	-3.141	1.500	9.467	1505.495	1504.029	1512.088	7.710	0.901	-12.824	-5.818	-0.383	8.421
94371.979	NaN	-3.141	1.511	9.467	1506.227	1504.029	1511.355	7.542	0.824	-13.008	-5.818	-0.306	8.421
94372.955	NaN	-3.141	1.500	9.467	1504.762	1504.029	1509.890	7.466	0.748	-13.038	-5.742	-0.383	8.344
94373.932	NaN	-3.152	1.500	9.457	1505.495	1504.029	1510.623	7.557	0.779	-12.916	-5.895	-0.383	8.498
94374.908	NaN	-3.141	1.500	9.467	1506.227	1504.029	1510.623	7.542	0.809	-12.702	-5.665	-0.230	8.344
94375.885	NaN	-3.152	1.500	9.478	1506.227	1504.029	1509.158	7.664	0.962	-12.626	-5.818	-0.153	8.421
94376.862	NaN	-3.152	1.489	9.489	1505.495	1502.564	1510.623	7.679	0.931	-12.656	-5.818	-0.459	8.421
94377.838	NaN	-3.152	1.489	9.489	1505.495	1504.029	1510.623	7.573	0.702	-12.763	-5.895	-0.306	8.421
94378.815	NaN	-3.152	1.489	9.478	1505.495	1504.762	1510.623	7.496	0.733	-12.611	-5.818	-0.383	8.344
94379.791	NaN	-3.152	1.489	9.478	1505.495	1504.029	1511.355	7.511	1.023	-12.550	-5.742	-0.383	8.268
94380.768	NaN	-3.141	1.489	9.478	1505.495	1504.029	1509.890	7.466	0.947	-12.580	-5.895	-0.230	8.498
94381.744	NaN	-3.152	1.489	9.478	1504.762	1503.297	1509.158	7.389	0.916	-12.748	-5.971	-0.383	8.421
94382.721	NaN	-3.152	1.478	9.467	1504.029	1504.029	1510.623	7.374	0.947	-12.733	-5.742	-0.383	8.421
94383.698	NaN	-3.152	1.478	9.467	1506.227	1504.029	1510.623	7.221	0.992	-12.718	-5.818	-0.383	8.268
94384.674	NaN	-3.152	1.467	9.467	1505.495	1504.029	1510.623	7.252	1.069	-12.779	-5.818	-0.383	8.421
94385.651	NaN	-3.152	1.467	9.457	1504.029	1503.297	1509.890	7.252	0.962	-12.855	-5.895	-0.383	8.344
94386.627	NaN	-3.141	1.478	9.457	1505.495	1503.297	1509.158	7.282	0.916	-12.901	-5.742	-0.306	8.498
94387.604	NaN	-3.152	1.478	9.457	1504.029	1502.564	1509.158	7.344	0.809	-12.962	-5.895	-0.306	8.344
94388.580	NaN	-3.141	1.500	9.467	1505.495	1503.297	1509.890	7.542	0.733	-12.733	-5.818	-0.383	8.421
94389.557	NaN	-3.152	1.489	9.467	1505.495	1504.029	1510.623	7.511	0.718	-12.443	-5.818	-0.383	8.268
94390.533	NaN	-3.141	1.489	9.467	1504.762	1504.029	1510.623	7.389	0.626	-12.382	-5.971	-0.383	8.421
94391.510	NaN	-3.152	1.478	9.457	1504.029	1503.297	1509.158	7.344	0.611	-12.504	-5.895	-0.306	8.574
94392.487	NaN	-3.152	1.478	9.457	1504.762	1503.297	1509.158	7.389	0.947	-12.687	-5.818	-0.306	8.268
94393.463	NaN	-3.152	1.489	9.446	1504.029	1503.297	1509.890	7.313	1.099	-12.763	-5.818	-0.383	8.421
94394.440	NaN	-3.152	1.489	9.457	1506.227	1503.297	1509.158	7.359	0.779	-12.840	-5.818	-0.230	8.421
94395.416	NaN	-3.152	1.500	9.467	1504.762	1503.297	1509.158	7.527	0.901	-12.779	-5.742	-0.383	8.344
94396.393	NaN	-3.152	1.500	9.457	1505.495	1503.297	1509.890	7.511	0.809	-12.641	-5.742	-0.383	8.421
94397.369	NaN	-3.141	1.500	9.467	1506.227	1504.762	1512.088	7.191	0.840	-12.641	-5.818	-0.306	8.421
94398.346	NaN	-3.152	1.511	9.457	1505.495	1504.029	1511.355	7.099	0.840	-12.718	-5.742	-0.383	8.268
94399.323	NaN	-3.152	1.511	9.467	1506.227	1502.564	1509.890	7.221	0.824	-12.733	-5.742	-0.459	8.421
94400.299	NaN	-3.163	1.500	9.467	1505.495	1503.297	1509.158	7.221	0.916	-12.489	-5.818	-0.306	8.574
94401.276	NaN	-3.163	1.489	9.457	1504.762	1502.564	1509.890	7.130	0.901	-12.366	-5.971	-0.459	8.421
94402.252	NaN	-3.152	1.500	9.446	1505.495	1504.029	1509.890	7.221	0.870	-12.504	-5.818	-0.383	8.574
94403.229	NaN	-3.141	1.500	9.446	1505.495	1504.029	1510.623	7.527	0.779	-12.580	-5.818	-0.306	8.268
94404.205	NaN	-3.141	1.500	9.446	1505.495	1503.297	1509.890	7.405	0.656	-12.702	-5.818	-0.459	8.498
94405.182	NaN	-3.152	1.511	9.446	1505.495	1502.564	1510.623	7.206	0.809	-12.534	-5.818	-0.306	8.498
94406.158	NaN	-3.141	1.511	9.457	1505.495	1504.762	1511.355	7.282	0.763	-12.412	-5.818	-0.383	8.421
94407.135	NaN	-3.141	1.511	9.467	1505.495	1505.495	1511.355	7.252	0.656	-12.351	-5.742	-0.459	8.421
94408.112	NaN	-3.152	1.500	9.467	1506.227	1504.029	1509.890	7.206	0.947	-12.504	-5.742	-0.230	8.268
94409.088	NaN	-3.152	1.500	9.478	1505.495	1504.029	1510.623	7.160	1.023	-12.595	-5.818	-0.459	8.344
94410.065	NaN	-3.152	1.489	9.467	1506.227	1504.762	1511.355	7.115	1.069	-12.504	-5.818	-0.459	8.344
94411.041	NaN	-3.152	1.500	9.457	1506.227	1504.029	1510.623	7.405	1.115	-12.550	-5.818	-0.383	8.344
94412.018	NaN	-3.152	1.489	9.457	1505.495	1503.297	1510.623	7.450	0.977	-12.656	-5.895	-0.459	8.498
94412.994	NaN	-3.163	1.489	9.457	1505.495	1504.029	1509.158	7.374	0.824	-12.382	-5.818	-0.383	8.421
94413.971	NaN	-3.163	1.478	9.457	1504.762	1504.029	1511.355	7.313	0.748	-12.427	-5.895	-0.383	8.268
94414.948	NaN	-3.141	1.500	9.457	1506.227	1504.029	1511.355	7.145	0.824	-12.504	-5.818	-0.383	8.498
94415.924	NaN	-3.152	1.489	9.457	1505.495	1504.029	1510.623	7.298	0.916	-12.336	-5.818	-0.383	8.344
94416.901	NaN	-3.141	1.500	9.467	1504.762	1504.029	1511.355	7.160	0.718	-12.534	-5.742	-0.383	8.421
94417.877	NaN	-3.141	1.500	9.467	1504.762	1504.762	1509.890	6.947	0.718	-12.473	-5.818	-0.306	8.344
94418.854	NaN	-3.152	1.489	9.457	1505.495	1504.029	1511.355	7.099	0.763	-12.290	-5.818	-0.306	8.421
94419.830	NaN	-3.152	1.489	9.457	1504.029	1502.564	1508.425	7.221	0.885	-12.305	-5.742	-0.383	8.344
94420.807	NaN	-3.141	1.489	9.457	1503.297	1503.297	1509.890	7.206	0.840	-12.366	-5.895	-0.459	8.344
94421.783	NaN	-3.141	1.489	9.457	1504.029	1502.564	1509.890	7.206	0.733	-12.336	-5.818	-0.459	8.268
94422.760	NaN	-3.152	1.489	9.467	1504.762	1504.029	1510.623	7.115	0.748	-12.443	-5.742	-0.383	8.498
94423.737	NaN	-3.152	1.489	9.457	1505.495	1502.564	1509.890	7.099	0.901	-12.443	-5.665	-0.383	8.268
94424.713	NaN	-3.141	1.489	9.467	1505.495	1504.029	1510.623	6.947	0.840	-12.504	-5.742	-0.459	8.344
94425.690	NaN	-3.163	1.500	9.457	1505.495	1503.297	1510.623	6.931	0.855	-12.534	-5.818	-0.383	8.498
94426.666	NaN	-3.163	1.478	9.467	1505.495	1503.297	1509.158	7.023	0.885	-12.504	-5.895	-0.383	8.344
94427.643	NaN	-3.152	1.489	9.457	1505.495	1503.297	1509.890	7.267	0.809	-12.214	-5.895	-0.306	8.421
94428.619	NaN	-3.141	1.489	9.467	1504.762	1501.832	1510.623	7.145	0.794	-12.153	-5.742	-0.306	8.191
94429.596	NaN	-3.141	1.500	9.467	1505.495	1504.029	1509.890	6.885	0.901	-12.168	-5.818	-0.459	8.574
94430.573	NaN	-3.141	1.500	9.478	1505.495	1504.029	1509.890	6.840	0.916	-12.290	-5.818	-0.230	8.344
94431.549	NaN	-3.152	1.500	9.489	1505.495	1503.297	1510.623	6.962	0.733	-12.366	-5.895	-0.306	8.421
94432.526	NaN	-3.141	1.500	9.478	1506.227	1504.762	1511.355	7.282	0.748	-12.412	-5.818	-0.383	8.421
94433.502	NaN	-3.141	1.500	9.478	1504.762	1504.029	1509.890	7.221	0.824	-12.305	-5.742	-0.306	8.498
94434.479	NaN	-3.141	1.489	9.478	1504.029	1504.029	1510.623	7.206	0.641	-12.153	-5.895	-0.153	8.498
94435.455	NaN	-3.152	1.489	9.478	1504.029	1504.029	1509.158	7.008	0.672	-12.046	-5.818	-0.383	8.421
94436.432	NaN	-3.152	1.478	9.478	1504.762	1504.029	1509.890	6.855	0.702	-12.000	-5.895	-0.383	8.421
94437.408	NaN	-3.141	1.500	9.478	1505.495	1504.762	1509.890	6.977	0.702	-12.031	-5.971	-0.230	8.421
94438.385	NaN	-3.152	1.489	9.467	1505.495	1503.297	1509.158	7.130	0.763	-12.198	-5.742	-0.383	8.421
94439.362	NaN	-3.130	1.522	9.467	1504.762	1503.297	1509.158	7.359	0.702	-12.321	-5.971	-0.306	8.421
94440.338	NaN	-3.130	1.511	9.467	1505.495	1504.029	1510.623	7.176	0.687	-12.336	-5.895	-0.230	8.498
94441.315	NaN	-3.130	1.511	9.467	1506.227	1505.495	1509.890	6.931	0.656	-12.092	-5.818	-0.306	8.344
94442.291	NaN	-3.130	1.522	9.478	1504.029	1504.029	1511.355	6.947	0.733	-12.229	-5.818	-0.230	8.344
94443.268	NaN	-3.141	1.500	9.478	1504.762	1504.029	1510.623	6.931	0.885	-12.275	-5.895	-0.230	8.344
94444.244	NaN	-3.141	1.500	9.478	1504.762	1504.762	1510.623	7.008	0.885	-12.412	-5.742	-0.459	8.421
94445.221	NaN	-3.141	1.500	9.467	1504.762	1503.297	1509.890	7.069	0.779	-12.382	-5.895	-0.383	8.344
94446.198	NaN	-3.141	1.511	9.478	1505.495	1504.762	1511.355	7.130	0.809	-12.183	-5.818	-0.459	8.344
94447.174	NaN	-3.152	1.511	9.478	1505.495	1504.029	1510.623	7.053	0.824	-12.031	-5.818	-0.306	8.498
94448.151	NaN	-3.141	1.500	9.467	1505.495	1504.029	1511.355	7.023	0.763	-12.015	-5.818	-0.383	8.344
94449.127	NaN	-3.141	1.489	9.478	1504.762	1503.297	1510.623	6.931	0.901	-12.061	-5.742	-0.383	8.268
94450.104	NaN	-3.141	1.489	9.478	1505.495	1504.029	1510.623	6.687	0.916	-12.061	-5.742	-0.383	8.421
94451.080	NaN	-3.130	1.500	9.478	1505.495	1504.029	1510.623	6.672	0.901	-12.260	-5.818	-0.306	8.421
94452.057	NaN	-3.130	1.511	9.478	1505.495	1504.029	1509.890	6.809	0.840	-12.214	-5.818	-0.459	8.498
94453.033	NaN	-3.130	1.500	9.478	1505.495	1504.029	1510.623	6.840	0.794	-12.183	-5.895	-0.383	8.344
94454.010	NaN	-3.152	1.489	9.478	1504.762	1503.297	1509.890	6.931	0.718	-12.092	-5.742	-0.306	8.498
