Timestamp	PC Timestamp	Low Noise Accelerometer X	Low Noise Accelerometer Y	Low Noise Accelerometer Z	Int A12	Int A13	Int A14	Gyroscope X	Gyroscope Y	Gyroscope Z	Wide Range Accelerometer X	Wide Range Accelerometer Y	Wide Range Accelerometer Z
449362.213	NaN	-3.522	1.185	9.152	1503.297	1504.762	1510.623	-7.420	-0.321	6.687	-6.201	-0.766	8.115
449363.190	NaN	-3.533	1.163	9.141	1504.029	1504.029	1509.158	-7.435	-0.260	6.687	-6.278	-0.612	8.038
449364.166	NaN	-3.522	1.174	9.141	1504.762	1505.495	1510.623	-7.405	-0.198	6.779	-6.278	-0.919	8.038
449365.143	NaN	-3.522	1.185	9.141	1505.495	1504.029	1510.623	-7.267	-0.198	6.763	-6.201	-0.842	8.038
449366.119	NaN	-3.522	1.174	9.152	1504.762	1504.762	1509.890	-7.252	-0.214	6.595	-6.124	-0.689	8.038
449367.096	NaN	-3.522	1.174	9.152	1504.029	1504.029	1509.158	-7.282	-0.229	6.458	-6.278	-0.689	8.115
449368.073	NaN	-3.533	1.163	9.163	1505.495	1504.762	1509.890	-7.130	-0.260	6.672	-6.354	-0.689	8.115
449369.049	NaN	-3.533	1.174	9.163	1503.297	1504.029	1509.890	-7.145	-0.183	6.656	-6.278	-0.689	8.038
449370.026	NaN	-3.522	1.174	9.174	1503.297	1504.029	1509.158	-7.053	-0.183	6.733	-6.201	-0.766	8.038
449371.002	NaN	-3.522	1.174	9.163	1505.495	1504.029	1510.623	-7.252	-0.198	6.656	-6.201	-0.459	8.115
449371.979	NaN	-3.533	1.174	9.163	1504.029	1503.297	1509.158	-7.298	-0.122	6.733	-6.278	-0.689	8.115
449372.955	NaN	-3.522	1.185	9.163	1499.634	1505.495	1509.890	-7.420	-0.137	6.779	-6.201	-0.612	8.191
449373.932	NaN	-3.533	1.185	9.163	1504.762	1504.029	1510.623	-7.359	-0.397	6.672	-6.278	-0.536	8.038
449374.908	NaN	-3.522	1.185	9.163	1504.029	1504.762	1509.890	-7.282	-0.443	6.687	-6.278	-0.689	8.115
449375.885	NaN	-3.522	1.185	9.163	1504.762	1504.762	1509.158	-7.237	-0.366	6.763	-6.278	-0.612	8.038
449376.862	NaN	-3.533	1.185	9.141	1504.029	1504.029	1509.158	-7.344	-0.153	6.733	-6.201	-0.689	7.962
449377.838	NaN	-3.533	1.185	9.152	1504.762	1504.029	1509.890	-7.282	-0.061	6.748	-6.354	-0.766	8.038
449378.815	NaN	-3.533	1.185	9.141	1504.029	1504.029	1509.158	-7.542	-0.229	6.672	-6.278	-0.766	8.115
449379.791	NaN	-3.522	1.185	9.163	1504.029	1503.297	1509.158	-7.527	-0.321	6.641	-6.201	-0.689	8.115
449380.768	NaN	-3.522	1.185	9.163	1504.029	1503.297	1509.158	-7.420	-0.382	6.534	-6.201	-0.689	8.191
449381.744	NaN	-3.511	1.185	9.163	1502.564	1503.297	1510.623	-7.313	-0.382	6.443	-6.278	-0.612	7.962
449382.721	NaN	-3.511	1.185	9.174	1504.762	1504.762	1511.355	-7.573	-0.198	6.733	-6.201	-0.612	7.962
449383.698	NaN	-3.511	1.185	9.174	1504.762	1504.029	1509.158	-7.496	-0.183	6.779	-6.124	-0.689	8.115
449384.674	NaN	-3.522	1.185	9.163	1504.762	1504.029	1509.158	-7.298	-0.122	6.718	-6.278	-0.689	8.191
449385.651	NaN	-3.522	1.174	9.152	1505.495	1504.029	1509.158	-7.145	-0.321	6.641	-6.124	-0.766	8.038
449386.627	NaN	-3.522	1.174	9.152	1505.495	1504.762	1509.890	-7.084	-0.382	6.656	-6.354	-0.689	8.115
449387.604	NaN	-3.511	1.185	9.141	1504.029	1505.495	1509.890	-7.176	-0.321	6.809	-6.124	-0.689	8.038
449388.580	NaN	-3.511	1.185	9.141	1505.495	1504.762	1510.623	-7.084	-0.229	6.656	-6.201	-0.689	8.038
449389.557	NaN	-3.533	1.174	9.152	1504.029	1504.029	1509.890	-7.084	-0.366	6.489	-6.278	-0.612	8.038
449390.533	NaN	-3.533	1.174	9.152	1505.495	1504.762	1509.890	-7.344	-0.351	6.565	-6.201	-0.612	8.115
449391.510	NaN	-3.522	1.185	9.152	1504.762	1504.762	1509.158	-7.557	-0.351	6.504	-6.354	-0.766	8.191
449392.487	NaN	-3.522	1.185	9.163	1503.297	1504.029	1510.623	-7.557	-0.382	6.595	-6.278	-0.766	8.115
449393.463	NaN	-3.522	1.185	9.152	1503.297	1504.029	1509.890	-7.634	-0.489	6.565	-6.278	-0.766	8.038
449394.440	NaN	-3.533	1.185	9.163	1504.762	1504.029	1509.158	-7.679	-0.260	6.656	-6.201	-0.689	8.038
449395.416	NaN	-3.511	1.185	9.163	1504.762	1504.762	1510.623	-7.679	-0.198	6.763	-6.354	-0.842	8.191
449396.393	NaN	-3.522	1.174	9.163	1505.495	1503.297	1509.158	-7.511	-0.229	6.901	-6.201	-0.689	8.038
449397.369	NaN	-3.500	1.185	9.174	1504.762	1503.297	1509.890	-7.328	-0.275	6.840	-6.278	-0.842	7.885
449398.346	NaN	-3.511	1.174	9.174	1504.762	1503.297	1509.158	-7.267	-0.336	6.672	-6.201	-0.689	7.962
449399.323	NaN	-3.511	1.185	9.174	1504.762	1504.762	1509.890	-7.206	-0.214	6.611	-6.201	-0.842	7.885
449400.299	NaN	-3.522	1.185	9.185	1504.029	1503.297	1509.890	-7.466	-0.382	6.672	-6.354	-0.766	8.268
449401.276	NaN	-3.511	1.185	9.185	1504.029	1503.297	1510.623	-7.725	-0.382	6.748	-6.201	-0.689	7.885
449402.252	NaN	-3.511	1.185	9.185	1504.029	1504.762	1509.890	-7.496	-0.244	6.550	-6.201	-0.612	8.115
449403.229	NaN	-3.522	1.185	9.174	1504.762	1504.029	1509.890	-7.145	-0.260	6.504	-6.278	-0.766	8.038
449404.205	NaN	-3.522	1.196	9.174	1504.762	1504.762	1509.890	-7.176	-0.107	6.534	-6.201	-0.689	7.962
449405.182	NaN	-3.522	1.185	9.163	1504.029	1504.029	1509.890	-7.557	-0.107	6.550	-6.278	-0.766	8.115
449406.158	NaN	-3.522	1.196	9.163	1504.762	1504.029	1509.890	-7.771	-0.107	6.565	-6.278	-0.612	7.962
449407.135	NaN	-3.522	1.185	9.152	1503.297	1504.029	1509.890	-7.527	-0.214	6.718	-6.431	-0.689	8.038
449408.112	NaN	-3.533	1.196	9.152	1504.029	1504.762	1509.158	-7.267	-0.305	6.641	-6.201	-0.766	8.115
449409.088	NaN	-3.522	1.196	9.152	1505.495	1504.029	1512.821	-7.176	-0.305	6.489	-6.201	-0.689	8.115
449410.065	NaN	-3.522	1.196	9.152	1504.029	1504.029	1510.623	-7.191	-0.336	6.534	-6.201	-0.536	8.115
449411.041	NaN	-3.533	1.185	9.152	1504.029	1504.762	1510.623	-7.511	-0.305	6.534	-6.201	-0.689	8.038
449412.018	NaN	-3.543	1.185	9.152	1504.029	1504.029	1509.890	-7.481	-0.198	6.458	-6.354	-0.612	8.115
449412.994	NaN	-3.533	1.185	9.152	1504.762	1504.762	1510.623	-7.527	-0.244	6.656	-6.201	-0.766	8.038
449413.971	NaN	-3.533	1.185	9.152	1504.762	1504.762	1510.623	-7.573	-0.290	6.626	-6.354	-0.689	8.115
449414.948	NaN	-3.543	1.185	9.152	1504.762	1504.029	1509.158	-7.664	-0.427	6.626	-6.278	-0.612	8.268
449415.924	NaN	-3.543	1.185	9.152	1503.297	1503.297	1508.425	-7.511	-0.321	6.565	-6.354	-0.612	8.038
449416.901	NaN	-3.543	1.185	9.163	1504.029	1504.762	1509.158	-7.435	-0.198	6.534	-6.278	-0.612	8.038
449417.877	NaN	-3.522	1.185	9.163	1504.762	1504.762	1510.623	-7.435	-0.122	6.489	-6.278	-0.766	7.962
449418.854	NaN	-3.511	1.185	9.163	1505.495	1504.762	1511.355	-7.344	-0.214	6.580	-6.354	-0.842	8.191
449419.830	NaN	-3.511	1.185	9.174	1504.029	1504.762	1509.890	-7.313	-0.214	6.595	-6.201	-0.689	7.885
449420.807	NaN	-3.522	1.185	9.174	1503.297	1504.029	1510.623	-7.405	-0.183	6.519	-6.354	-0.689	8.344
449421.783	NaN	-3.533	1.185	9.163	1505.495	1504.762	1510.623	-7.511	-0.137	6.687	-6.201	-0.612	8.038
449422.760	NaN	-3.522	1.174	9.174	1504.762	1504.029	1510.623	-7.557	-0.122	6.580	-6.354	-0.689	7.962
449423.737	NaN	-3.522	1.174	9.174	1504.762	1504.762	1510.623	-7.557	-0.504	6.718	-6.278	-0.612	8.038
449424.713	NaN	-3.533	1.174	9.174	1504.762	1504.762	1510.623	-7.588	-0.611	6.672	-6.278	-0.689	8.038
449425.690	NaN	-3.543	1.163	9.163	1504.762	1504.029	1510.623	-7.496	-0.382	6.489	-6.201	-0.766	7.962
449426.666	NaN	-3.511	1.174	9.163	1504.762	1504.029	1509.890	-7.344	-0.290	6.412	-6.431	-0.766	8.191
449427.643	NaN	-3.533	1.185	9.163	1504.029	1504.762	1509.158	-7.252	-0.076	6.443	-6.201	-0.689	8.115
449428.619	NaN	-3.522	1.174	9.174	1504.029	1504.762	1509.890	-7.389	-0.153	6.489	-6.278	-0.689	8.191
449429.596	NaN	-3.522	1.174	9.174	1503.297	1504.029	1509.890	-7.420	-0.168	6.626	-6.354	-0.766	8.038
449430.573	NaN	-3.522	1.163	9.185	1505.495	1504.029	1509.158	-7.328	-0.107	6.641	-6.201	-0.766	8.038
449431.549	NaN	-3.511	1.174	9.185	1504.762	1504.762	1511.355	-7.298	-0.244	6.626	-6.431	-0.689	8.038
449432.526	NaN	-3.511	1.174	9.174	1504.029	1504.029	1509.158	-7.527	-0.290	6.595	-6.124	-0.612	8.191
449433.502	NaN	-3.511	1.174	9.163	1504.029	1504.029	1509.890	-7.496	-0.153	6.672	-6.278	-0.689	8.038
449434.479	NaN	-3.522	1.163	9.152	1503.297	1504.762	1510.623	-7.344	-0.183	6.641	-6.278	-0.536	8.115
449435.455	NaN	-3.522	1.174	9.152	1504.762	1504.029	1510.623	-7.099	-0.260	6.534	-6.354	-0.689	8.115
449436.432	NaN	-3.522	1.174	9.163	1504.029	1504.762	1510.623	-7.359	-0.229	6.656	-6.278	-0.536	8.115
449437.408	NaN	-3.522	1.163	9.163	1504.029	1504.029	1509.890	-7.527	-0.260	6.901	-6.507	-0.536	8.038
449438.385	NaN	-3.522	1.163	9.152	1505.495	1503.297	1509.158	-7.542	-0.321	6.672	-6.431	-0.842	8.038
449439.362	NaN	-3.522	1.163	9.141	1504.762	1504.762	1509.890	-7.603	-0.122	6.336	-6.278	-0.612	8.038
449440.338	NaN	-3.511	1.163	9.141	1504.029	1503.297	1509.158	-7.511	-0.076	6.427	-6.201	-0.689	7.962
449441.315	NaN	-3.500	1.185	9.163	1503.297	1503.297	1509.890	-7.359	-0.076	6.427	-6.278	-0.766	8.115
449442.291	NaN	-3.522	1.174	9.152	1504.029	1504.762	1510.623	-7.298	-0.214	6.519	-6.354	-0.766	8.038
449443.268	NaN	-3.522	1.174	9.141	1503.297	1503.297	1509.158	-7.435	-0.305	6.702	-6.278	-0.766	8.038
449444.244	NaN	-3.511	1.174	9.163	1504.762	1503.297	1509.890	-7.679	-0.244	6.702	-6.048	-0.842	8.038
449445.221	NaN	-3.533	1.174	9.163	1504.029	1503.297	1509.890	-7.588	-0.183	6.565	-6.278	-0.612	8.191
449446.198	NaN	-3.533	1.163	9.152	1503.297	1504.029	1509.158	-7.435	-0.137	6.427	-6.201	-0.689	7.962
449447.174	NaN	-3.533	1.185	9.152	1504.029	1504.029	1509.890	-7.221	-0.092	6.473	-6.278	-0.766	8.038
449448.151	NaN	-3.533	1.163	9.152	1503.297	1504.029	1510.623	-7.389	0.015	6.489	-6.354	-0.689	7.962
449449.127	NaN	-3.522	1.163	9.163	1504.029	1504.029	1509.158	-7.542	-0.122	6.550	-6.201	-0.766	8.038
449450.104	NaN	-3.533	1.163	9.152	1504.762	1503.297	1508.425	-7.557	-0.290	6.534	-6.201	-0.612	8.115
449451.080	NaN	-3.522	1.174	9.152	1503.297	1504.029	1509.890	-7.328	-0.382	6.397	-6.278	-0.612	8.115
449452.057	NaN	-3.522	1.174	9.163	1504.762	1504.029	1509.890	-7.267	-0.305	6.519	-6.354	-0.842	8.038
449453.033	NaN	-3.533	1.174	9.152	1502.564	1503.297	1509.890	-7.389	-0.275	6.504	-6.278	-0.689	8.115
449454.010	NaN	-3.522	1.174	9.152	1505.495	1504.029	1509.890	-7.527	-0.229	6.702	-6.278	-0.766	8.038
449454.987	NaN	-3.533	1.174	9.152	1504.762	1504.029	1510.623	-7.298	-0.092	6.718	-6.278	-0.612	7.962
449455.963	NaN	-3.533	1.174	9.163	1504.029	1503.297	1509.158	-7.298	-0.061	6.382	-6.124	-0.689	8.038
449456.940	NaN	-3.533	1.185	9.163	1504.762	1503.297	1509.890	-7.328	-0.107	6.275	-6.278	-0.766	8.038
449457.916	NaN	-3.533	1.174	9.174	1505.495	1504.762	1510.623	-7.405	-0.168	6.504	-6.278	-0.612	8.038
449458.893	NaN	-3.522	1.185	9.185	1504.762	1504.029	1510.623	-7.481	-0.214	6.672	-6.278	-0.689	8.115
449459.869	NaN	-3.522	1.185	9.174	1504.029	1504.029	1509.890	-7.511	-0.214	6.733	-6.278	-0.689	7.962
449460.846	NaN	-3.522	1.185	9.185	1504.029	1503.297	1510.623	-7.557	-0.214	6.595	-6.201	-0.842	8.268
449461.823	NaN	-3.533	1.174	9.185	1504.762	1503.297	1509.890	-7.466	-0.122	6.565	-6.278	-0.689	8.115
449462.799	NaN	-3.511	1.185	9.185	1504.762	1504.029	1509.890	-7.389	-0.153	6.580	-6.201	-0.689	8.038
449463.776	NaN	-3.522	1.174	9.174	1504.762	1504.029	1509.890	-7.221	-0.168	6.534	-6.278	-0.612	8.038
449464.752	NaN	-3.511	1.174	9.174	1503.297	1504.029	1510.623	-7.115	-0.168	6.412	-6.201	-0.766	8.115
449465.729	NaN	-3.522	1.174	9.174	1504.762	1502.564	1511.355	-7.267	-0.153	6.366	-6.278	-0.689	8.115
449466.705	NaN	-3.522	1.174	9.174	1501.832	1502.564	1508.425	-7.221	-0.061	6.595	-6.124	-0.689	8.115
449467.682	NaN	-3.511	1.185	9.174	1504.029	1504.029	1509.890	-7.298	-0.092	6.595	-6.278	-0.612	8.191
449468.658	NaN	-3.511	1.174	9.141	1503.297	1504.762	1509.890	-7.237	-0.031	6.351	-6.278	-0.689	7.962
449469.635	NaN	-3.511	1.174	9.152	1504.029	1503.297	1509.158	-7.115	-0.153	6.183	-6.431	-0.612	8.191
449470.612	NaN	-3.522	1.174	9.152	1504.029	1504.762	1511.355	-7.145	-0.229	6.489	-6.124	-0.689	8.115
449471.588	NaN	-3.522	1.174	9.152	1504.029	1502.564	1509.890	-7.282	-0.351	6.626	-6.201	-0.766	8.115
449472.565	NaN	-3.500	1.185	9.174	1504.029	1504.029	1510.623	-7.237	-0.244	6.656	-6.278	-0.766	7.962
449473.541	NaN	-3.511	1.174	9.174	1504.029	1504.029	1509.890	-7.099	-0.122	6.565	-6.278	-0.766	7.962
449474.518	NaN	-3.522	1.163	9.163	1503.297	1504.029	1510.623	-7.176	-0.061	6.534	-6.278	-0.689	8.115
449475.494	NaN	-3.533	1.163	9.152	1504.029	1504.762	1509.890	-7.527	-0.015	6.687	-6.278	-0.689	8.115
449476.471	NaN	-3.522	1.174	9.163	1504.029	1504.762	1511.355	-7.420	-0.137	6.641	-6.201	-0.612	7.885
449477.448	NaN	-3.522	1.174	9.152	1505.495	1504.029	1510.623	-7.038	-0.214	6.580	-6.124	-0.766	7.962
449478.424	NaN	-3.533	1.174	9.152	1503.297	1503.297	1509.890	-7.084	-0.046	6.504	-6.278	-0.689	8.038
449479.401	NaN	-3.533	1.174	9.141	1504.029	1504.762	1509.158	-7.481	0.046	6.504	-6.201	-0.612	8.115
449480.377	NaN	-3.522	1.185	9.163	1505.495	1504.029	1511.355	-7.344	0.031	6.443	-6.201	-0.689	8.038
449481.354	NaN	-3.522	1.174	9.163	1504.029	1504.029	1509.890	-7.267	-0.168	6.351	-6.201	-0.689	8.115
449482.330	NaN	-3.522	1.174	9.152	1505.495	1504.029	1509.890	-7.374	-0.336	6.458	-6.201	-0.689	8.038
449483.307	NaN	-3.533	1.174	9.152	1504.762	1504.029	1509.158	-7.420	-0.198	6.519	-6.201	-0.689	8.115
449484.283	NaN	-3.533	1.185	9.163	1504.762	1504.762	1510.623	-7.206	-0.229	6.382	-6.124	-0.766	7.962
449485.260	NaN	-3.533	1.185	9.163	1504.762	1504.762	1511.355	-7.221	-0.137	6.427	-6.048	-0.612	7.962
449486.237	NaN	-3.543	1.174	9.174	1504.029	1504.762	1510.623	-7.069	-0.061	6.534	-6.278	-0.689	8.038
449487.213	NaN	-3.543	1.163	9.174	1504.029	1503.297	1509.890	-7.145	-0.229	6.611	-6.278	-0.689	8.115
449488.190	NaN	-3.543	1.174	9.174	1504.029	1504.029	1509.158	-7.374	-0.183	6.489	-6.354	-0.612	8.115
449489.166	NaN	-3.533	1.174	9.174	1504.762	1505.495	1510.623	-7.557	0.092	6.397	-6.201	-0.689	8.115
449490.143	NaN	-3.533	1.185	9.163	1504.762	1504.029	1510.623	-7.313	-0.076	6.611	-6.278	-0.689	8.191
449491.119	NaN	-3.543	1.185	9.163	1504.029	1504.762	1510.623	-7.344	-0.092	6.565	-6.201	-0.689	8.115
449492.096	NaN	-3.543	1.185	9.141	1504.029	1504.029	1509.890	-7.573	-0.092	6.519	-6.201	-0.612	8.038
449493.073	NaN	-3.543	1.185	9.141	1505.495	1504.762	1509.158	-7.573	-0.061	6.382	-6.278	-0.536	8.115
449494.049	NaN	-3.533	1.185	9.141	1504.762	1504.762	1511.355	-7.496	0.015	6.519	-6.201	-0.612	7.962
449495.026	NaN	-3.522	1.185	9.152	1504.762	1504.762	1511.355	-7.481	-0.092	6.611	-6.124	-0.612	7.962
449496.002	NaN	-3.522	1.174	9.130	1505.495	1504.029	1509.158	-7.511	-0.107	6.656	-6.201	-0.689	8.115
449496.979	NaN	-3.522	1.174	9.141	1503.297	1504.029	1509.890	-7.359	-0.168	6.687	-6.278	-0.689	8.115
449497.955	NaN	-3.511	1.174	9.152	1504.029	1505.495	1510.623	-7.603	-0.137	6.519	-6.201	-0.612	8.038
449498.932	NaN	-3.511	1.185	9.141	1504.029	1504.029	1509.890	-7.618	-0.015	6.366	-6.278	-0.689	7.962
449499.908	NaN	-3.522	1.185	9.141	1504.762	1504.762	1509.890	-7.435	0.076	6.550	-6.201	-0.766	8.038
449500.885	NaN	-3.522	1.174	9.152	1504.029	1503.297	1509.890	-7.313	-0.031	6.718	-6.278	-0.536	8.038
449501.862	NaN	-3.543	1.163	9.141	1504.029	1504.762	1510.623	-7.160	-0.336	6.580	-6.431	-0.842	8.038
449502.838	NaN	-3.533	1.174	9.141	1504.762	1504.029	1510.623	-7.282	-0.366	6.565	-6.201	-0.689	8.115
449503.815	NaN	-3.522	1.185	9.152	1504.029	1504.029	1510.623	-7.115	-0.321	6.611	-6.201	-0.612	8.115
449504.791	NaN	-3.522	1.185	9.152	1504.029	1504.029	1510.623	-7.145	-0.198	6.382	-6.278	-0.612	8.038
449505.768	NaN	-3.522	1.185	9.152	1502.564	1503.297	1508.425	-7.496	-0.168	6.305	-6.201	-0.689	8.038
449506.744	NaN	-3.522	1.185	9.152	1504.762	1504.029	1511.355	-7.847	-0.031	6.351	-6.278	-0.689	7.962
449507.721	NaN	-3.522	1.185	9.152	1503.297	1504.029	1509.890	-7.634	0.153	6.611	-6.201	-0.766	7.962
449508.698	NaN	-3.522	1.185	9.152	1505.495	1504.029	1509.890	-7.496	-0.076	6.626	-6.278	-0.689	8.191
449509.674	NaN	-3.511	1.185	9.163	1504.762	1504.029	1510.623	-7.481	-0.061	6.489	-6.278	-0.612	8.038
449510.651	NaN	-3.522	1.174	9.163	1504.029	1504.029	1508.425	-7.481	0.122	6.427	-6.201	-0.689	8.038
449511.627	NaN	-3.522	1.185	9.163	1504.762	1504.762	1510.623	-7.221	0.076	6.504	-6.278	-0.689	8.038
449512.604	NaN	-3.511	1.185	9.174	1504.029	1504.762	1510.623	-7.267	-0.046	6.626	-6.201	-0.612	8.038
449513.580	NaN	-3.511	1.185	9.163	1505.495	1504.762	1509.158	-7.313	-0.183	6.580	-6.201	-0.536	8.115
449514.557	NaN	-3.522	1.174	9.163	1504.762	1504.029	1510.623	-7.466	-0.183	6.321	-6.278	-0.689	7.962
449515.533	NaN	-3.522	1.185	9.152	1504.762	1505.495	1510.623	-7.282	0.046	6.565	-6.278	-0.689	8.038
449516.510	NaN	-3.511	1.185	9.163	1504.029	1504.029	1509.890	-7.405	0.122	6.641	-6.278	-0.689	8.115
449517.487	NaN	-3.511	1.185	9.163	1504.762	1504.029	1510.623	-7.389	-0.122	6.611	-6.124	-0.766	7.885
449518.463	NaN	-3.511	1.185	9.163	1504.029	1504.029	1510.623	-7.252	-0.061	6.672	-6.201	-0.689	8.115
449519.440	NaN	-3.511	1.196	9.152	1504.029	1504.029	1509.158	-7.298	0.031	6.702	-6.201	-0.689	7.962
449520.416	NaN	-3.511	1.207	9.152	1504.762	1505.495	1511.355	-7.221	0.000	6.611	-6.278	-0.689	8.115
449521.393	NaN	-3.522	1.196	9.152	1504.029	1504.029	1510.623	-7.206	-0.076	6.473	-6.201	-0.689	8.038
449522.369	NaN	-3.511	1.185	9.152	1504.029	1503.297	1508.425	-7.435	-0.336	6.427	-6.048	-0.689	8.115
449523.346	NaN	-3.511	1.185	9.152	1504.762	1504.029	1509.890	-7.542	-0.229	6.580	-6.354	-0.689	8.038
449524.323	NaN	-3.522	1.196	9.152	1504.029	1504.029	1511.355	-7.527	-0.061	6.626	-6.201	-0.689	7.962
449525.299	NaN	-3.522	1.196	9.141	1504.029	1504.762	1509.890	-7.298	-0.107	6.580	-6.354	-0.612	7.962
449526.276	NaN	-3.533	1.185	9.141	1504.029	1504.029	1509.158	-7.130	-0.076	6.305	-6.124	-0.689	7.962
449527.252	NaN	-3.533	1.196	9.141	1504.029	1504.762	1510.623	-7.099	-0.198	6.198	-6.278	-0.766	8.115
449528.229	NaN	-3.533	1.185	9.141	1504.029	1503.297	1509.158	-7.466	-0.244	6.443	-6.124	-0.612	8.038
449529.205	NaN	-3.511	1.196	9.152	1504.029	1504.029	1511.355	-7.435	-0.137	6.504	-6.124	-0.766	8.115
449530.182	NaN	-3.500	1.185	9.152	1502.564	1503.297	1509.158	-7.160	-0.076	6.489	-6.201	-0.689	8.115
449531.158	NaN	-3.500	1.185	9.152	1504.762	1504.762	1510.623	-7.313	0.092	6.504	-6.201	-0.689	8.115
449532.135	NaN	-3.500	1.174	9.152	1501.832	1504.762	1510.623	-7.420	0.153	6.580	-6.354	-0.612	8.038
449533.112	NaN	-3.511	1.174	9.152	1504.762	1504.029	1511.355	-7.252	0.198	6.611	-6.354	-0.689	8.115
449534.088	NaN	-3.511	1.174	9.163	1504.029	1504.029	1509.890	-7.191	0.198	6.656	-6.124	-0.612	8.115
449535.065	NaN	-3.511	1.174	9.163	1504.762	1504.029	1509.890	-7.405	0.046	6.534	-6.201	-0.766	8.038
449536.041	NaN	-3.522	1.163	9.152	1501.099	1504.029	1510.623	-7.573	-0.015	6.534	-6.354	-0.766	8.038
449537.018	NaN	-3.533	1.152	9.130	1504.029	1504.029	1509.158	-7.420	0.000	6.504	-6.354	-0.766	7.962
449537.994	NaN	-3.522	1.163	9.130	1505.495	1504.762	1509.158	-7.496	0.031	6.366	-6.278	-0.612	8.038
449538.971	NaN	-3.511	1.174	9.130	1504.762	1504.029	1511.355	-7.313	0.015	6.321	-6.048	-0.612	8.038
449539.948	NaN	-3.511	1.174	9.130	1504.762	1504.762	1509.158	-7.206	-0.107	6.351	-6.201	-0.612	8.038
449540.924	NaN	-3.511	1.174	9.141	1504.029	1504.029	1510.623	-7.252	-0.061	6.397	-6.201	-0.689	8.038
449541.901	NaN	-3.522	1.174	9.141	1504.029	1504.762	1509.890	-7.191	-0.031	6.260	-6.201	-0.689	8.191
449542.877	NaN	-3.533	1.174	9.152	1504.029	1503.297	1509.158	-7.359	-0.076	6.168	-6.201	-0.612	8.038
449543.854	NaN	-3.522	1.163	9.163	1504.029	1502.564	1509.158	-7.450	-0.076	6.290	-6.201	-0.612	8.038
449544.830	NaN	-3.533	1.174	9.163	1504.762	1503.297	1509.890	-7.313	0.015	6.550	-6.201	-0.612	8.038
449545.807	NaN	-3.522	1.174	9.152	1504.762	1502.564	1508.425	-7.115	-0.031	6.595	-6.201	-0.689	8.038
449546.783	NaN	-3.511	1.185	9.163	1504.029	1504.762	1509.890	-7.145	-0.183	6.519	-6.124	-0.612	7.962
449547.760	NaN	-3.511	1.185	9.163	1504.029	1504.762	1509.890	-7.267	-0.168	6.534	-6.201	-0.612	8.115
449548.737	NaN	-3.522	1.185	9.174	1504.762	1503.297	1509.158	-7.344	0.031	6.473	-6.201	-0.689	8.038
449549.713	NaN	-3.511	1.185	9.174	1504.029	1504.762	1510.623	-7.160	0.137	6.275	-6.124	-0.689	8.038
449550.690	NaN	-3.522	1.174	9.163	1505.495	1503.297	1509.890	-7.008	0.122	6.275	-6.201	-0.766	8.115
449551.666	NaN	-3.522	1.185	9.163	1505.495	1504.029	1509.890	-7.252	0.076	6.412	-6.278	-0.689	8.115
449552.643	NaN	-3.511	1.185	9.174	1504.762	1504.029	1511.355	-7.450	-0.107	6.427	-6.201	-0.689	8.038
449553.619	NaN	-3.522	1.185	9.174	1504.762	1503.297	1509.890	-7.511	0.107	6.382	-6.201	-0.766	8.038
449554.596	NaN	-3.522	1.174	9.152	1504.029	1503.297	1509.890	-7.527	-0.015	6.366	-6.278	-0.612	8.038
449555.573	NaN	-3.522	1.185	9.152	1504.029	1504.762	1509.890	-7.359	-0.031	6.382	-6.354	-0.689	8.038
449556.549	NaN	-3.511	1.185	9.163	1505.495	1504.029	1510.623	-7.450	0.015	6.412	-6.278	-0.842	8.038
449557.526	NaN	-3.511	1.185	9.152	1504.762	1504.762	1510.623	-7.420	-0.061	6.443	-6.201	-0.689	7.885
449558.502	NaN	-3.522	1.185	9.152	1504.762	1503.297	1510.623	-7.267	-0.061	6.489	-6.124	-0.612	7.962
449559.479	NaN	-3.533	1.185	9.163	1504.762	1503.297	1509.890	-7.191	0.015	6.412	-6.278	-0.766	7.962
449560.455	NaN	-3.533	1.196	9.152	1505.495	1504.762	1510.623	-7.145	-0.046	6.412	-6.048	-0.689	8.038
449561.432	NaN	-3.543	1.185	9.141	1504.029	1504.029	1509.890	-7.221	0.061	6.489	-6.124	-0.612	8.038
449562.408	NaN	-3.533	1.185	9.141	1504.762	1504.762	1509.158	-7.282	-0.046	6.611	-6.354	-0.689	8.038
449563.385	NaN	-3.522	1.185	9.141	1504.762	1504.762	1509.890	-7.267	0.076	6.565	-6.278	-0.766	8.038
449564.362	NaN	-3.533	1.174	9.152	1504.762	1504.762	1509.158	-7.435	0.183	6.458	-6.278	-0.689	8.038
449565.338	NaN	-3.522	1.174	9.163	1504.762	1504.762	1510.623	-7.511	0.290	6.397	-6.278	-0.689	8.191
449566.315	NaN	-3.522	1.185	9.152	1504.762	1504.029	1508.425	-7.511	0.244	6.244	-6.201	-0.689	8.115
449567.291	NaN	-3.533	1.185	9.163	1503.297	1504.029	1508.425	-7.298	0.168	6.351	-6.278	-0.766	8.115
449568.268	NaN	-3.533	1.185	9.174	1503.297	1504.762	1509.158	-7.145	0.046	6.550	-6.278	-0.766	8.115
449569.244	NaN	-3.522	1.185	9.163	1504.762	1504.762	1509.890	-7.252	-0.015	6.473	-6.201	-0.689	8.115
449570.221	NaN	-3.522	1.185	9.152	1504.762	1504.762	1511.355	-7.450	0.153	6.427	-6.431	-0.766	8.115
449571.198	NaN	-3.522	1.174	9.163	1504.029	1503.297	1509.890	-7.450	0.198	6.366	-6.278	-0.612	7.962
449572.174	NaN	-3.522	1.174	9.152	1504.762	1504.762	1510.623	-7.328	0.168	6.534	-6.278	-0.612	8.191
449573.151	NaN	-3.533	1.174	9.163	1505.495	1504.029	1509.158	-7.237	0.183	6.565	-6.201	-0.612	8.038
449574.127	NaN	-3.511	1.185	9.174	1504.762	1504.762	1511.355	-7.298	0.137	6.336	-6.278	-0.536	8.115
449575.104	NaN	-3.511	1.185	9.174	1503.297	1503.297	1510.623	-7.405	0.122	6.382	-6.201	-0.612	8.115
449576.080	NaN	-3.522	1.174	9.174	1504.029	1504.029	1509.158	-7.328	0.122	6.321	-6.201	-0.689	8.038
449577.057	NaN	-3.522	1.185	9.163	1504.762	1504.029	1510.623	-7.115	0.198	6.305	-6.201	-0.689	8.115
449578.033	NaN	-3.522	1.185	9.174	1505.495	1504.029	1510.623	-7.191	0.153	6.412	-6.278	-0.612	8.038
449579.010	NaN	-3.522	1.174	9.174	1505.495	1504.762	1509.890	-7.328	0.229	6.534	-6.201	-0.612	7.962
449579.987	NaN	-3.522	1.174	9.163	1504.762	1504.762	1509.890	-7.160	0.153	6.534	-6.201	-0.766	7.962
449580.963	NaN	-3.522	1.174	9.152	1504.029	1502.564	1509.158	-7.069	0.046	6.458	-6.278	-0.612	8.115
449581.940	NaN	-3.533	1.163	9.152	1504.029	1504.762	1509.890	-7.282	0.168	6.336	-6.278	-0.766	8.115
449582.916	NaN	-3.522	1.163	9.152	1504.762	1504.762	1509.890	-7.374	0.290	6.321	-6.278	-0.689	8.038
449583.893	NaN	-3.533	1.152	9.163	1504.029	1504.029	1509.890	-7.466	0.168	6.305	-6.201	-0.612	7.962
449584.869	NaN	-3.522	1.152	9.163	1504.029	1503.297	1511.355	-7.450	-0.122	6.534	-6.201	-0.766	8.191
449585.846	NaN	-3.511	1.152	9.163	1504.029	1504.029	1509.890	-7.435	-0.214	6.427	-6.278	-0.766	8.038
449586.823	NaN	-3.511	1.163	9.163	1502.564	1503.297	1509.158	-7.359	-0.015	6.122	-6.354	-0.766	8.038
449587.799	NaN	-3.489	1.174	9.163	1504.762	1504.762	1509.890	-7.450	0.214	6.031	-6.278	-0.612	8.038
449588.776	NaN	-3.500	1.174	9.163	1504.762	1503.297	1509.158	-7.618	0.305	6.290	-6.201	-0.766	7.962
449589.752	NaN	-3.511	1.174	9.163	1505.495	1502.564	1509.158	-7.511	0.275	6.321	-6.278	-0.612	8.038
449603.424	NaN	-3.533	1.196	9.163	1504.762	1504.762	1510.623	-7.282	0.366	6.260	-6.278	-0.612	7.962
449604.401	NaN	-3.533	1.196	9.152	1498.901	1504.029	1509.158	-7.267	0.260	6.443	-6.201	-0.689	8.038
449605.377	NaN	-3.522	1.185	9.163	1504.029	1504.762	1510.623	-7.527	0.122	6.489	-6.278	-0.612	8.038
449606.354	NaN	-3.533	1.185	9.163	1504.029	1504.762	1511.355	-7.405	0.122	6.351	-6.124	-0.689	8.115
449607.330	NaN	-3.543	1.185	9.174	1504.029	1504.029	1509.890	-7.328	0.137	6.137	-6.354	-0.689	8.115
449608.307	NaN	-3.543	1.196	9.163	1503.297	1504.762	1509.158	-7.328	0.321	6.137	-6.201	-0.612	8.038
449609.283	NaN	-3.543	1.207	9.152	1504.762	1504.029	1510.623	-7.466	0.260	6.366	-6.201	-0.689	8.038
449610.260	NaN	-3.543	1.196	9.152	1504.029	1503.297	1509.158	-7.176	0.183	6.336	-6.354	-0.689	8.038
449611.237	NaN	-3.543	1.185	9.163	1503.297	1503.297	1509.158	-7.069	0.214	6.427	-6.201	-0.689	8.191
449612.213	NaN	-3.533	1.196	9.163	1504.029	1504.029	1508.425	-7.344	0.198	6.473	-6.124	-0.689	7.962
449613.190	NaN	-3.543	1.185	9.163	1503.297	1504.029	1507.692	-7.160	0.122	6.382	-6.278	-0.612	8.115
449614.166	NaN	-3.533	1.185	9.174	1504.029	1504.762	1510.623	-7.191	0.214	6.336	-6.278	-0.612	8.038
449615.143	NaN	-3.533	1.185	9.174	1504.762	1504.029	1511.355	-7.313	0.214	6.305	-6.124	-0.612	8.038
449616.119	NaN	-3.533	1.185	9.174	1504.762	1504.762	1510.623	-7.206	0.046	6.275	-6.278	-0.536	8.038
449617.096	NaN	-3.533	1.185	9.163	1503.297	1504.762	1512.088	-7.053	0.015	6.412	-6.278	-0.766	7.962
449618.073	NaN	-3.522	1.196	9.152	1504.762	1504.029	1510.623	-7.176	0.046	6.519	-6.278	-0.689	8.115
449619.049	NaN	-3.522	1.196	9.141	1504.762	1504.762	1510.623	-7.420	0.076	6.351	-6.278	-0.689	8.115
449620.026	NaN	-3.533	1.196	9.152	1503.297	1504.762	1509.890	-7.206	0.031	6.290	-6.278	-0.766	7.962
449621.002	NaN	-3.533	1.196	9.163	1504.029	1504.029	1510.623	-7.130	0.214	6.229	-6.201	-0.766	7.885
449621.979	NaN	-3.543	1.196	9.163	1502.564	1504.029	1510.623	-7.527	0.321	6.229	-6.201	-0.766	8.038
449622.955	NaN	-3.543	1.185	9.163	1503.297	1503.297	1509.890	-7.435	0.412	6.183	-6.201	-0.612	7.962
449623.932	NaN	-3.533	1.185	9.163	1503.297	1503.297	1508.425	-7.389	0.260	6.290	-6.201	-0.689	8.191
449624.908	NaN	-3.533	1.185	9.174	1503.297	1504.029	1511.355	-7.420	0.137	6.366	-6.278	-0.612	7.962
449625.885	3736848895.402	-3.543	1.174	9.163	1504.029	1504.029	1509.890	-7.328	0.198	6.351	-6.201	-0.612	8.038
449626.862	NaN	-3.533	1.163	9.163	1504.762	1504.762	1510.623	-7.328	0.046	6.229	-6.124	-0.612	8.115
449627.838	NaN	-3.543	1.152	9.174	1503.297	1502.564	1509.890	-7.252	-0.031	6.275	-6.278	-0.842	8.038
449628.815	NaN	-3.533	1.152	9.185	1504.029	1503.297	1509.158	-7.435	-0.076	6.321	-6.201	-0.689	7.962
449629.791	NaN	-3.533	1.174	9.174	1502.564	1504.762	1509.890	-7.298	0.168	6.534	-6.278	-0.612	8.115
449630.768	NaN	-3.543	1.163	9.174	1503.297	1503.297	1507.692	-7.191	0.198	6.656	-6.278	-0.612	7.885
449631.744	NaN	-3.543	1.163	9.174	1503.297	1503.297	1509.158	-7.420	0.168	6.473	-6.201	-0.536	8.115
449632.721	NaN	-3.533	1.163	9.163	1504.029	1504.762	1510.623	-7.359	0.214	6.153	-6.278	-0.766	8.038
449633.698	NaN	-3.533	1.163	9.163	1504.762	1504.762	1509.890	-7.450	0.275	6.137	-6.278	-0.612	7.885
449634.674	NaN	-3.533	1.163	9.152	1504.029	1503.297	1510.623	-7.435	0.290	6.351	-6.278	-0.766	8.191
449635.651	NaN	-3.543	1.163	9.152	1503.297	1502.564	1511.355	-7.511	0.305	6.427	-6.278	-0.536	8.115
449636.627	NaN	-3.533	1.163	9.152	1503.297	1503.297	1509.890	-7.435	0.229	6.336	-6.201	-0.612	8.115
449637.604	NaN	-3.533	1.185	9.141	1504.762	1503.297	1510.623	-7.420	0.153	6.229	-6.278	-0.612	8.115
449638.580	NaN	-3.543	1.185	9.141	1504.762	1504.029	1509.890	-7.435	0.031	6.214	-6.201	-0.536	8.038
449639.557	NaN	-3.554	1.174	9.141	1504.029	1504.029	1509.158	-7.252	0.076	6.290	-6.201	-0.689	8.038
449640.533	NaN	-3.543	1.174	9.152	1505.495	1506.227	1510.623	-7.130	0.214	6.397	-6.124	-0.689	7.962
449641.510	NaN	-3.533	1.185	9.163	1504.029	1504.762	1509.890	-7.237	0.244	6.382	-6.201	-0.766	8.191
449642.487	NaN	-3.533	1.185	9.174	1504.029	1504.762	1511.355	-7.496	0.382	6.443	-6.354	-0.536	8.191
449643.463	NaN	-3.522	1.185	9.174	1504.029	1503.297	1509.890	-7.573	0.473	6.336	-6.354	-0.612	8.115
449644.440	NaN	-3.533	1.174	9.174	1504.762	1504.029	1510.623	-7.466	0.412	6.229	-6.201	-0.689	8.115
449645.416	NaN	-3.533	1.185	9.185	1504.762	1504.762	1509.158	-7.313	0.153	6.229	-6.201	-0.689	8.038
449646.393	NaN	-3.522	1.185	9.185	1504.762	1504.762	1510.623	-7.267	0.076	6.214	-6.431	-0.766	8.038
449647.369	NaN	-3.522	1.185	9.174	1505.495	1503.297	1510.623	-7.206	0.229	6.275	-6.201	-0.766	8.038
449648.346	NaN	-3.522	1.174	9.174	1504.029	1504.029	1510.623	-7.191	0.275	6.489	-6.278	-0.612	8.191
449649.323	NaN	-3.533	1.185	9.174	1505.495	1504.029	1511.355	-7.405	0.214	6.427	-6.201	-0.766	8.115
449650.299	NaN	-3.522	1.185	9.185	1505.495	1503.297	1509.890	-7.420	0.214	6.443	-6.201	-0.612	8.191
449651.276	NaN	-3.533	1.185	9.174	1504.762	1504.762	1509.158	-7.496	0.122	6.366	-6.278	-0.766	8.038
449652.252	NaN	-3.533	1.185	9.174	1504.762	1504.029	1509.890	-7.313	0.168	6.290	-6.354	-0.766	8.038
449653.229	NaN	-3.533	1.185	9.152	1504.762	1504.762	1509.158	-7.282	0.153	6.168	-6.278	-0.689	8.038
449654.205	NaN	-3.522	1.185	9.163	1505.495	1504.029	1509.890	-7.206	0.198	6.107	-6.354	-0.612	7.962
449655.182	NaN	-3.511	1.185	9.163	1504.029	1504.762	1510.623	-7.481	0.321	6.427	-6.278	-0.612	8.268
449656.158	NaN	-3.522	1.185	9.152	1504.029	1504.762	1510.623	-7.267	0.321	6.412	-6.201	-0.612	8.038
449657.135	NaN	-3.533	1.174	9.152	1504.762	1504.029	1509.158	-7.160	0.412	6.198	-6.201	-0.766	8.038
449658.112	NaN	-3.543	1.174	9.141	1504.762	1504.762	1509.890	-7.099	0.321	6.137	-6.278	-0.766	8.268
449659.088	NaN	-3.533	1.174	9.163	1505.495	1504.029	1509.890	-7.176	0.260	6.183	-6.201	-0.842	8.115
449660.065	NaN	-3.533	1.174	9.152	1504.762	1504.029	1509.158	-7.267	0.214	6.107	-6.354	-0.689	8.038
449661.041	NaN	-3.522	1.174	9.163	1504.029	1502.564	1508.425	-7.450	0.214	6.092	-6.278	-0.536	8.038
449662.018	NaN	-3.533	1.174	9.163	1504.762	1503.297	1509.890	-7.344	0.305	6.153	-6.201	-0.766	8.038
449662.994	NaN	-3.533	1.163	9.163	1503.297	1503.297	1508.425	-7.328	0.351	6.153	-6.278	-0.766	8.038
449663.971	NaN	-3.533	1.185	9.163	1504.762	1504.029	1510.623	-7.573	0.412	6.290	-6.124	-0.612	8.115
449664.948	NaN	-3.543	1.185	9.152	1504.762	1504.029	1509.890	-7.466	0.336	6.504	-6.278	-0.612	8.038
449665.924	NaN	-3.533	1.185	9.152	1503.297	1503.297	1508.425	-7.267	0.229	6.672	-6.201	-0.612	7.962
449666.901	NaN	-3.533	1.185	9.152	1504.029	1504.029	1507.692	-7.282	0.244	6.427	-6.354	-0.612	7.962
449667.877	NaN	-3.533	1.185	9.152	1504.762	1505.495	1512.088	-7.282	0.351	6.397	-6.354	-0.689	8.115
449668.854	NaN	-3.533	1.185	9.152	1504.762	1504.762	1509.158	-7.389	0.244	6.489	-6.431	-0.612	8.038
449669.830	NaN	-3.522	1.174	9.152	1504.762	1504.762	1509.890	-7.374	0.153	6.336	-6.278	-0.612	7.962
449670.807	NaN	-3.522	1.174	9.152	1503.297	1504.029	1509.890	-7.298	0.229	6.321	-6.124	-0.766	7.962
449671.783	NaN	-3.522	1.185	9.141	1504.029	1504.762	1510.623	-7.237	0.412	6.153	-6.354	-0.689	8.038
449672.760	NaN	-3.511	1.185	9.141	1505.495	1504.029	1509.890	-7.374	0.458	6.183	-6.124	-0.689	8.268
449673.737	NaN	-3.522	1.185	9.141	1502.564	1504.029	1509.890	-7.527	0.366	6.244	-6.354	-0.689	8.115
449674.713	NaN	-3.522	1.185	9.152	1504.029	1502.564	1509.158	-7.496	0.260	6.305	-6.201	-0.766	7.962
449675.690	NaN	-3.533	1.174	9.163	1504.762	1503.297	1509.890	-7.191	0.382	6.290	-6.354	-0.612	7.962
449676.666	NaN	-3.522	1.185	9.163	1504.762	1504.762	1509.890	-7.130	0.427	6.458	-6.201	-0.612	8.038
449677.643	NaN	-3.511	1.185	9.152	1504.029	1504.029	1509.158	-7.145	0.214	6.519	-6.431	-0.689	8.038
449678.619	NaN	-3.511	1.196	9.163	1504.762	1504.029	1510.623	-7.145	0.122	6.290	-6.354	-0.536	8.191
449679.596	NaN	-3.533	1.196	9.163	1504.762	1504.029	1509.890	-7.267	0.168	6.366	-6.278	-0.689	8.191
449680.573	NaN	-3.533	1.207	9.163	1505.495	1504.029	1511.355	-7.420	0.244	6.412	-6.278	-0.766	7.962
449681.549	NaN	-3.533	1.185	9.174	1504.029	1504.029	1509.890	-7.374	0.244	6.198	-6.278	-0.766	7.962
449682.526	NaN	-3.522	1.185	9.185	1504.762	1504.762	1509.890	-7.313	0.305	6.122	-6.354	-0.766	8.038
449683.502	NaN	-3.522	1.185	9.174	1504.762	1504.029	1510.623	-7.298	0.198	5.985	-6.354	-0.689	8.038
449684.479	NaN	-3.533	1.196	9.152	1504.029	1504.029	1509.158	-7.450	0.229	6.061	-6.354	-0.766	8.038
449685.455	NaN	-3.522	1.207	9.163	1504.762	1504.029	1511.355	-7.481	0.336	6.244	-6.201	-0.612	8.115
449686.432	NaN	-3.522	1.207	9.163	1504.762	1504.762	1509.890	-7.328	0.351	6.366	-6.278	-0.689	8.115
449687.408	NaN	-3.522	1.207	9.163	1504.762	1505.495	1509.890	-7.298	0.336	6.641	-6.278	-0.612	8.038
449688.385	NaN	-3.522	1.185	9.141	1505.495	1504.029	1509.158	-7.328	0.305	6.565	-5.129	-0.612	7.962
449689.362	NaN	-3.543	1.185	9.141	1503.297	1504.762	1508.425	-7.374	0.275	6.397	-6.354	-0.842	8.038
449690.338	NaN	-3.522	1.196	9.152	1503.297	1504.762	1510.623	-7.115	0.305	6.305	-6.201	-0.842	8.038
449691.315	NaN	-3.522	1.196	9.141	1504.029	1504.762	1509.158	-7.053	0.244	6.183	-6.201	-0.766	8.038
449692.291	NaN	-3.522	1.196	9.141	1505.495	1504.029	1509.890	-7.282	0.153	6.107	-6.354	-0.689	7.962
449693.268	NaN	-3.522	1.185	9.141	1504.762	1503.297	1510.623	-7.527	0.168	6.015	-6.201	-0.689	8.115
449694.244	NaN	-3.522	1.196	9.141	1505.495	1504.762	1509.890	-7.481	0.244	6.214	-6.124	-0.689	8.115
449695.221	NaN	-3.533	1.185	9.152	1504.029	1504.029	1510.623	-7.221	0.366	6.382	-6.201	-0.612	8.115
449696.198	NaN	-3.533	1.196	9.130	1504.762	1503.297	1509.158	-7.282	0.473	6.504	-6.278	-0.766	8.115
449697.174	NaN	-3.522	1.185	9.152	1504.762	1503.297	1509.158	-7.389	0.489	6.275	-6.124	-0.536	8.038
449698.151	NaN	-3.522	1.174	9.152	1505.495	1504.762	1509.890	-7.405	0.382	6.046	-6.278	-0.689	8.115
449699.127	NaN	-3.522	1.174	9.152	1503.297	1503.297	1509.158	-7.344	0.305	6.198	-6.201	-0.612	8.115
449700.104	NaN	-3.500	1.185	9.174	1504.762	1504.762	1510.623	-7.466	0.260	6.198	-6.278	-0.689	8.191
449701.080	NaN	-3.511	1.185	9.174	1504.762	1504.762	1510.623	-7.450	0.351	6.321	-6.201	-0.689	8.115
449702.057	NaN	-3.511	1.185	9.174	1501.832	1504.029	1509.890	-7.573	0.382	6.397	-6.201	-0.689	8.038
449703.033	NaN	-3.511	1.185	9.174	1504.762	1504.762	1511.355	-7.405	0.382	6.260	-6.201	-0.689	8.115
449704.010	NaN	-3.511	1.163	9.163	1503.297	1504.029	1509.158	-7.359	0.336	6.229	-6.201	-0.689	7.962
449704.987	NaN	-3.500	1.163	9.174	1504.762	1504.029	1511.355	-7.160	0.260	6.168	-6.278	-0.766	7.962
449705.963	NaN	-3.522	1.152	9.163	1504.029	1504.029	1509.890	-7.115	0.321	6.122	-6.278	-0.536	8.115
449706.940	NaN	-3.522	1.141	9.163	1503.297	1502.564	1509.158	-7.145	0.458	6.366	-6.278	-0.766	8.038
449707.916	NaN	-3.511	1.152	9.163	1504.029	1504.029	1509.890	-7.237	0.382	6.275	-6.201	-0.612	8.115
449708.893	NaN	-3.511	1.152	9.152	1504.762	1504.762	1509.158	-7.374	0.229	6.092	-6.201	-0.842	8.115
449709.869	NaN	-3.500	1.174	9.163	1504.029	1504.029	1509.890	-7.191	0.153	6.061	-6.201	-0.612	8.115
449710.846	NaN	-3.522	1.163	9.163	1504.029	1503.297	1509.890	-7.084	0.290	6.183	-6.354	-0.689	8.115
449711.823	NaN	-3.533	1.152	9.152	1503.297	1503.297	1509.890	-7.252	0.305	6.397	-6.278	-0.689	8.115
449712.799	NaN	-3.533	1.163	9.163	1504.762	1503.297	1510.623	-7.481	0.244	6.244	-6.124	-0.766	7.962
449713.776	NaN	-3.533	1.174	9.163	1504.762	1504.029	1509.890	-7.420	0.198	6.168	-6.354	-0.689	8.115
449714.752	NaN	-3.533	1.163	9.163	1504.029	1504.762	1509.158	-7.191	0.305	6.153	-6.354	-0.689	7.962
449715.729	NaN	-3.522	1.174	9.163	1504.762	1504.029	1508.425	-7.160	0.443	6.168	-6.201	-0.689	8.038
449716.705	NaN	-3.522	1.174	9.174	1504.029	1505.495	1509.158	-7.405	0.427	6.229	-6.124	-0.612	8.191
449717.682	NaN	-3.533	1.174	9.163	1503.297	1504.029	1509.158	-7.435	0.229	6.137	-6.278	-0.689	8.115
449718.658	NaN	-3.522	1.174	9.185	1504.762	1502.564	1510.623	-7.298	0.122	6.321	-6.278	-0.689	8.038
449719.635	NaN	-3.533	1.174	9.163	1503.297	1504.762	1509.158	-7.191	0.031	6.092	-6.354	-0.766	7.962
449720.612	NaN	-3.533	1.174	9.152	1504.762	1504.029	1508.425	-7.359	0.168	5.969	-6.201	-0.842	7.885
449721.588	NaN	-3.533	1.185	9.163	1505.495	1504.029	1509.890	-7.496	0.443	6.107	-6.278	-0.612	8.038
449722.565	NaN	-3.533	1.163	9.152	1504.029	1504.762	1511.355	-7.420	0.565	6.290	-6.278	-0.689	7.962
449723.541	NaN	-3.533	1.174	9.163	1504.762	1504.029	1509.890	-7.344	0.366	6.153	-6.354	-0.689	7.962
449724.518	NaN	-3.543	1.163	9.163	1502.564	1503.297	1509.890	-7.450	0.214	6.137	-6.278	-0.612	8.038
449725.494	NaN	-3.533	1.174	9.163	1505.495	1504.762	1510.623	-7.511	0.198	6.183	-6.278	-0.612	8.038
449726.471	NaN	-3.522	1.174	9.163	1504.762	1504.762	1510.623	-7.435	0.382	6.153	-6.201	-0.689	8.038
449727.448	NaN	-3.522	1.174	9.152	1505.495	1503.297	1510.623	-7.237	0.198	6.168	-6.201	-0.766	8.115
449728.424	NaN	-3.522	1.174	9.152	1504.762	1503.297	1509.158	-7.298	-0.031	6.046	-6.354	-0.766	8.115
449729.401	NaN	-3.522	1.174	9.163	1504.029	1503.297	1509.890	-7.450	0.122	5.924	-6.278	-0.766	8.268
449730.377	NaN	-3.511	1.185	9.174	1505.495	1504.762	1510.623	-7.496	0.366	5.954	-6.201	-0.689	8.115
449731.354	NaN	-3.511	1.185	9.174	1504.762	1504.762	1511.355	-7.191	0.504	6.260	-6.201	-0.612	8.115
449732.330	NaN	-3.522	1.174	9.174	1505.495	1504.762	1510.623	-7.176	0.504	6.244	-6.124	-0.689	7.962
449733.307	NaN	-3.522	1.163	9.174	1504.029	1504.029	1509.158	-7.298	0.260	6.153	-6.201	-0.842	8.038
449734.283	NaN	-3.533	1.163	9.163	1504.762	1504.762	1509.158	-7.328	0.015	6.168	-6.201	-0.459	8.038
449735.260	NaN	-3.533	1.174	9.174	1504.762	1504.029	1509.890	-7.298	0.107	6.305	-6.201	-0.612	8.038
449736.237	NaN	-3.533	1.174	9.163	1504.762	1504.762	1511.355	-7.221	0.229	6.382	-6.278	-0.842	7.962
449737.213	NaN	-3.533	1.174	9.152	1504.762	1504.029	1509.890	-7.344	0.321	6.168	-6.278	-0.766	8.038
449738.190	NaN	-3.543	1.163	9.152	1503.297	1504.029	1509.158	-7.252	0.305	5.954	-6.278	-0.766	8.038
449739.166	NaN	-3.533	1.185	9.163	1505.495	1504.762	1510.623	-7.221	0.321	6.061	-6.354	-0.612	8.115
449740.143	NaN	-3.533	1.185	9.163	1504.029	1503.297	1509.890	-7.313	0.336	5.908	-6.201	-0.766	8.115
449741.119	NaN	-3.533	1.185	9.163	1504.029	1504.029	1509.158	-7.466	0.229	5.924	-6.201	-0.689	8.038
449742.096	NaN	-3.533	1.185	9.152	1504.762	1504.762	1510.623	-7.405	0.168	6.153	-6.124	-0.766	8.038
449743.073	NaN	-3.554	1.185	9.152	1504.762	1504.762	1509.890	-7.160	0.061	6.244	-6.354	-0.766	8.191
449744.049	NaN	-3.543	1.185	9.163	1504.762	1504.029	1510.623	-7.176	0.183	6.290	-6.201	-0.689	8.191
449745.026	NaN	-3.533	1.185	9.163	1504.029	1504.762	1509.158	-7.160	0.275	6.214	-6.431	-0.689	8.115
449746.002	NaN	-3.533	1.185	9.163	1504.029	1504.029	1510.623	-7.176	0.229	6.229	-6.201	-0.612	8.115
449746.979	NaN	-3.533	1.174	9.163	1504.029	1504.029	1509.890	-7.145	0.183	6.107	-6.431	-0.766	8.115
449747.955	NaN	-3.522	1.185	9.152	1504.762	1504.762	1510.623	-7.221	0.168	6.107	-6.201	-0.689	8.038
449748.932	NaN	-3.511	1.185	9.152	1504.762	1504.762	1509.890	-7.191	0.214	6.214	-6.354	-0.842	8.038
449749.908	NaN	-3.511	1.185	9.152	1504.029	1503.297	1510.623	-7.313	0.351	6.137	-6.354	-0.766	7.962
449750.885	NaN	-3.511	1.185	9.152	1504.029	1503.297	1509.158	-7.481	0.504	6.122	-6.278	-0.766	8.038
449751.862	NaN	-3.533	1.174	9.152	1503.297	1504.029	1509.890	-7.252	0.427	6.122	-6.201	-0.612	7.962
449752.838	NaN	-3.522	1.185	9.152	1504.029	1504.029	1509.890	-7.298	0.198	6.107	-6.278	-0.689	7.962
449753.815	NaN	-3.543	1.174	9.141	1504.029	1504.762	1511.355	-7.420	0.153	6.153	-6.278	-0.689	8.191
449754.791	NaN	-3.533	1.163	9.141	1504.029	1502.564	1509.158	-7.435	0.183	6.168	-6.201	-0.766	8.038
449755.768	NaN	-3.511	1.163	9.141	1504.029	1504.029	1510.623	-7.359	0.260	6.198	-6.278	-0.689	8.115
449756.744	NaN	-3.522	1.163	9.152	1504.029	1504.762	1510.623	-7.206	0.290	6.260	-6.278	-0.766	7.962
449757.721	NaN	-3.533	1.163	9.152	1504.029	1504.762	1509.890	-7.328	0.260	6.107	-6.201	-0.612	8.038
449758.698	NaN	-3.533	1.174	9.141	1503.297	1504.029	1509.158	-7.359	0.183	6.061	-6.278	-0.612	8.115
449759.674	NaN	-3.522	1.174	9.163	1504.029	1504.029	1509.890	-7.298	0.214	6.031	-6.201	-0.689	8.191
449760.651	NaN	-3.543	1.174	9.152	1504.762	1503.297	1509.158	-7.420	0.336	6.214	-6.354	-0.612	8.115
449761.627	NaN	-3.533	1.174	9.163	1504.762	1505.495	1509.890	-7.374	0.260	6.107	-6.201	-0.689	8.115
449762.604	NaN	-3.543	1.163	9.163	1504.029	1504.029	1509.158	-7.221	0.351	5.924	-6.201	-0.689	8.115
449763.580	NaN	-3.522	1.174	9.163	1503.297	1504.029	1509.158	-7.237	0.183	6.031	-6.048	-0.689	8.038
449764.557	NaN	-3.543	1.174	9.163	1504.029	1504.762	1510.623	-7.328	0.168	6.107	-6.354	-0.689	8.038
449765.533	NaN	-3.543	1.174	9.163	1504.762	1504.029	1508.425	-7.374	0.229	6.092	-6.278	-0.689	8.038
449766.510	NaN	-3.543	1.196	9.174	1504.029	1504.762	1511.355	-7.206	0.260	6.137	-6.124	-0.689	8.115
449767.487	NaN	-3.543	1.185	9.163	1504.029	1503.297	1509.890	-7.145	0.351	6.198	-6.201	-0.612	8.038
449768.463	NaN	-3.543	1.196	9.152	1503.297	1504.029	1510.623	-7.206	0.336	5.969	-6.354	-0.612	8.115
449769.440	NaN	-3.554	1.174	9.152	1504.029	1504.029	1510.623	-7.176	0.321	5.863	-6.278	-0.766	8.038
449770.416	NaN	-3.533	1.185	9.152	1505.495	1504.762	1511.355	-7.389	0.504	6.122	-6.278	-0.689	8.115
449771.393	NaN	-3.543	1.163	9.141	1503.297	1504.762	1509.158	-7.374	0.458	6.305	-6.354	-0.689	8.115
449772.369	NaN	-3.533	1.174	9.141	1504.029	1503.297	1509.158	-7.435	0.305	6.336	-6.278	-0.536	8.038
449773.346	NaN	-3.511	1.185	9.163	1503.297	1504.029	1509.158	-7.420	0.137	6.321	-6.048	-0.612	8.115
449774.323	NaN	-3.522	1.185	9.152	1504.762	1504.029	1509.158	-7.511	0.305	6.076	-6.201	-0.689	8.038
449775.299	NaN	-3.511	1.185	9.152	1505.495	1504.029	1510.623	-7.313	0.321	6.031	-6.278	-0.689	8.115
449776.276	NaN	-3.511	1.185	9.152	1504.762	1504.029	1509.890	-7.313	0.321	6.076	-6.278	-0.689	7.962
449777.252	NaN	-3.511	1.185	9.152	1504.762	1503.297	1509.890	-7.374	0.321	6.000	-6.278	-0.766	8.038
449778.229	NaN	-3.533	1.185	9.174	1504.762	1504.029	1509.890	-7.328	0.244	5.924	-6.278	-0.612	8.038
449779.205	NaN	-3.522	1.185	9.185	1504.029	1505.495	1509.890	-7.389	0.260	6.046	-6.048	-0.689	8.191
449780.182	3736848895.545	-3.522	1.196	9.185	1504.762	1504.762	1512.088	-7.481	0.137	6.290	-6.278	-0.766	8.038
449781.158	NaN	-3.522	1.185	9.174	1504.029	1504.029	1509.890	-7.420	0.046	6.122	-6.278	-0.689	8.191
449782.135	NaN	-3.522	1.185	9.174	1504.762	1503.297	1509.890	-7.313	0.275	5.924	-6.278	-0.612	8.115
449783.112	NaN	-3.533	1.174	9.163	1504.029	1503.297	1509.158	-7.344	0.366	6.015	-6.354	-0.612	8.115
449784.088	NaN	-3.533	1.185	9.174	1503.297	1504.029	1509.158	-7.405	0.458	6.107	-6.278	-0.536	8.115
449785.065	NaN	-3.533	1.185	9.163	1504.029	1503.297	1510.623	-7.496	0.458	6.000	-6.354	-0.689	8.038
449786.041	NaN	-3.533	1.185	9.174	1504.029	1505.495	1510.623	-7.405	0.229	5.878	-6.431	-0.689	8.038
449787.018	NaN	-3.533	1.163	9.174	1504.029	1504.029	1509.158	-7.359	0.122	5.908	-6.124	-0.766	8.115
449787.994	NaN	-3.533	1.174	9.174	1506.227	1504.762	1509.158	-7.237	0.321	5.954	-6.124	-0.766	7.885
449788.971	NaN	-3.533	1.163	9.174	1504.762	1504.762	1510.623	-7.115	0.504	5.832	-6.124	-0.689	8.115
449789.948	NaN	-3.533	1.163	9.174	1504.762	1504.029	1509.890	-7.130	0.198	5.878	-6.278	-0.612	7.962
449790.924	NaN	-3.533	1.163	9.174	1504.029	1503.297	1508.425	-7.282	0.137	5.954	-6.201	-0.766	7.962
449791.901	NaN	-3.533	1.163	9.163	1504.029	1504.029	1509.890	-7.099	0.351	6.061	-6.201	-0.689	8.115
449792.877	NaN	-3.522	1.185	9.163	1504.762	1504.762	1509.158	-7.069	0.260	6.092	-6.201	-0.766	8.191
449793.854	NaN	-3.522	1.174	9.163	1504.762	1505.495	1510.623	-7.069	0.275	5.985	-6.201	-0.689	7.962
449794.830	NaN	-3.522	1.174	9.152	1504.762	1503.297	1510.623	-7.267	0.321	6.076	-6.201	-0.689	8.115
449795.807	NaN	-3.522	1.174	9.163	1505.495	1504.029	1510.623	-7.221	0.305	6.122	-6.278	-0.689	8.191
449796.783	NaN	-3.522	1.185	9.163	1504.029	1504.029	1509.158	-7.405	0.076	6.092	-6.431	-0.689	8.038
449797.760	NaN	-3.533	1.174	9.163	1504.029	1503.297	1509.158	-7.618	0.076	5.878	-6.124	-0.689	8.115
449798.737	NaN	-3.522	1.185	9.174	1504.029	1503.297	1509.158	-7.527	0.275	5.954	-6.278	-0.612	8.115
449799.713	NaN	-3.522	1.185	9.163	1504.029	1504.029	1510.623	-7.420	0.412	6.122	-6.431	-0.689	7.962
449800.690	NaN	-3.522	1.185	9.163	1506.227	1504.762	1509.890	-7.511	0.336	6.092	-6.278	-0.612	8.038
449801.666	NaN	-3.522	1.185	9.163	1504.029	1503.297	1509.890	-7.542	0.198	6.107	-6.201	-0.689	8.115
449802.643	NaN	-3.511	1.196	9.163	1504.029	1503.297	1509.158	-7.466	0.244	5.969	-6.354	-0.689	8.038
449803.619	NaN	-3.511	1.196	9.152	1504.762	1504.762	1510.623	-7.374	0.305	5.939	-6.278	-0.689	8.115
449804.596	NaN	-3.511	1.185	9.152	1503.297	1504.029	1510.623	-7.252	0.351	6.046	-6.124	-0.766	8.038
449805.573	NaN	-3.500	1.185	9.152	1504.029	1504.762	1509.890	-7.160	0.366	6.076	-6.201	-0.689	8.038
449806.549	NaN	-3.511	1.174	9.174	1504.762	1504.762	1510.623	-7.023	0.427	6.122	-6.278	-0.689	7.962
449807.526	NaN	-3.522	1.174	9.163	1504.029	1504.762	1508.425	-7.099	0.336	6.061	-6.201	-0.689	8.038
449808.502	NaN	-3.522	1.163	9.174	1504.029	1504.029	1510.623	-7.267	0.260	6.061	-6.124	-0.689	8.038
449809.479	NaN	-3.543	1.174	9.163	1504.762	1504.029	1508.425	-7.298	0.229	6.229	-6.354	-0.689	8.115
449810.455	NaN	-3.522	1.174	9.163	1503.297	1504.762	1509.890	-7.298	0.305	6.275	-6.201	-0.689	8.038
449811.432	NaN	-3.522	1.185	9.163	1504.762	1504.029	1510.623	-7.237	0.397	6.092	-6.354	-0.612	8.115
449812.408	NaN	-3.511	1.185	9.152	1505.495	1504.029	1509.890	-7.359	0.397	5.985	-6.354	-0.689	8.038
449813.385	NaN	-3.511	1.196	9.163	1506.960	1503.297	1509.890	-7.405	0.489	6.244	-6.354	-0.766	8.115
449814.362	NaN	-3.533	1.174	9.152	1504.762	1504.029	1509.158	-7.511	0.489	6.321	-6.278	-0.689	8.038
449815.338	NaN	-3.522	1.185	9.152	1504.029	1504.762	1510.623	-7.450	0.076	6.076	-6.201	-0.689	8.115
449816.315	NaN	-3.511	1.185	9.163	1504.762	1504.762	1509.890	-7.374	-0.107	5.985	-6.278	-0.766	7.885
449817.291	NaN	-3.522	1.174	9.163	1503.297	1504.762	1510.623	-7.344	0.061	5.847	-6.278	-0.536	8.115
449818.268	NaN	-3.533	1.174	9.174	1504.029	1502.564	1509.890	-7.282	0.229	5.893	-6.278	-0.612	8.038
449819.244	NaN	-3.522	1.196	9.163	1505.495	1504.762	1511.355	-7.389	0.321	5.969	-6.278	-0.766	8.191
449820.221	NaN	-3.533	1.185	9.152	1504.029	1504.029	1511.355	-7.496	0.290	6.137	-6.201	-0.766	7.962
449821.198	NaN	-3.522	1.196	9.152	1503.297	1504.029	1509.158	-7.496	0.275	6.229	-6.354	-0.689	8.038
449822.174	NaN	-3.533	1.196	9.152	1504.762	1503.297	1509.890	-7.420	0.366	6.061	-6.354	-0.612	8.115
449823.151	NaN	-3.533	1.185	9.141	1505.495	1504.029	1510.623	-7.267	0.565	6.046	-6.278	-0.842	8.115
449824.127	NaN	-3.522	1.185	9.152	1504.762	1504.762	1511.355	-7.267	0.473	6.107	-6.354	-0.612	8.038
449825.104	NaN	-3.533	1.185	9.152	1502.564	1504.029	1507.692	-7.481	0.397	6.031	-6.201	-0.689	7.885
449826.080	NaN	-3.522	1.185	9.163	1504.762	1504.029	1509.158	-7.603	0.275	6.000	-6.278	-0.766	7.962
449827.057	NaN	-3.543	1.174	9.163	1504.029	1504.762	1509.158	-7.466	0.260	5.893	-6.278	-0.612	8.191
449828.033	NaN	-3.543	1.163	9.163	1504.029	1502.564	1509.890	-7.252	0.290	5.939	-6.278	-0.766	8.115
449829.010	NaN	-3.533	1.174	9.174	1504.762	1503.297	1508.425	-7.084	0.275	5.802	-6.278	-0.612	8.038
449829.987	NaN	-3.533	1.174	9.163	1504.029	1504.762	1509.158	-6.977	0.382	5.969	-6.278	-0.766	8.115
449830.963	NaN	-3.533	1.185	9.163	1503.297	1502.564	1509.890	-7.206	0.351	5.985	-6.278	-0.612	7.962
449831.940	NaN	-3.522	1.185	9.163	1504.029	1504.029	1509.890	-7.359	0.153	5.908	-6.431	-0.689	8.115
449832.916	NaN	-3.522	1.185	9.152	1505.495	1504.762	1511.355	-7.420	0.168	5.939	-6.278	-0.612	8.115
449833.893	NaN	-3.533	1.174	9.141	1504.762	1503.297	1510.623	-7.267	0.168	5.985	-6.201	-0.612	8.038
449834.869	NaN	-3.533	1.185	9.141	1504.762	1503.297	1509.890	-7.252	0.168	5.954	-6.278	-0.689	7.962
449835.846	NaN	-3.522	1.185	9.152	1504.762	1504.029	1509.890	-7.359	0.244	5.954	-6.278	-0.766	8.115
449836.823	NaN	-3.522	1.174	9.152	1504.762	1504.029	1510.623	-7.450	0.305	5.939	-6.354	-0.689	8.038
449837.799	NaN	-3.522	1.174	9.163	1503.297	1504.029	1509.890	-7.160	0.427	6.046	-6.278	-0.766	8.038
449838.776	NaN	-3.522	1.174	9.163	1503.297	1503.297	1508.425	-7.130	0.321	5.954	-6.201	-0.612	8.038
449839.752	NaN	-3.511	1.185	9.163	1504.762	1503.297	1510.623	-7.252	0.061	5.908	-6.201	-0.689	8.115
449840.729	NaN	-3.522	1.185	9.163	1504.029	1503.297	1510.623	-7.450	0.031	5.771	-6.278	-0.842	7.885
449841.705	NaN	-3.522	1.185	9.163	1502.564	1503.297	1508.425	-7.221	0.244	5.679	-6.201	-0.689	7.962
449842.682	NaN	-3.522	1.196	9.163	1504.762	1504.029	1510.623	-7.099	0.321	5.832	-6.278	-0.689	7.962
449843.658	NaN	-3.533	1.185	9.163	1504.029	1504.762	1509.890	-7.298	0.137	5.954	-6.278	-0.612	7.962
449844.635	NaN	-3.533	1.185	9.174	1503.297	1503.297	1509.158	-7.374	0.137	5.924	-6.201	-0.689	8.191
449845.612	NaN	-3.543	1.185	9.163	1505.495	1504.029	1509.158	-7.511	0.305	5.878	-6.201	-0.766	8.191
449846.588	NaN	-3.543	1.196	9.163	1504.029	1504.029	1509.158	-7.435	0.305	6.015	-6.201	-0.689	8.038
449847.565	NaN	-3.543	1.196	9.163	1504.762	1504.029	1509.890	-7.252	0.229	6.015	-6.354	-0.766	7.962
449848.541	NaN	-3.543	1.196	9.163	1504.029	1504.762	1510.623	-7.206	0.168	6.183	-6.278	-0.612	8.115
449849.518	NaN	-3.543	1.185	9.152	1503.297	1504.029	1510.623	-7.252	0.290	6.229	-6.278	-0.766	8.191
449850.494	NaN	-3.533	1.185	9.152	1503.297	1503.297	1509.890	-7.420	0.351	6.015	-6.201	-0.766	8.115
449851.471	NaN	-3.533	1.185	9.152	1504.029	1502.564	1508.425	-7.344	0.336	5.817	-6.354	-0.689	8.191
449852.448	NaN	-3.533	1.196	9.152	1504.029	1504.029	1510.623	-7.069	0.092	5.863	-6.124	-0.612	8.038
449853.424	NaN	-3.543	1.185	9.141	1504.762	1504.762	1509.158	-7.069	0.168	6.183	-6.278	-0.536	7.885
449854.401	NaN	-3.543	1.185	9.141	1504.029	1504.762	1509.890	-7.237	0.504	6.214	-6.278	-0.766	8.191
449855.377	NaN	-3.533	1.174	9.152	1503.297	1503.297	1511.355	-7.466	0.504	6.015	-6.278	-0.612	8.038
449856.354	NaN	-3.533	1.174	9.141	1504.762	1504.762	1509.890	-7.328	0.244	5.832	-6.278	-0.766	7.962
449857.330	NaN	-3.543	1.174	9.141	1503.297	1504.762	1509.890	-7.237	0.061	5.756	-6.354	-0.766	8.191
449858.307	NaN	-3.543	1.174	9.141	1504.029	1504.029	1511.355	-7.206	0.153	5.756	-6.354	-0.612	8.268
449859.283	NaN	-3.543	1.185	9.152	1504.762	1503.297	1512.088	-7.206	0.305	5.847	-6.124	-0.766	7.962
449860.260	NaN	-3.543	1.185	9.152	1504.762	1504.762	1511.355	-7.389	0.458	6.000	-6.201	-0.612	8.038
449861.237	3736848895.659	-3.533	1.174	9.163	1504.762	1504.762	1510.623	-7.252	0.458	6.107	-6.278	-0.689	8.115
449862.213	NaN	-3.543	1.174	9.152	1504.762	1503.297	1509.890	-7.130	0.244	6.198	-6.201	-0.766	7.962
449863.190	NaN	-3.554	1.174	9.163	1504.762	1503.297	1509.158	-7.115	0.183	5.969	-6.124	-0.689	8.191
449864.166	NaN	-3.543	1.196	9.174	1503.297	1504.762	1509.890	-7.176	0.275	5.985	-6.278	-0.766	7.962
449865.143	NaN	-3.543	1.185	9.163	1501.832	1503.297	1509.158	-7.298	0.198	5.863	-6.201	-0.612	8.038
449866.119	NaN	-3.543	1.174	9.174	1504.029	1503.297	1508.425	-7.008	0.168	5.802	-6.354	-0.766	7.962
449867.096	NaN	-3.543	1.174	9.174	1504.762	1504.029	1509.890	-6.901	0.229	5.954	-6.124	-0.689	8.115
449868.073	NaN	-3.543	1.174	9.163	1504.029	1504.029	1508.425	-7.084	0.168	6.000	-6.278	-0.689	8.038
449869.049	NaN	-3.533	1.174	9.174	1504.762	1504.762	1509.158	-7.405	0.366	5.969	-6.278	-0.766	7.962
449870.026	NaN	-3.543	1.174	9.174	1504.762	1504.029	1509.158	-7.405	0.427	5.771	-6.354	-0.612	8.038
449871.002	NaN	-3.543	1.163	9.174	1504.762	1503.297	1509.158	-7.160	0.443	5.710	-6.354	-0.689	8.191
449871.979	NaN	-3.543	1.163	9.174	1504.029	1503.297	1510.623	-7.069	0.489	5.802	-6.201	-0.842	7.885
449872.955	NaN	-3.543	1.185	9.174	1504.762	1504.029	1509.158	-7.160	0.382	5.939	-6.278	-0.536	8.115
449873.932	NaN	-3.533	1.174	9.163	1504.029	1504.762	1509.890	-7.374	0.275	5.969	-6.278	-0.689	7.962
449874.908	NaN	-3.533	1.174	9.174	1504.029	1504.762	1510.623	-7.176	0.275	5.924	-6.278	-0.689	8.038
449875.885	NaN	-3.543	1.174	9.163	1504.029	1503.297	1509.158	-7.069	0.336	5.863	-6.201	-0.842	8.115
449876.862	NaN	-3.543	1.185	9.163	1505.495	1504.762	1509.158	-7.191	0.168	5.924	-6.278	-0.689	8.038
449877.838	NaN	-3.543	1.185	9.163	1504.029	1504.762	1509.890	-7.481	0.198	5.893	-6.201	-0.689	7.885
449878.815	NaN	-3.543	1.185	9.163	1504.029	1504.762	1509.890	-7.221	0.336	5.969	-6.124	-0.766	8.038
449879.791	NaN	-3.543	1.185	9.174	1504.029	1504.762	1509.158	-7.099	0.305	6.214	-6.201	-0.689	7.962
449880.768	NaN	-3.543	1.174	9.163	1503.297	1503.297	1509.890	-7.298	0.260	6.137	-6.354	-0.766	7.962
449881.744	NaN	-3.533	1.185	9.163	1504.762	1505.495	1509.158	-7.405	0.290	6.076	-6.201	-0.766	8.115
449882.721	NaN	-3.533	1.185	9.174	1504.762	1504.762	1510.623	-7.435	0.305	5.908	-6.354	-0.612	8.115
449883.698	NaN	-3.533	1.185	9.174	1503.297	1503.297	1511.355	-7.313	0.336	5.802	-6.278	-0.689	7.962
449884.674	NaN	-3.533	1.174	9.174	1503.297	1504.029	1509.890	-7.191	0.489	5.725	-6.201	-0.689	8.038
449885.651	NaN	-3.533	1.174	9.185	1504.029	1503.297	1508.425	-7.069	0.565	5.634	-6.354	-0.842	8.115
449886.627	NaN	-3.533	1.185	9.196	1505.495	1504.762	1509.890	-7.206	0.397	5.756	-6.278	-0.536	8.038
449887.604	NaN	-3.533	1.185	9.217	1505.495	1504.029	1509.158	-7.206	0.305	5.954	-6.278	-0.612	8.115
449888.580	NaN	-3.533	1.185	9.207	1504.762	1504.029	1510.623	-7.115	0.275	5.969	-6.278	-0.766	8.115
449889.557	NaN	-3.533	1.185	9.196	1504.029	1504.762	1508.425	-7.389	0.427	5.954	-6.431	-0.612	8.038
449890.533	NaN	-3.533	1.185	9.196	1506.227	1504.762	1511.355	-7.405	0.504	6.031	-6.278	-0.689	7.962
449891.510	NaN	-3.522	1.185	9.185	1504.762	1504.762	1510.623	-7.237	0.351	5.832	-6.124	-0.689	8.115
449892.487	NaN	-3.533	1.174	9.196	1504.762	1504.029	1509.890	-6.931	0.321	5.786	-6.354	-0.612	7.962
449893.463	NaN	-3.533	1.174	9.196	1505.495	1504.029	1509.158	-6.977	0.305	5.924	-6.278	-0.612	8.115
449894.440	NaN	-3.533	1.163	9.185	1504.762	1504.029	1509.890	-7.328	0.351	5.939	-6.201	-0.689	8.038
449895.416	NaN	-3.533	1.163	9.185	1504.029	1503.297	1509.158	-7.344	0.458	5.878	-6.278	-0.689	8.268
449896.393	NaN	-3.522	1.174	9.174	1504.762	1504.029	1511.355	-7.282	0.458	5.847	-6.278	-0.766	8.115
449897.369	NaN	-3.522	1.174	9.174	1504.762	1504.762	1509.890	-7.298	0.397	5.908	-6.278	-0.612	8.038
449898.346	NaN	-3.533	1.174	9.174	1503.297	1504.029	1509.890	-7.359	0.382	6.031	-6.278	-0.766	8.038
449899.323	NaN	-3.533	1.185	9.174	1504.762	1504.762	1510.623	-7.221	0.366	5.863	-6.354	-0.766	7.885
449900.299	NaN	-3.533	1.185	9.185	1504.029	1504.029	1509.890	-7.496	0.275	5.740	-6.431	-0.689	7.809
449901.276	NaN	-3.533	1.174	9.174	1504.029	1504.762	1510.623	-7.450	0.305	5.649	-6.278	-0.689	7.885
449902.252	NaN	-3.533	1.163	9.152	1504.029	1503.297	1510.623	-7.298	0.198	5.771	-6.278	-0.689	7.962
449903.229	NaN	-3.543	1.163	9.152	1504.762	1504.029	1509.890	-7.252	0.244	5.878	-6.201	-0.612	8.038
449904.205	NaN	-3.533	1.174	9.152	1505.495	1504.029	1511.355	-7.084	0.275	5.908	-6.278	-0.689	8.115
449905.182	NaN	-3.543	1.174	9.174	1503.297	1504.029	1509.890	-7.130	0.366	5.985	-6.278	-0.689	7.885
449906.158	NaN	-3.522	1.185	9.174	1503.297	1504.762	1509.890	-7.053	0.305	6.153	-6.278	-0.612	8.038
449907.135	NaN	-3.533	1.185	9.163	1504.029	1504.029	1508.425	-7.084	0.382	5.924	-6.278	-0.766	7.962
449908.112	NaN	-3.543	1.185	9.163	1504.029	1503.297	1509.890	-7.191	0.427	5.649	-6.201	-0.766	8.115
449909.088	NaN	-3.533	1.196	9.163	1504.029	1504.029	1509.890	-7.420	0.412	5.679	-6.201	-0.689	7.962
449910.065	NaN	-3.533	1.196	9.174	1504.762	1504.762	1510.623	-7.298	0.153	5.817	-6.354	-0.766	8.038
449911.041	NaN	-3.533	1.185	9.163	1504.029	1504.029	1512.088	-7.160	0.198	5.985	-6.124	-0.689	8.115
449912.018	NaN	-3.533	1.185	9.152	1504.029	1504.029	1509.890	-7.008	0.489	6.214	-6.278	-0.766	8.038
449912.994	NaN	-3.522	1.196	9.152	1504.762	1504.029	1509.158	-7.252	0.382	6.153	-6.201	-0.536	8.115
449913.971	NaN	-3.522	1.185	9.152	1503.297	1503.297	1508.425	-7.374	0.351	5.954	-6.354	-0.689	8.115
449914.948	NaN	-3.522	1.185	9.141	1504.029	1503.297	1509.158	-7.405	0.366	5.893	-6.354	-0.689	8.191
449915.924	NaN	-3.511	1.185	9.152	1503.297	1504.029	1509.158	-7.267	0.336	5.939	-6.201	-0.612	8.115
449916.901	NaN	-3.522	1.185	9.152	1504.762	1504.029	1508.425	-7.099	0.397	5.878	-6.201	-0.612	8.038
449917.877	NaN	-3.522	1.185	9.152	1504.762	1504.762	1510.623	-7.038	0.565	5.832	-6.431	-0.689	8.115
449918.854	NaN	-3.522	1.185	9.152	1503.297	1504.762	1509.158	-7.145	0.382	5.863	-6.278	-0.689	7.962
449919.830	NaN	-3.533	1.185	9.152	1504.029	1504.029	1510.623	-7.206	0.183	5.786	-6.278	-0.689	7.962
449920.807	NaN	-3.533	1.174	9.152	1504.762	1504.029	1509.890	-7.282	0.244	5.618	-6.124	-0.689	7.962
449921.783	NaN	-3.543	1.174	9.163	1504.029	1504.762	1511.355	-7.313	0.321	5.679	-6.124	-0.689	8.038
449922.760	NaN	-3.533	1.174	9.174	1504.762	1504.762	1509.158	-7.359	0.412	5.893	-6.124	-0.689	8.191
449923.737	NaN	-3.522	1.174	9.163	1504.762	1504.029	1510.623	-7.115	0.244	6.031	-6.278	-0.689	8.038
449924.713	NaN	-3.533	1.163	9.152	1504.762	1504.029	1509.158	-6.901	0.046	6.031	-6.201	-0.766	8.191
449925.690	NaN	-3.533	1.152	9.152	1504.029	1504.762	1509.890	-6.992	0.198	5.924	-6.278	-0.689	8.115
449926.666	NaN	-3.522	1.163	9.152	1505.495	1504.762	1510.623	-6.947	0.321	5.817	-6.278	-0.689	8.115
449927.643	NaN	-3.522	1.163	9.163	1504.029	1504.029	1510.623	-7.069	0.336	5.679	-6.354	-0.612	8.038
449928.619	NaN	-3.533	1.163	9.174	1503.297	1504.029	1509.890	-7.252	0.183	5.756	-6.124	-0.612	7.885
449929.596	NaN	-3.533	1.174	9.174	1503.297	1503.297	1509.890	-7.115	0.290	5.740	-6.201	-0.689	7.885
449930.573	NaN	-3.522	1.163	9.163	1503.297	1503.297	1509.158	-7.023	0.382	5.786	-6.278	-0.612	7.962
449931.549	NaN	-3.511	1.163	9.163	1504.762	1504.029	1509.890	-7.191	0.336	5.954	-6.201	-0.689	8.038
449932.526	NaN	-3.511	1.152	9.152	1504.762	1504.029	1509.890	-7.374	0.382	5.802	-6.124	-0.842	8.191
449933.502	NaN	-3.522	1.152	9.141	1504.762	1502.564	1510.623	-7.344	0.305	5.557	-6.278	-0.766	7.962
449934.479	NaN	-3.522	1.152	9.141	1504.762	1504.029	1510.623	-7.053	0.305	5.740	-6.354	-0.766	8.115
449935.455	NaN	-3.522	1.163	9.152	1505.495	1504.029	1509.890	-7.084	0.290	5.908	-6.278	-0.766	8.191
449936.432	NaN	-3.522	1.163	9.163	1504.762	1503.297	1509.158	-7.344	0.260	5.802	-4.976	-0.766	8.268
449937.408	NaN	-3.522	1.163	9.174	1505.495	1503.297	1510.623	-7.206	0.321	5.817	-6.431	-0.612	8.115
449938.385	NaN	-3.522	1.174	9.163	1504.762	1503.297	1510.623	-7.160	0.260	5.924	-6.278	-0.689	8.115
449939.362	NaN	-3.522	1.174	9.163	1504.762	1504.029	1511.355	-7.389	0.351	6.015	-6.354	-0.612	8.268
449940.338	NaN	-3.522	1.185	9.163	1505.495	1503.297	1509.890	-7.450	0.458	5.878	-6.201	-0.612	8.191
449941.315	NaN	-3.522	1.185	9.152	1504.762	1504.762	1509.158	-7.038	0.382	5.847	-6.278	-0.612	8.038
449942.291	NaN	-3.533	1.174	9.152	1504.029	1503.297	1510.623	-7.053	0.534	5.985	-6.278	-0.689	8.038
449943.268	NaN	-3.522	1.174	9.141	1504.762	1504.762	1510.623	-7.023	0.504	6.061	-6.278	-0.689	7.962
449944.244	NaN	-3.533	1.185	9.141	1505.495	1504.762	1509.890	-7.038	0.397	6.015	-6.354	-0.689	8.038
449945.221	NaN	-3.533	1.185	9.152	1504.029	1504.762	1510.623	-7.191	0.214	5.893	-6.124	-0.689	8.115
449946.198	NaN	-3.533	1.174	9.163	1504.029	1504.762	1509.158	-7.374	0.336	5.863	-6.354	-0.612	8.038
449947.174	NaN	-3.543	1.174	9.163	1504.029	1503.297	1509.158	-7.298	0.290	5.817	-6.278	-0.612	8.191
449948.151	NaN	-3.543	1.185	9.152	1504.029	1504.029	1509.158	-7.084	0.321	5.817	-6.124	-0.766	8.038
449949.127	NaN	-3.543	1.185	9.152	1504.029	1504.762	1510.623	-7.069	0.397	5.893	-6.278	-0.689	8.115
449950.104	NaN	-3.543	1.185	9.141	1504.029	1504.029	1509.158	-7.252	0.489	5.863	-6.278	-0.689	8.115
449951.080	NaN	-3.543	1.174	9.152	1504.029	1503.297	1509.890	-7.099	0.412	5.771	-6.201	-0.766	8.191
449966.705	NaN	-3.533	1.185	9.152	1505.495	1504.029	1511.355	-7.237	0.290	5.908	-6.278	-0.689	7.962
449967.682	NaN	-3.522	1.185	9.163	1504.762	1504.029	1509.890	-7.328	0.275	5.954	-6.431	-0.689	7.885
449968.658	NaN	-3.522	1.185	9.152	1504.762	1504.029	1510.623	-7.176	0.427	5.908	-6.278	-0.766	8.038
449969.635	NaN	-3.533	1.185	9.152	1504.762	1504.762	1510.623	-7.099	0.458	5.725	-6.201	-0.766	8.038
449970.612	NaN	-3.522	1.185	9.163	1504.762	1504.029	1510.623	-6.885	0.336	5.802	-6.201	-0.689	7.885
449971.588	NaN	-3.511	1.196	9.174	1505.495	1504.029	1510.623	-6.931	0.275	5.725	-6.201	-0.689	8.191
449972.565	NaN	-3.533	1.185	9.174	1504.762	1504.029	1509.158	-7.069	0.321	5.710	-6.278	-0.766	8.038
449973.541	NaN	-3.522	1.185	9.185	1502.564	1503.297	1509.890	-6.916	0.397	5.710	-6.278	-0.612	8.115
449974.518	NaN	-3.522	1.163	9.174	1504.762	1504.762	1509.890	-6.885	0.550	5.786	-6.124	-0.689	8.115
449975.494	NaN	-3.522	1.163	9.163	1504.029	1504.029	1510.623	-7.053	0.397	5.954	-6.278	-0.842	8.038
449976.471	NaN	-3.522	1.174	9.163	1504.029	1504.029	1507.692	-7.069	0.229	5.908	-6.278	-0.689	7.962
449977.448	NaN	-3.511	1.174	9.163	1504.762	1504.762	1509.890	-7.176	0.214	5.740	-6.354	-0.689	8.038
449978.424	NaN	-3.522	1.174	9.152	1503.297	1503.297	1509.158	-7.252	0.550	5.878	-6.278	-0.689	8.038
449979.401	NaN	-3.543	1.174	9.141	1504.762	1504.762	1510.623	-7.130	0.565	6.092	-6.278	-0.612	8.115
449980.377	NaN	-3.533	1.185	9.141	1506.227	1504.762	1510.623	-7.313	0.443	5.954	-6.278	-0.612	8.038
449981.354	NaN	-3.543	1.174	9.141	1504.762	1504.029	1509.890	-7.298	0.397	5.756	-6.278	-0.689	8.038
449982.330	NaN	-3.533	1.174	9.174	1502.564	1504.029	1509.158	-6.962	0.489	5.664	-6.201	-0.766	8.038
449983.307	NaN	-3.522	1.185	9.163	1504.029	1504.029	1509.158	-6.885	0.336	5.725	-6.201	-0.766	7.962
449984.283	NaN	-3.533	1.185	9.163	1504.762	1505.495	1509.158	-7.008	0.336	5.802	-6.278	-0.689	8.115
449985.260	NaN	-3.533	1.163	9.152	1502.564	1504.029	1509.158	-7.008	0.305	5.985	-6.278	-0.689	8.191
449986.237	NaN	-3.522	1.174	9.174	1505.495	1502.564	1509.158	-7.145	0.275	5.954	-6.201	-0.689	8.191
449987.213	NaN	-3.511	1.185	9.174	1504.762	1504.029	1510.623	-7.038	0.122	5.954	-6.201	-0.766	8.115
449988.190	NaN	-3.511	1.174	9.163	1503.297	1503.297	1508.425	-6.992	0.244	5.817	-6.124	-0.842	8.038
449989.166	NaN	-3.500	1.185	9.163	1504.029	1504.762	1510.623	-7.008	0.397	5.954	-6.278	-0.766	8.115
449990.143	NaN	-3.533	1.174	9.152	1504.029	1503.297	1509.890	-7.053	0.305	6.000	-6.124	-0.612	7.962
449991.119	NaN	-3.522	1.185	9.163	1504.762	1502.564	1509.158	-7.282	0.229	5.802	-6.278	-0.612	7.962
449992.096	NaN	-3.533	1.185	9.163	1504.029	1503.297	1509.890	-7.160	0.321	5.710	-6.201	-0.766	7.962
449993.073	NaN	-3.522	1.185	9.152	1504.029	1504.029	1509.890	-7.221	0.351	6.000	-6.278	-0.689	7.962
449994.049	NaN	-3.533	1.185	9.163	1504.029	1503.297	1509.890	-7.084	0.351	6.061	-6.201	-0.612	7.809
449995.026	NaN	-3.533	1.185	9.163	1504.029	1504.029	1510.623	-6.870	0.458	6.031	-6.201	-0.612	8.115
449996.002	NaN	-3.533	1.174	9.163	1504.762	1504.762	1509.158	-6.962	0.595	5.817	-6.278	-0.842	8.115
449996.979	NaN	-3.533	1.163	9.163	1503.297	1502.564	1508.425	-7.267	0.580	5.817	-6.278	-0.689	8.115
449997.955	NaN	-3.522	1.163	9.163	1504.029	1503.297	1509.158	-7.313	0.336	5.847	-6.278	-0.689	8.038
449998.932	NaN	-3.522	1.163	9.163	1504.762	1504.029	1509.890	-7.313	0.107	5.878	-6.278	-0.612	8.191
449999.908	NaN	-3.522	1.174	9.163	1505.495	1504.762	1509.890	-7.099	0.168	5.954	-6.124	-0.842	7.962
450000.885	NaN	-3.533	1.174	9.174	1504.029	1504.029	1509.890	-6.947	0.366	6.046	-6.201	-0.766	7.962
450001.862	NaN	-3.522	1.174	9.174	1504.029	1504.029	1509.158	-7.160	0.626	6.015	-6.278	-0.766	8.191
450002.838	NaN	-3.533	1.174	9.174	1504.029	1503.297	1509.890	-7.237	0.519	5.847	-6.201	-0.766	8.115
450003.815	NaN	-3.522	1.185	9.163	1504.029	1503.297	1508.425	-7.008	0.489	5.588	-6.201	-0.766	8.344
450004.791	NaN	-3.511	1.185	9.174	1504.762	1504.029	1509.158	-6.855	0.534	5.557	-6.201	-0.842	8.038
450005.768	NaN	-3.522	1.174	9.174	1504.762	1503.297	1510.623	-6.702	0.489	5.725	-6.201	-0.766	7.962
450006.744	NaN	-3.522	1.185	9.174	1504.029	1504.029	1509.890	-7.008	0.366	5.832	-6.278	-0.689	8.038
450007.721	NaN	-3.511	1.185	9.174	1504.762	1504.762	1510.623	-7.267	0.305	5.863	-6.354	-0.612	8.038
450008.698	NaN	-3.511	1.185	9.152	1504.762	1504.029	1509.158	-7.221	0.275	5.878	-6.354	-0.766	8.038
450009.674	NaN	-3.511	1.185	9.152	1503.297	1504.029	1509.158	-7.298	0.458	5.939	-6.354	-0.689	7.885
450010.651	NaN	-3.533	1.174	9.130	1504.029	1504.029	1509.158	-7.099	0.504	6.046	-6.354	-0.612	8.038
450011.627	NaN	-3.533	1.185	9.130	1504.029	1503.297	1509.158	-6.947	0.504	6.015	-6.278	-0.536	7.962
450012.604	NaN	-3.533	1.196	9.141	1504.029	1504.762	1509.890	-6.962	0.351	5.817	-6.278	-0.842	8.038
450013.580	NaN	-3.543	1.185	9.141	1504.029	1504.029	1509.890	-7.053	0.244	5.832	-6.354	-0.612	8.115
450014.557	NaN	-3.543	1.174	9.152	1503.297	1504.029	1509.158	-7.099	0.427	5.710	-6.201	-0.689	8.115
450015.533	NaN	-3.533	1.196	9.152	1505.495	1504.762	1510.623	-7.237	0.504	5.908	-6.048	-0.612	7.962
450016.510	NaN	-3.533	1.185	9.152	1503.297	1504.029	1509.890	-7.374	0.275	5.817	-6.278	-0.766	8.038
450017.487	NaN	-3.511	1.196	9.163	1504.762	1503.297	1509.158	-7.267	0.183	5.771	-6.201	-0.766	8.191
450018.463	NaN	-3.522	1.185	9.163	1504.029	1504.762	1509.890	-6.977	0.229	5.786	-6.278	-0.842	8.038
450019.440	NaN	-3.533	1.174	9.163	1504.762	1503.297	1509.890	-7.008	0.382	5.588	-6.278	-0.612	8.038
450020.416	NaN	-3.522	1.185	9.163	1504.762	1504.762	1510.623	-6.824	0.397	5.664	-6.354	-0.689	8.038
450021.393	NaN	-3.533	1.174	9.152	1504.762	1503.297	1509.158	-6.885	0.336	5.802	-6.431	-0.766	7.885
450022.369	NaN	-3.533	1.185	9.174	1504.029	1503.297	1508.425	-7.053	0.351	5.740	-6.278	-0.766	8.115
450023.346	NaN	-3.533	1.174	9.163	1504.762	1504.029	1509.890	-6.885	0.336	5.740	-6.201	-0.689	7.962
450024.323	NaN	-3.522	1.163	9.174	1504.029	1503.297	1509.158	-6.916	0.382	5.878	-6.201	-0.536	8.115
450025.299	NaN	-3.533	1.174	9.163	1505.495	1504.029	1509.890	-6.870	0.443	5.863	-6.431	-0.689	8.191
450026.276	NaN	-3.522	1.185	9.163	1505.495	1504.029	1510.623	-7.008	0.580	5.710	-6.354	-0.689	8.038
450027.252	NaN	-3.522	1.174	9.163	1504.029	1504.029	1509.890	-7.038	0.611	5.634	-6.201	-0.766	7.962
450028.229	NaN	-3.533	1.174	9.163	1504.762	1503.297	1510.623	-7.191	0.565	5.695	-6.278	-0.766	8.191
450029.205	NaN	-3.533	1.174	9.163	1504.762	1505.495	1509.890	-7.359	0.458	5.924	-6.124	-0.536	8.038
450030.182	NaN	-3.543	1.174	9.163	1504.762	1504.029	1510.623	-7.069	0.412	5.939	-6.124	-0.536	8.268
450031.158	NaN	-3.533	1.174	9.152	1504.762	1503.297	1509.158	-6.718	0.382	5.832	-6.278	-0.689	8.038
450032.135	NaN	-3.533	1.174	9.163	1504.762	1504.029	1509.890	-6.840	0.321	5.863	-6.278	-0.766	8.038
450033.112	NaN	-3.543	1.174	9.163	1504.762	1503.297	1509.158	-7.099	0.305	5.725	-6.354	-0.689	8.191
450034.088	NaN	-3.543	1.163	9.163	1503.297	1503.297	1508.425	-7.160	0.397	5.878	-6.201	-0.612	7.962
450035.065	NaN	-3.543	1.174	9.163	1503.297	1502.564	1508.425	-6.962	0.382	5.924	-6.201	-0.612	8.038
450036.041	NaN	-3.533	1.174	9.152	1504.029	1504.762	1509.158	-6.962	0.382	5.832	-6.124	-0.766	8.191
450037.018	NaN	-3.543	1.163	9.152	1504.762	1504.029	1510.623	-7.084	0.366	5.786	-6.278	-0.766	8.038
450037.994	NaN	-3.533	1.174	9.174	1505.495	1504.762	1510.623	-7.115	0.275	5.954	-6.354	-0.689	7.962
450038.971	NaN	-3.533	1.163	9.185	1504.029	1504.762	1511.355	-7.176	0.229	5.985	-6.354	-0.766	7.962
450039.948	NaN	-3.543	1.163	9.185	1504.029	1504.762	1509.158	-7.221	0.321	5.740	-6.354	-0.689	8.191
450040.924	NaN	-3.543	1.163	9.185	1504.029	1504.029	1509.890	-7.130	0.366	5.618	-6.278	-0.766	8.038
450041.901	NaN	-3.543	1.163	9.196	1505.495	1503.297	1510.623	-7.008	0.382	5.802	-6.354	-0.689	8.268
450042.877	NaN	-3.533	1.185	9.196	1506.227	1504.762	1509.158	-7.069	0.580	5.893	-6.278	-0.766	8.038
450043.854	NaN	-3.533	1.185	9.185	1504.762	1503.297	1510.623	-7.115	0.611	5.771	-6.201	-0.689	8.115
450044.830	NaN	-3.533	1.174	9.174	1504.029	1504.762	1509.890	-7.099	0.489	5.710	-6.278	-0.766	8.115
450045.807	NaN	-3.543	1.174	9.152	1504.762	1504.029	1509.890	-6.947	0.351	5.450	-6.278	-0.612	8.191
450046.783	NaN	-3.543	1.185	9.152	1504.762	1504.762	1511.355	-6.840	0.351	5.588	-6.278	-0.689	7.962
450047.760	NaN	-3.522	1.174	9.163	1504.029	1504.762	1511.355	-7.053	0.305	5.847	-6.124	-0.689	7.962
450048.737	NaN	-3.511	1.174	9.163	1504.762	1504.762	1510.623	-7.084	0.412	5.802	-6.354	-0.612	7.962
450049.713	NaN	-3.522	1.163	9.163	1504.029	1504.762	1510.623	-7.191	0.458	5.847	-6.201	-0.689	8.038
450050.690	NaN	-3.533	1.163	9.163	1503.297	1503.297	1508.425	-7.130	0.611	6.000	-6.354	-0.612	7.962
450051.666	NaN	-3.522	1.174	9.163	1504.029	1504.029	1510.623	-6.916	0.763	5.954	-6.278	-0.689	8.038
450052.643	NaN	-3.533	1.185	9.174	1504.029	1504.762	1509.890	-6.718	0.519	5.771	-6.354	-0.536	8.038
450053.619	NaN	-3.533	1.174	9.174	1504.762	1504.029	1509.890	-6.779	0.336	5.878	-6.201	-0.689	8.038
450054.596	NaN	-3.522	1.185	9.185	1504.762	1504.762	1512.088	-7.053	0.244	5.924	-6.201	-0.766	8.115
450055.573	3736848895.824	-3.543	1.185	9.174	1505.495	1504.029	1511.355	-7.160	0.260	5.832	-6.278	-0.766	7.809
450056.549	NaN	-3.522	1.185	9.174	1504.029	1505.495	1509.890	-6.977	0.443	5.832	-6.201	-0.689	8.115
450057.526	NaN	-3.511	1.185	9.185	1505.495	1504.762	1508.425	-7.099	0.412	5.527	-6.124	-0.459	8.038
450058.502	NaN	-3.522	1.185	9.174	1504.762	1504.029	1509.890	-7.115	0.443	5.435	-6.278	-0.766	8.115
450059.479	NaN	-3.533	1.174	9.163	1503.297	1504.029	1511.355	-7.069	0.504	5.618	-6.278	-0.612	8.038
450060.455	NaN	-3.522	1.185	9.174	1506.227	1504.762	1509.890	-7.237	0.565	5.756	-6.278	-0.766	8.191
450061.432	NaN	-3.522	1.185	9.163	1504.762	1504.029	1510.623	-7.282	0.641	5.924	-6.124	-0.766	8.115
450062.408	NaN	-3.522	1.185	9.163	1504.762	1504.029	1509.158	-7.160	0.473	5.924	-6.278	-0.612	8.115
450063.385	NaN	-3.522	1.185	9.163	1504.029	1504.029	1509.158	-7.008	0.397	5.893	-6.354	-0.766	7.962
450064.362	NaN	-3.533	1.196	9.163	1505.495	1503.297	1509.890	-6.779	0.397	5.939	-6.201	-0.612	8.191
450065.338	NaN	-3.533	1.185	9.174	1505.495	1504.029	1510.623	-7.069	0.519	5.908	-6.201	-0.689	8.038
450066.315	NaN	-3.522	1.185	9.163	1504.762	1504.029	1510.623	-6.962	0.519	5.802	-6.124	-0.612	8.038
450067.291	NaN	-3.522	1.185	9.163	1504.029	1504.762	1509.158	-6.992	0.443	5.893	-6.201	-0.689	7.885
450068.268	NaN	-3.533	1.163	9.163	1504.762	1503.297	1509.158	-7.191	0.504	5.832	-6.278	-0.612	8.191
450069.244	NaN	-3.522	1.174	9.163	1505.495	1504.762	1511.355	-7.206	0.489	5.588	-6.278	-0.766	8.038
450070.221	NaN	-3.522	1.174	9.163	1504.762	1504.029	1510.623	-6.977	0.473	5.664	-6.201	-0.689	7.962
450071.198	NaN	-3.533	1.185	9.163	1505.495	1504.029	1510.623	-6.718	0.458	5.771	-6.354	-0.689	8.115
450072.174	NaN	-3.533	1.185	9.163	1504.762	1504.029	1509.890	-6.809	0.489	5.573	-6.278	-0.459	8.038
450073.151	NaN	-3.533	1.185	9.163	1504.029	1504.762	1509.890	-6.824	0.443	5.603	-6.354	-0.612	8.038
450074.127	NaN	-3.522	1.185	9.163	1505.495	1504.762	1510.623	-6.870	0.550	5.695	-6.278	-0.612	7.962
450075.104	NaN	-3.522	1.185	9.152	1504.029	1503.297	1508.425	-7.023	0.443	5.756	-6.278	-0.612	8.115
450076.080	NaN	-3.522	1.185	9.163	1504.029	1503.297	1509.890	-7.008	0.275	5.893	-6.201	-0.689	8.115
450077.057	NaN	-3.543	1.174	9.163	1504.762	1504.029	1509.890	-6.916	0.290	5.740	-6.278	-0.689	8.115
450078.033	NaN	-3.543	1.174	9.163	1504.029	1504.029	1508.425	-6.733	0.305	5.603	-6.278	-0.612	8.038
450079.010	NaN	-3.533	1.185	9.185	1505.495	1504.762	1509.158	-6.748	0.336	5.466	-6.278	-0.689	7.962
450079.987	NaN	-3.543	1.185	9.174	1504.762	1504.762	1509.890	-7.023	0.336	5.557	-6.201	-0.689	8.115
450080.963	NaN	-3.543	1.185	9.185	1501.832	1503.297	1509.158	-7.145	0.473	5.908	-6.354	-0.766	8.268
450081.940	NaN	-3.543	1.185	9.174	1504.029	1504.762	1509.890	-7.053	0.489	5.878	-6.124	-0.689	8.038
450082.916	NaN	-3.543	1.185	9.163	1503.297	1503.297	1509.158	-6.992	0.382	5.893	-6.354	-0.689	8.115
450083.893	NaN	-3.533	1.196	9.152	1504.762	1504.029	1510.623	-6.748	0.275	5.985	-6.278	-0.766	8.191
450084.869	NaN	-3.522	1.174	9.152	1504.029	1504.029	1509.890	-6.779	0.214	5.740	-6.354	-0.689	8.038
450085.846	NaN	-3.511	1.174	9.163	1503.297	1503.297	1508.425	-6.748	0.351	5.603	-6.201	-0.766	8.038
450086.823	NaN	-3.500	1.185	9.174	1504.029	1504.029	1509.158	-6.763	0.366	5.588	-6.201	-0.612	8.115
450087.799	NaN	-3.500	1.185	9.163	1504.762	1504.762	1510.623	-7.038	0.198	5.618	-6.201	-0.612	8.191
450088.776	NaN	-3.511	1.185	9.152	1504.029	1504.029	1511.355	-6.962	0.244	5.771	-6.278	-0.689	8.038
450089.752	NaN	-3.522	1.174	9.152	1504.762	1504.029	1509.158	-6.824	0.427	5.847	-6.278	-0.766	7.962
450090.729	NaN	-3.522	1.174	9.152	1504.029	1503.297	1508.425	-6.855	0.565	5.863	-6.201	-0.689	8.038
450091.705	NaN	-3.511	1.185	9.152	1504.762	1504.762	1510.623	-6.931	0.382	5.725	-6.278	-0.612	7.962
450092.682	NaN	-3.533	1.163	9.141	1504.029	1503.297	1507.692	-6.916	0.260	5.740	-6.278	-0.766	8.268
450093.658	NaN	-3.533	1.163	9.141	1504.029	1503.297	1507.692	-6.977	0.168	5.786	-6.201	-0.689	8.191
450094.635	NaN	-3.533	1.163	9.163	1504.029	1504.029	1509.158	-7.145	0.305	5.710	-6.278	-0.689	7.809
450095.612	NaN	-3.533	1.163	9.174	1503.297	1503.297	1509.890	-7.084	0.412	5.664	-6.201	-0.766	8.038
450096.588	NaN	-3.533	1.163	9.174	1502.564	1504.762	1507.692	-6.977	0.580	5.496	-6.201	-0.766	7.962
450097.565	NaN	-3.511	1.174	9.185	1505.495	1504.762	1509.890	-6.809	0.565	5.405	-6.201	-0.766	8.191
450098.541	NaN	-3.533	1.174	9.185	1504.029	1504.029	1510.623	-6.870	0.351	5.664	-6.124	-0.766	7.885
450099.518	NaN	-3.543	1.185	9.174	1502.564	1503.297	1510.623	-6.870	0.198	5.740	-6.278	-0.689	8.115
450100.494	NaN	-3.533	1.185	9.163	1505.495	1504.762	1510.623	-6.824	0.244	5.542	-6.278	-0.842	8.115
450101.471	NaN	-3.533	1.185	9.174	1504.029	1502.564	1509.158	-6.916	0.382	5.481	-6.278	-0.612	8.115
450102.448	NaN	-3.522	1.196	9.174	1503.297	1504.762	1509.158	-6.885	0.290	5.695	-6.201	-0.689	8.115
450103.424	NaN	-3.533	1.174	9.163	1502.564	1504.029	1510.623	-6.977	0.275	5.740	-6.354	-0.689	8.115
450104.401	NaN	-3.533	1.174	9.163	1504.762	1504.029	1508.425	-6.855	0.290	5.618	-6.278	-0.689	8.115
450105.377	NaN	-3.511	1.174	9.163	1504.029	1505.495	1509.890	-6.870	0.290	5.450	-6.201	-0.612	8.191
450106.354	NaN	-3.533	1.163	9.152	1505.495	1504.029	1510.623	-6.809	0.397	5.389	-6.278	-0.842	8.038
450107.330	NaN	-3.522	1.163	9.163	1504.029	1503.297	1508.425	-6.870	0.351	5.450	-6.354	-0.689	8.038
450108.307	NaN	-3.543	1.174	9.152	1504.029	1504.029	1509.158	-6.779	0.214	5.450	-6.124	-0.689	7.885
450109.283	NaN	-3.543	1.185	9.152	1505.495	1504.029	1511.355	-6.779	0.351	5.664	-6.431	-0.689	8.038
450110.260	NaN	-3.533	1.174	9.163	1504.762	1504.029	1509.890	-6.931	0.397	5.908	-6.278	-0.766	8.191
450111.237	NaN	-3.533	1.174	9.163	1504.762	1504.029	1509.158	-7.023	0.397	5.786	-6.354	-0.612	8.038
450112.213	NaN	-3.522	1.174	9.163	1504.029	1504.762	1510.623	-6.855	0.443	5.542	-6.201	-0.766	8.115
450113.190	NaN	-3.522	1.152	9.152	1505.495	1504.029	1509.158	-7.053	0.305	5.618	-6.354	-0.766	8.115
450114.166	NaN	-3.522	1.163	9.163	1504.762	1505.495	1509.890	-7.115	0.214	5.725	-6.201	-0.689	8.115
450115.143	NaN	-3.533	1.174	9.141	1504.762	1504.029	1510.623	-7.023	0.412	5.817	-6.278	-0.689	7.885
450116.119	NaN	-3.533	1.174	9.141	1504.029	1504.029	1509.890	-6.870	0.489	5.863	-6.201	-0.766	7.962
450117.096	NaN	-3.543	1.163	9.152	1504.762	1504.029	1510.623	-7.191	0.427	5.588	-6.201	-0.689	8.268
450118.073	NaN	-3.543	1.174	9.152	1504.762	1504.762	1510.623	-7.160	0.321	5.649	-6.278	-0.612	7.962
450119.049	NaN	-3.543	1.185	9.152	1504.762	1504.029	1509.890	-6.855	0.351	5.649	-6.124	-0.766	8.191
450120.026	NaN	-3.533	1.185	9.152	1504.029	1504.762	1509.890	-6.947	0.305	5.649	-6.124	-0.612	8.038
450121.002	NaN	-3.533	1.185	9.141	1504.029	1504.029	1509.890	-6.916	0.504	5.740	-6.278	-0.612	8.038
450121.979	NaN	-3.543	1.174	9.152	1504.029	1504.029	1509.890	-6.870	0.489	5.634	-6.354	-0.689	7.885
450122.955	NaN	-3.543	1.174	9.163	1504.029	1503.297	1508.425	-6.885	0.504	5.725	-6.201	-0.689	8.038
450123.932	NaN	-3.533	1.185	9.174	1504.762	1504.762	1512.088	-6.870	0.473	5.817	-6.201	-0.842	8.115
450124.908	NaN	-3.533	1.185	9.174	1504.029	1504.029	1508.425	-6.840	0.366	5.725	-6.278	-0.766	8.191
450125.885	NaN	-3.533	1.174	9.163	1504.762	1504.029	1511.355	-6.809	0.321	5.664	-6.201	-0.612	8.115
450126.862	NaN	-3.533	1.185	9.163	1504.029	1504.762	1510.623	-6.947	0.214	5.634	-6.278	-0.689	8.115
450127.838	NaN	-3.533	1.185	9.174	1504.762	1504.029	1511.355	-7.160	0.244	5.664	-6.278	-0.766	8.038
450128.815	NaN	-3.522	1.185	9.174	1505.495	1504.029	1509.890	-7.374	0.336	5.664	-6.278	-0.612	8.115
450129.791	NaN	-3.522	1.185	9.174	1504.762	1504.029	1510.623	-7.176	0.504	5.588	-6.278	-0.766	8.038
450130.768	NaN	-3.543	1.185	9.174	1504.762	1504.029	1509.890	-6.870	0.504	5.756	-6.201	-0.689	8.191
450131.744	NaN	-3.533	1.196	9.174	1505.495	1504.762	1509.890	-6.702	0.336	5.878	-6.124	-0.612	8.191
450132.721	NaN	-3.533	1.196	9.174	1504.762	1504.762	1510.623	-6.977	0.260	5.588	-6.278	-0.689	8.038
450133.698	NaN	-3.533	1.196	9.163	1504.762	1504.029	1511.355	-6.977	0.198	5.359	-6.048	-0.766	8.038
450134.674	NaN	-3.533	1.185	9.163	1504.029	1504.029	1509.158	-6.840	0.336	5.481	-6.354	-0.612	8.038
450135.651	NaN	-3.533	1.185	9.163	1504.029	1504.762	1509.890	-6.916	0.336	5.618	-6.201	-0.689	8.115
450136.627	NaN	-3.533	1.185	9.163	1505.495	1504.762	1511.355	-7.206	0.397	5.634	-6.278	-0.612	7.962
450137.604	NaN	-3.533	1.185	9.163	1505.495	1504.029	1510.623	-7.221	0.397	5.725	-6.278	-0.612	7.962
450138.580	NaN	-3.533	1.185	9.163	1504.029	1502.564	1509.158	-6.977	0.412	5.634	-6.201	-0.689	8.038
450139.557	NaN	-3.533	1.185	9.163	1504.762	1503.297	1509.890	-6.763	0.382	5.511	-6.278	-0.612	7.962
450140.533	NaN	-3.543	1.174	9.174	1504.762	1502.564	1508.425	-6.901	0.412	5.496	-6.201	-0.689	8.115
450141.510	NaN	-3.533	1.185	9.185	1503.297	1504.029	1509.890	-6.885	0.229	5.695	-6.278	-0.612	8.038
450142.487	NaN	-3.533	1.185	9.174	1504.029	1504.762	1509.890	-6.870	0.290	5.664	-6.201	-0.689	8.038
450143.463	NaN	-3.533	1.174	9.163	1503.297	1504.029	1510.623	-6.733	0.473	5.588	-6.431	-0.689	8.115
450144.440	NaN	-3.543	1.174	9.152	1504.762	1503.297	1509.158	-6.870	0.321	5.511	-6.201	-0.612	7.962
450145.416	NaN	-3.533	1.174	9.152	1504.762	1504.029	1510.623	-6.901	0.382	5.405	-6.201	-0.612	8.115
450146.393	NaN	-3.522	1.174	9.152	1504.762	1504.029	1510.623	-6.779	0.473	5.450	-6.278	-0.689	8.191
450147.369	NaN	-3.533	1.174	9.152	1504.762	1503.297	1509.158	-7.069	0.260	5.588	-6.431	-0.612	8.115
450148.346	NaN	-3.522	1.174	9.152	1504.029	1503.297	1507.692	-6.977	0.214	5.695	-6.354	-0.612	8.038
450149.323	NaN	-3.522	1.185	9.163	1504.762	1504.762	1510.623	-6.992	0.397	5.618	-6.278	-0.689	8.115
450150.299	NaN	-3.511	1.185	9.163	1504.762	1504.762	1509.890	-6.962	0.443	5.771	-6.278	-0.689	8.115
450151.276	NaN	-3.533	1.174	9.152	1504.762	1504.029	1509.158	-6.763	0.397	5.618	-6.278	-0.689	8.115
450152.252	NaN	-3.522	1.174	9.163	1504.762	1504.762	1509.158	-6.565	0.397	5.511	-6.278	-0.612	8.115
450153.229	NaN	-3.522	1.163	9.163	1504.762	1504.029	1509.158	-6.534	0.244	5.435	-6.201	-0.689	7.962
450154.205	NaN	-3.500	1.174	9.185	1504.762	1504.029	1509.158	-6.947	0.153	5.481	-6.278	-0.689	8.038
450155.182	NaN	-3.500	1.185	9.196	1504.762	1503.297	1509.890	-6.794	0.168	5.679	-6.201	-0.689	7.885
450156.158	NaN	-3.500	1.185	9.174	1504.762	1504.029	1509.890	-6.763	0.168	5.664	-6.278	-0.612	8.038
450157.135	NaN	-3.511	1.185	9.163	1504.029	1503.297	1509.890	-6.672	0.260	5.649	-6.201	-0.612	8.038
450158.112	NaN	-3.511	1.185	9.141	1504.029	1504.762	1509.158	-6.611	0.397	5.695	-6.354	-0.612	8.038
450159.088	NaN	-3.522	1.174	9.141	1504.762	1503.297	1508.425	-6.473	0.504	5.481	-6.124	-0.766	8.038
450160.065	NaN	-3.511	1.174	9.163	1504.029	1503.297	1507.692	-6.855	0.321	5.405	-6.201	-0.766	7.962
450161.041	NaN	-3.511	1.174	9.163	1504.762	1503.297	1509.890	-6.870	0.198	5.450	-6.278	-0.766	8.038
450162.018	NaN	-3.533	1.174	9.152	1504.029	1504.762	1510.623	-6.672	0.198	5.588	-6.201	-0.842	8.115
450162.994	NaN	-3.533	1.185	9.152	1505.495	1505.495	1509.890	-6.855	0.305	5.603	-6.201	-0.766	8.038
450163.971	NaN	-3.533	1.185	9.152	1504.762	1504.762	1509.158	-7.115	0.427	5.695	-6.278	-0.689	8.038
450164.948	NaN	-3.543	1.185	9.163	1504.762	1504.029	1509.158	-7.099	0.443	5.802	-6.201	-0.766	8.191
450165.924	NaN	-3.543	1.185	9.163	1504.029	1504.029	1509.890	-6.885	0.351	5.695	-6.354	-0.766	8.038
450166.901	NaN	-3.554	1.185	9.163	1504.762	1503.297	1509.158	-6.855	0.214	5.618	-6.278	-0.612	8.038
450167.877	NaN	-3.543	1.185	9.185	1504.762	1504.762	1509.158	-6.885	0.183	5.466	-6.278	-0.766	8.191
450168.854	NaN	-3.554	1.185	9.185	1504.029	1504.762	1509.890	-6.977	0.214	5.588	-6.278	-0.689	8.038
450169.830	NaN	-3.554	1.185	9.185	1503.297	1504.029	1510.623	-6.947	0.305	5.573	-6.278	-0.612	8.115
450170.807	NaN	-3.554	1.174	9.196	1504.762	1503.297	1509.890	-6.962	0.412	5.557	-6.354	-0.612	8.038
450171.783	NaN	-3.543	1.185	9.185	1504.762	1504.762	1509.158	-7.145	0.290	5.374	-6.201	-0.766	8.038
450172.760	NaN	-3.533	1.174	9.185	1505.495	1504.762	1509.890	-7.099	0.153	5.344	-6.048	-0.689	7.962
450173.737	NaN	-3.533	1.185	9.174	1504.762	1504.762	1508.425	-6.733	0.336	5.511	-6.278	-0.842	8.038
450174.713	NaN	-3.543	1.174	9.163	1503.297	1503.297	1507.692	-6.656	0.321	5.679	-6.278	-0.689	8.115
450175.690	NaN	-3.533	1.185	9.163	1505.495	1504.029	1508.425	-6.550	0.214	5.679	-6.124	-0.689	8.038
450176.666	NaN	-3.522	1.185	9.163	1505.495	1504.762	1509.158	-6.824	0.214	5.603	-6.201	-0.689	7.962
450177.643	NaN	-3.522	1.185	9.163	1504.762	1504.762	1509.890	-7.130	0.198	5.466	-6.278	-0.536	8.115
450178.619	NaN	-3.511	1.174	9.152	1504.762	1504.762	1509.890	-7.069	0.382	5.389	-6.278	-0.689	8.038
450179.596	NaN	-3.522	1.174	9.163	1504.029	1504.029	1509.890	-6.931	0.534	5.634	-6.278	-0.689	8.038
450180.573	NaN	-3.533	1.174	9.152	1504.762	1504.762	1509.890	-6.718	0.504	5.878	-6.354	-0.766	8.038
450181.549	NaN	-3.533	1.163	9.141	1504.762	1503.297	1508.425	-6.733	0.168	5.664	-6.278	-0.612	8.038
450182.526	NaN	-3.533	1.163	9.141	1504.762	1503.297	1508.425	-6.931	-0.061	5.344	-6.201	-0.766	8.115
450183.502	NaN	-3.533	1.163	9.152	1504.029	1504.029	1509.158	-7.130	0.107	5.267	-6.201	-0.689	8.115
450184.479	NaN	-3.543	1.152	9.152	1504.762	1503.297	1509.890	-7.008	0.229	5.450	-6.201	-0.766	8.191
450185.455	NaN	-3.533	1.163	9.174	1505.495	1504.762	1511.355	-6.779	0.198	5.481	-6.278	-0.689	8.038
450186.432	NaN	-3.543	1.152	9.174	1504.029	1504.029	1510.623	-6.824	0.198	5.496	-6.201	-0.766	8.038
450187.408	NaN	-3.543	1.152	9.174	1503.297	1503.297	1508.425	-6.733	0.305	5.557	-6.201	-0.766	8.191
450188.385	NaN	-3.522	1.152	9.163	1504.029	1504.029	1509.890	-6.840	0.290	5.649	-6.201	-0.689	8.038
450189.362	NaN	-3.522	1.152	9.163	1504.762	1504.762	1509.158	-6.733	0.198	5.679	-6.124	-0.612	8.115
450190.338	NaN	-3.522	1.152	9.152	1504.762	1504.762	1510.623	-7.053	0.168	5.420	-6.354	-0.536	8.038
450191.315	NaN	-3.522	1.163	9.163	1504.029	1505.495	1510.623	-7.099	0.244	5.405	-5.053	-0.612	8.038
450192.291	NaN	-3.533	1.152	9.152	1504.762	1504.029	1509.158	-6.916	0.305	5.481	-6.278	-0.766	8.115
450193.268	NaN	-3.533	1.152	9.152	1504.029	1504.029	1509.158	-6.962	0.260	5.344	-6.354	-0.689	7.962
450194.244	NaN	-3.533	1.152	9.163	1504.029	1504.029	1509.158	-6.992	0.321	5.328	-6.201	-0.842	8.038
450195.221	NaN	-3.511	1.174	9.163	1503.297	1504.029	1509.890	-7.008	0.351	5.542	-6.354	-0.689	8.038
450196.198	NaN	-3.511	1.163	9.163	1505.495	1504.762	1510.623	-6.656	0.229	5.618	-6.354	-0.612	8.038
450197.174	NaN	-3.522	1.174	9.163	1504.029	1504.762	1509.158	-6.580	0.183	5.542	-6.354	-0.766	8.038
450198.151	NaN	-3.533	1.174	9.152	1504.762	1505.495	1509.158	-6.763	0.260	5.420	-6.354	-0.689	8.115
450199.127	NaN	-3.511	1.185	9.163	1504.029	1504.762	1510.623	-6.748	0.473	5.527	-6.354	-0.689	8.038
450200.104	NaN	-3.522	1.185	9.163	1504.762	1504.029	1510.623	-6.427	0.458	5.573	-6.124	-0.689	8.268
450201.080	NaN	-3.522	1.185	9.163	1504.762	1504.762	1510.623	-6.626	0.351	5.527	-6.278	-0.766	8.115
450202.057	NaN	-3.533	1.185	9.163	1504.762	1504.029	1509.890	-6.962	0.229	5.603	-6.278	-0.612	8.115
450203.033	3736848895.992	-3.533	1.196	9.152	1505.495	1504.762	1509.890	-6.962	0.107	5.649	-6.201	-0.689	8.268
450204.010	NaN	-3.533	1.185	9.141	1504.762	1504.029	1510.623	-6.916	0.153	5.740	-6.431	-0.459	8.191
450204.987	NaN	-3.533	1.196	9.141	1504.762	1504.762	1509.890	-6.931	0.366	5.740	-6.278	-0.689	8.038
450205.963	NaN	-3.533	1.185	9.141	1504.762	1504.029	1509.158	-6.901	0.397	5.710	-6.278	-0.689	8.115
450206.940	NaN	-3.533	1.185	9.141	1504.029	1504.762	1509.890	-6.748	0.168	5.649	-6.278	-0.612	8.038
450207.916	NaN	-3.511	1.185	9.141	1504.029	1505.495	1510.623	-6.733	0.046	5.466	-6.201	-0.766	8.191
450208.893	NaN	-3.543	1.174	9.152	1504.762	1503.297	1509.890	-6.870	0.168	5.420	-6.431	-0.689	8.115
450209.869	NaN	-3.543	1.174	9.174	1503.297	1503.297	1508.425	-6.916	0.244	5.511	-6.278	-0.689	8.038
450210.846	NaN	-3.533	1.163	9.163	1504.762	1504.029	1509.158	-6.809	0.290	5.389	-6.354	-0.536	7.962
450211.823	NaN	-3.522	1.174	9.163	1505.495	1504.762	1510.623	-6.855	0.366	5.344	-6.124	-0.612	8.038
450212.799	NaN	-3.522	1.174	9.163	1505.495	1504.762	1509.890	-6.718	0.321	5.328	-6.354	-0.612	8.038
450213.776	NaN	-3.522	1.174	9.163	1504.762	1504.029	1510.623	-6.702	0.351	5.557	-6.278	-0.612	8.191
450214.752	NaN	-3.543	1.174	9.174	1504.029	1504.029	1509.890	-6.641	0.275	5.634	-6.201	-0.612	8.115
450215.729	NaN	-3.554	1.174	9.163	1504.029	1504.029	1509.890	-6.565	0.397	5.542	-6.201	-0.689	8.115
450216.705	NaN	-3.543	1.174	9.152	1504.029	1504.029	1509.158	-6.458	0.214	5.389	-6.354	-0.766	8.038
450217.682	NaN	-3.533	1.185	9.163	1502.564	1502.564	1508.425	-6.656	0.015	5.420	-6.354	-0.689	8.115
450218.658	NaN	-3.522	1.196	9.185	1504.029	1504.762	1509.890	-6.641	0.000	5.420	-6.124	-0.689	8.115
450219.635	NaN	-3.533	1.185	9.185	1504.029	1504.029	1509.158	-6.779	0.000	5.542	-6.354	-0.766	7.962
450220.612	NaN	-3.533	1.185	9.174	1504.762	1504.762	1509.890	-6.931	0.076	5.450	-6.201	-0.766	7.962
450221.588	NaN	-3.533	1.185	9.174	1502.564	1504.029	1510.623	-6.962	0.244	5.466	-6.201	-0.766	7.885
450222.565	NaN	-3.533	1.185	9.174	1504.762	1504.029	1511.355	-6.779	0.214	5.634	-6.124	-0.689	7.962
450223.541	NaN	-3.543	1.185	9.163	1504.029	1504.029	1510.623	-6.656	0.137	5.649	-6.354	-0.689	8.038
450224.518	NaN	-3.543	1.163	9.163	1504.762	1504.029	1510.623	-6.748	0.122	5.679	-6.278	-0.689	8.115
450225.494	NaN	-3.522	1.174	9.163	1504.029	1504.762	1512.088	-6.733	0.061	5.588	-6.278	-0.612	8.038
450226.471	NaN	-3.522	1.174	9.163	1504.029	1503.297	1509.890	-6.931	0.153	5.405	-6.278	-0.536	7.962
450227.448	NaN	-3.533	1.163	9.163	1504.029	1504.029	1511.355	-6.947	0.260	5.405	-6.354	-0.689	8.115
450228.424	NaN	-3.533	1.174	9.152	1504.762	1503.297	1509.158	-6.687	0.183	5.328	-6.278	-0.689	8.115
450229.401	NaN	-3.543	1.163	9.152	1504.029	1504.029	1510.623	-6.611	0.122	5.435	-6.278	-0.766	8.191
450230.377	NaN	-3.522	1.174	9.152	1504.029	1504.762	1510.623	-6.687	0.122	5.420	-6.354	-0.766	8.038
450231.354	NaN	-3.522	1.163	9.141	1504.762	1503.297	1509.890	-6.779	0.321	5.328	-6.201	-0.766	8.038
450232.330	NaN	-3.522	1.174	9.152	1504.029	1504.029	1507.692	-7.099	0.321	5.267	-6.278	-0.612	8.115
450233.307	NaN	-3.522	1.174	9.152	1504.029	1504.029	1508.425	-7.008	0.244	5.496	-6.278	-0.689	8.115
450234.283	NaN	-3.511	1.174	9.152	1506.227	1504.029	1510.623	-6.794	0.229	5.740	-6.278	-0.612	8.038
450235.260	NaN	-3.522	1.174	9.163	1504.762	1504.029	1510.623	-6.672	0.260	5.557	-6.278	-0.612	8.268
450236.237	NaN	-3.522	1.163	9.163	1504.762	1503.297	1510.623	-6.748	0.260	5.496	-6.201	-0.689	8.115
450237.213	NaN	-3.543	1.163	9.163	1504.762	1504.762	1509.158	-6.748	0.244	5.435	-6.354	-0.689	8.038
450238.190	NaN	-3.543	1.174	9.174	1504.029	1504.029	1509.890	-6.779	0.458	5.389	-6.201	-0.612	7.962
450239.166	NaN	-3.543	1.185	9.174	1504.029	1504.762	1510.623	-6.718	0.336	5.328	-6.278	-0.689	8.038
450240.143	NaN	-3.543	1.185	9.174	1503.297	1504.029	1509.890	-6.733	0.366	5.389	-6.124	-0.612	8.191
450241.119	NaN	-3.543	1.185	9.163	1503.297	1504.029	1509.890	-6.748	0.229	5.405	-6.278	-0.689	8.115
450242.096	NaN	-3.533	1.185	9.152	1504.029	1504.029	1511.355	-6.656	0.214	5.313	-6.048	-0.612	8.115
450243.073	NaN	-3.543	1.185	9.152	1504.762	1504.762	1509.158	-6.733	0.107	5.496	-6.354	-0.766	7.885
450244.049	NaN	-3.522	1.185	9.163	1504.029	1504.029	1509.890	-6.672	-0.122	5.511	-6.507	-0.689	8.115
450245.026	NaN	-3.522	1.185	9.152	1504.029	1504.029	1509.158	-6.718	0.061	5.511	-6.201	-0.689	7.962
450246.002	NaN	-3.533	1.185	9.141	1504.762	1504.029	1510.623	-6.702	0.229	5.649	-6.354	-0.612	7.962
450246.979	NaN	-3.533	1.185	9.141	1502.564	1504.029	1510.623	-6.641	0.168	5.664	-6.354	-0.766	8.115
450247.955	NaN	-3.533	1.196	9.141	1504.762	1504.762	1508.425	-6.534	0.183	5.634	-6.201	-0.536	8.115
450248.932	NaN	-3.533	1.185	9.152	1504.762	1504.029	1509.890	-6.489	0.183	5.450	-6.201	-0.689	8.038
450249.908	NaN	-3.533	1.174	9.152	1504.029	1503.297	1510.623	-6.672	0.244	5.298	-6.278	-0.689	8.038
450250.885	NaN	-3.522	1.174	9.152	1504.029	1504.029	1510.623	-6.763	0.168	5.481	-6.278	-0.689	7.962
450251.862	NaN	-3.533	1.174	9.163	1503.297	1504.029	1509.158	-6.855	0.290	5.618	-6.124	-0.766	8.115
450252.838	NaN	-3.533	1.174	9.174	1503.297	1503.297	1509.158	-6.916	0.122	5.588	-6.354	-0.766	8.191
450253.815	NaN	-3.533	1.185	9.174	1504.762	1503.297	1509.890	-6.702	0.015	5.344	-6.201	-0.766	8.038
450254.791	NaN	-3.533	1.185	9.174	1503.297	1503.297	1508.425	-6.672	0.153	5.176	-6.201	-0.689	8.038
450255.768	NaN	-3.533	1.185	9.163	1504.762	1503.297	1509.158	-6.947	0.183	5.344	-6.201	-0.536	7.962
450256.744	NaN	-3.533	1.185	9.163	1503.297	1504.029	1508.425	-6.855	0.229	5.313	-6.201	-0.766	8.115
450257.721	NaN	-3.522	1.196	9.174	1505.495	1504.029	1509.158	-6.824	0.092	5.344	-6.278	-0.536	7.962
450258.698	NaN	-3.522	1.185	9.174	1504.762	1504.762	1510.623	-6.733	-0.183	5.511	-6.278	-0.689	8.115
450259.674	NaN	-3.533	1.185	9.163	1504.029	1504.029	1509.158	-6.748	-0.244	5.511	-6.201	-0.689	7.885
450260.651	NaN	-3.543	1.174	9.152	1504.029	1504.762	1509.890	-6.718	0.046	5.618	-6.354	-0.612	8.115
450261.627	NaN	-3.522	1.174	9.141	1505.495	1504.762	1509.890	-6.580	0.168	5.786	-6.354	-0.689	8.038
450262.604	NaN	-3.511	1.174	9.152	1504.029	1504.029	1509.158	-6.611	0.076	5.649	-6.278	-0.612	8.115
450263.580	NaN	-3.511	1.185	9.163	1504.029	1504.762	1509.158	-6.794	0.061	5.573	-6.431	-0.689	7.962
450264.557	NaN	-3.522	1.174	9.163	1504.029	1504.762	1510.623	-6.840	0.351	5.542	-6.354	-0.766	8.038
450265.533	NaN	-3.533	1.174	9.174	1504.762	1504.029	1508.425	-6.733	0.382	5.405	-6.048	-0.689	7.962
450266.510	NaN	-3.522	1.174	9.174	1504.029	1504.762	1510.623	-6.687	0.427	5.282	-6.278	-0.689	7.962
450267.487	NaN	-3.533	1.174	9.174	1504.029	1504.029	1509.158	-6.595	0.397	5.282	-6.124	-0.766	8.038
450268.463	NaN	-3.543	1.174	9.163	1504.762	1503.297	1509.890	-6.672	0.168	5.298	-6.278	-0.842	8.115
450269.440	NaN	-3.543	1.185	9.163	1505.495	1504.029	1509.158	-6.534	-0.031	5.389	-6.278	-0.689	8.115
450282.135	NaN	-3.554	1.174	9.174	1504.029	1503.297	1509.158	-6.626	0.168	5.450	-6.354	-0.612	8.038
450283.112	NaN	-3.554	1.174	9.174	1503.297	1504.029	1508.425	-6.656	0.168	5.511	-6.124	-0.689	8.038
450284.088	NaN	-3.543	1.185	9.163	1505.495	1503.297	1510.623	-6.565	0.305	5.420	-6.278	-0.689	8.191
450285.065	NaN	-3.554	1.185	9.152	1504.762	1504.029	1509.890	-6.672	0.092	5.237	-6.201	-0.612	8.191
450286.041	NaN	-3.543	1.185	9.152	1504.029	1504.762	1509.890	-6.641	-0.015	5.176	-6.124	-0.689	8.115
450287.018	NaN	-3.533	1.185	9.163	1504.029	1504.029	1507.692	-6.687	0.061	5.282	-6.201	-0.536	8.038
450287.994	NaN	-3.533	1.185	9.163	1504.029	1504.029	1509.890	-6.718	0.046	5.496	-6.354	-0.612	7.962
450288.971	NaN	-3.533	1.174	9.163	1504.762	1503.297	1509.158	-6.443	0.168	5.618	-6.278	-0.612	8.038
450289.948	NaN	-3.533	1.174	9.152	1504.029	1504.029	1509.158	-6.489	0.214	5.573	-6.431	-0.689	8.038
450290.924	NaN	-3.511	1.185	9.163	1504.029	1504.029	1509.890	-6.565	0.153	5.435	-6.431	-0.766	8.115
450291.901	NaN	-3.533	1.185	9.152	1503.297	1504.029	1510.623	-6.870	0.107	5.328	-6.124	-0.689	8.191
450292.877	NaN	-3.522	1.185	9.152	1504.029	1503.297	1509.158	-6.840	-0.031	5.420	-6.201	-0.689	8.038
450293.854	NaN	-3.511	1.185	9.152	1504.762	1503.297	1509.158	-6.641	0.061	5.282	-6.278	-0.689	8.115
450294.830	NaN	-3.511	1.185	9.163	1504.029	1504.762	1510.623	-6.519	0.260	5.206	-6.278	-0.612	8.038
450295.807	NaN	-3.511	1.185	9.163	1504.762	1504.762	1509.158	-6.824	0.351	5.221	-6.201	-0.536	8.115
450296.783	NaN	-3.522	1.185	9.163	1504.762	1504.029	1510.623	-6.702	0.321	5.298	-6.201	-0.766	8.115
450297.760	NaN	-3.533	1.185	9.163	1502.564	1504.762	1509.158	-6.565	0.153	5.557	-6.278	-0.612	8.038
450298.737	NaN	-3.533	1.163	9.163	1504.029	1504.029	1509.158	-6.550	0.107	5.649	-6.354	-0.612	8.038
450299.713	NaN	-3.533	1.174	9.152	1504.762	1504.762	1511.355	-6.626	-0.122	5.557	-6.278	-0.766	8.038
450300.690	NaN	-3.533	1.174	9.163	1504.762	1503.297	1509.158	-6.611	0.198	5.511	-6.354	-0.842	8.115
450301.666	NaN	-3.543	1.185	9.163	1504.029	1504.029	1509.890	-6.748	0.351	5.221	-6.278	-0.689	8.191
450302.643	NaN	-3.533	1.196	9.174	1503.297	1504.029	1509.158	-6.565	0.229	5.053	-6.278	-0.689	8.038
450303.619	NaN	-3.543	1.196	9.163	1503.297	1504.029	1510.623	-6.382	0.168	5.160	-6.278	-0.766	8.038
450304.596	NaN	-3.533	1.185	9.163	1505.495	1504.029	1510.623	-6.687	0.092	5.450	-6.278	-0.689	8.115
450305.573	NaN	-3.533	1.185	9.152	1504.762	1504.762	1509.890	-6.595	0.168	5.603	-6.278	-0.612	7.962
450306.549	NaN	-3.522	1.185	9.152	1504.762	1504.029	1512.088	-6.656	0.198	5.542	-6.124	-0.612	8.115
450307.526	NaN	-3.522	1.185	9.152	1504.762	1504.029	1509.158	-6.733	0.198	5.252	-6.354	-0.689	8.115
450308.502	NaN	-3.543	1.185	9.163	1504.029	1504.029	1509.890	-6.763	-0.046	5.267	-6.278	-0.842	7.885
450309.479	NaN	-3.543	1.185	9.163	1504.762	1503.297	1509.158	-6.580	-0.061	5.267	-6.278	-0.612	8.038
450310.455	NaN	-3.543	1.185	9.163	1504.762	1504.762	1510.623	-6.489	0.275	5.267	-6.201	-0.689	8.038
450311.432	NaN	-3.533	1.185	9.152	1504.762	1504.029	1510.623	-6.595	0.168	5.206	-6.201	-0.536	8.115
450312.408	NaN	-3.533	1.185	9.152	1504.762	1503.297	1510.623	-6.565	0.046	5.206	-6.201	-0.612	7.962
450313.385	NaN	-3.533	1.174	9.152	1504.762	1504.029	1509.890	-6.519	0.000	5.328	-6.431	-0.612	8.038
450314.362	NaN	-3.533	1.174	9.141	1504.762	1504.762	1510.623	-6.412	0.015	5.252	-6.278	-0.689	7.962
450315.338	NaN	-3.522	1.174	9.152	1504.029	1504.762	1509.890	-6.641	0.061	5.282	-6.278	-0.919	8.115
450316.315	NaN	-3.522	1.174	9.152	1505.495	1504.762	1510.623	-6.565	0.015	5.466	-6.201	-0.612	8.038
450317.291	NaN	-3.533	1.174	9.152	1504.762	1504.029	1510.623	-6.580	0.046	5.511	-6.278	-0.689	7.962
450318.268	NaN	-3.522	1.163	9.152	1503.297	1504.029	1509.890	-6.672	0.168	5.466	-6.278	-0.766	7.962
450319.244	NaN	-3.522	1.185	9.141	1504.029	1504.762	1510.623	-6.794	0.183	5.328	-6.201	-0.842	8.115
450320.221	NaN	-3.522	1.185	9.141	1504.762	1504.029	1509.890	-6.565	0.031	5.450	-6.278	-0.689	8.191
450321.198	NaN	-3.522	1.185	9.141	1504.029	1504.762	1510.623	-6.534	-0.122	5.389	-6.278	-0.766	8.115
450322.174	NaN	-3.533	1.185	9.152	1503.297	1504.029	1509.158	-6.565	-0.061	5.160	-6.201	-0.689	8.115
450323.151	NaN	-3.543	1.174	9.152	1504.762	1503.297	1509.158	-6.779	0.107	5.237	-6.124	-0.766	8.115
450324.127	NaN	-3.533	1.163	9.163	1504.762	1504.762	1511.355	-6.595	0.137	5.298	-6.278	-0.689	8.038
450325.104	NaN	-3.533	1.163	9.163	1504.029	1504.029	1509.158	-6.611	0.183	5.221	-6.431	-0.766	8.115
450326.080	NaN	-3.533	1.174	9.163	1504.029	1504.762	1509.890	-6.672	0.229	5.389	-6.201	-0.612	8.115
450327.057	NaN	-3.543	1.174	9.174	1503.297	1504.029	1510.623	-6.611	0.198	5.328	-6.201	-0.612	8.038
450328.033	NaN	-3.533	1.174	9.163	1505.495	1504.029	1510.623	-6.504	0.153	5.176	-6.201	-0.689	7.962
450329.010	NaN	-3.533	1.174	9.163	1505.495	1504.029	1510.623	-6.550	0.046	5.267	-6.201	-0.612	7.885
450329.987	NaN	-3.522	1.163	9.163	1504.762	1504.762	1510.623	-6.427	-0.076	5.252	-6.278	-0.766	7.962
450330.963	NaN	-3.522	1.174	9.152	1504.762	1504.762	1509.890	-6.534	-0.092	5.252	-6.278	-0.766	8.038
450331.940	NaN	-3.543	1.174	9.152	1504.762	1503.297	1510.623	-6.779	0.000	5.511	-6.201	-0.766	8.115
450332.916	NaN	-3.533	1.196	9.152	1505.495	1504.762	1511.355	-6.580	-0.015	5.405	-6.124	-0.689	8.038
450333.893	NaN	-3.522	1.185	9.152	1504.762	1504.762	1510.623	-6.473	0.092	5.282	-6.278	-0.612	8.038
450334.869	NaN	-3.522	1.174	9.174	1503.297	1504.029	1510.623	-6.336	0.290	5.328	-6.354	-0.689	8.115
450335.846	NaN	-3.522	1.163	9.163	1504.762	1504.762	1509.890	-6.290	0.351	5.176	-6.278	-0.689	8.115
450336.823	NaN	-3.533	1.174	9.152	1504.762	1504.762	1510.623	-6.504	0.046	5.298	-6.124	-0.689	8.115
450337.799	NaN	-3.522	1.174	9.163	1504.762	1505.495	1511.355	-6.656	-0.122	5.573	-6.201	-0.612	8.115
450338.776	NaN	-3.511	1.185	9.163	1505.495	1504.029	1510.623	-6.733	-0.183	5.450	-6.354	-0.689	8.115
450339.752	NaN	-3.511	1.185	9.152	1504.762	1503.297	1509.890	-6.840	-0.229	5.282	-6.201	-0.689	8.115
450340.729	NaN	-3.522	1.185	9.152	1504.029	1503.297	1509.890	-6.763	-0.092	5.313	-6.124	-0.766	8.038
450341.705	NaN	-3.511	1.174	9.163	1504.762	1504.762	1510.623	-6.504	0.214	5.328	-6.201	-0.689	8.115
450342.682	NaN	-3.522	1.174	9.163	1505.495	1504.029	1507.692	-6.534	0.153	5.252	-6.278	-0.842	8.115
450343.658	NaN	-3.533	1.185	9.163	1504.762	1504.762	1510.623	-6.733	0.031	5.160	-6.201	-0.766	8.038
450344.635	NaN	-3.533	1.174	9.163	1504.029	1504.762	1509.890	-6.733	0.092	5.160	-6.354	-0.689	8.038
450345.612	NaN	-3.543	1.174	9.163	1503.297	1505.495	1510.623	-6.473	0.214	5.298	-6.278	-0.842	8.038
450346.588	NaN	-3.543	1.185	9.163	1504.762	1504.029	1511.355	-6.748	0.244	5.405	-6.278	-0.612	8.115
450347.565	NaN	-3.533	1.185	9.163	1501.832	1504.029	1509.890	-6.809	0.168	5.267	-6.354	-0.689	8.115
450348.541	NaN	-3.543	1.185	9.163	1504.762	1504.029	1511.355	-6.534	0.000	5.099	-6.124	-0.766	8.115
450349.518	NaN	-3.543	1.174	9.163	1504.029	1503.297	1511.355	-6.534	-0.137	5.053	-6.278	-0.612	8.191
450350.494	NaN	-3.533	1.185	9.152	1504.029	1504.762	1510.623	-6.702	-0.015	5.191	-6.278	-0.842	8.115
450351.471	NaN	-3.522	1.174	9.174	1505.495	1504.029	1510.623	-6.855	0.122	5.359	-6.201	-0.766	8.115
450352.448	NaN	-3.533	1.174	9.174	1504.762	1504.762	1509.158	-6.748	0.260	5.344	-6.354	-0.689	8.038
450353.424	NaN	-3.522	1.174	9.185	1504.762	1504.762	1509.158	-6.412	0.214	5.527	-6.278	-0.766	8.038
450354.401	NaN	-3.533	1.174	9.174	1504.762	1504.762	1509.158	-6.580	0.015	5.573	-6.124	-0.689	8.115
450355.377	NaN	-3.533	1.174	9.174	1504.762	1503.297	1509.890	-6.824	-0.031	5.481	-6.201	-0.612	8.115
450356.354	NaN	-3.522	1.185	9.174	1504.762	1504.029	1509.890	-6.595	-0.061	5.344	-6.201	-0.612	8.038
450357.330	NaN	-3.533	1.174	9.163	1503.297	1504.029	1509.890	-6.550	0.076	5.405	-6.278	-0.689	8.191
450358.307	NaN	-3.533	1.174	9.163	1503.297	1503.297	1508.425	-6.489	-0.076	5.374	-6.201	-0.689	8.038
450359.283	NaN	-3.522	1.185	9.163	1504.762	1504.029	1509.158	-6.351	-0.061	5.252	-6.201	-0.766	8.038
450360.260	NaN	-3.522	1.174	9.163	1503.297	1503.297	1510.623	-6.443	0.092	5.191	-6.278	-0.612	8.115
450361.237	NaN	-3.511	1.174	9.163	1503.297	1502.564	1509.158	-6.580	0.198	5.191	-6.278	-0.689	8.038
450362.213	NaN	-3.500	1.185	9.174	1504.762	1504.029	1509.890	-6.733	0.137	5.145	-6.354	-0.766	7.962
450363.190	NaN	-3.522	1.174	9.174	1504.029	1504.029	1509.158	-6.611	0.122	5.191	-6.278	-0.689	8.115
450364.166	NaN	-3.511	1.185	9.174	1504.029	1504.029	1510.623	-6.565	0.214	5.328	-6.201	-0.766	7.885
450365.143	NaN	-3.533	1.174	9.185	1503.297	1503.297	1509.158	-6.641	0.031	5.466	-6.201	-0.766	8.115
450366.119	NaN	-3.522	1.185	9.174	1504.029	1504.029	1509.890	-6.458	-0.137	5.405	-6.354	-0.536	8.038
450367.096	NaN	-3.522	1.174	9.174	1503.297	1503.297	1510.623	-6.565	-0.076	5.282	-6.124	-0.842	8.038
450368.073	NaN	-3.533	1.185	9.163	1504.762	1504.762	1509.158	-6.489	0.046	5.221	-6.278	-0.689	8.038
450369.049	NaN	-3.522	1.185	9.174	1504.762	1504.762	1510.623	-6.366	0.107	5.252	-6.278	-0.766	7.962
450370.026	NaN	-3.522	1.185	9.174	1505.495	1504.029	1509.158	-6.305	0.076	5.298	-6.124	-0.689	8.038
450371.002	NaN	-3.511	1.185	9.174	1504.762	1504.762	1510.623	-6.534	0.137	5.420	-6.124	-0.766	8.038
450371.979	NaN	-3.533	1.185	9.163	1504.762	1504.029	1510.623	-6.519	0.061	5.389	-6.278	-0.689	8.191
450372.955	NaN	-3.522	1.185	9.174	1505.495	1504.762	1510.623	-6.397	-0.031	5.252	-6.124	-0.766	8.115
450373.932	NaN	-3.522	1.185	9.174	1505.495	1504.762	1511.355	-6.473	0.122	5.191	-6.278	-0.766	7.885
450374.908	NaN	-3.533	1.185	9.185	1504.029	1504.029	1509.890	-6.672	0.153	5.069	-6.201	-0.612	7.962
450375.885	NaN	-3.543	1.185	9.185	1504.762	1504.029	1509.158	-6.611	0.168	5.191	-6.201	-0.689	7.962
450376.862	NaN	-3.543	1.174	9.174	1505.495	1504.762	1509.890	-6.305	0.198	5.481	-6.278	-0.689	7.962
450377.838	NaN	-3.533	1.174	9.185	1504.762	1504.762	1511.355	-6.275	0.168	5.313	-6.201	-0.612	8.038
450378.815	NaN	-3.522	1.174	9.174	1504.029	1504.762	1510.623	-6.351	0.137	5.221	-6.201	-0.612	8.038
450379.791	NaN	-3.533	1.163	9.163	1503.297	1504.029	1509.158	-6.366	0.061	5.191	-6.354	-0.766	7.962
450380.768	NaN	-3.533	1.152	9.163	1503.297	1504.029	1509.158	-6.473	0.000	5.221	-6.278	-0.612	8.191
450381.744	NaN	-3.522	1.174	9.163	1505.495	1504.762	1510.623	-6.565	0.168	5.359	-6.124	-0.612	8.038
450382.721	NaN	-3.522	1.174	9.163	1504.762	1504.762	1509.158	-6.611	0.214	5.267	-6.354	-0.612	8.115
450383.698	NaN	-3.522	1.185	9.163	1505.495	1504.029	1509.158	-6.397	-0.015	5.298	-6.201	-0.689	8.038
450384.674	3736848896.159	-3.533	1.174	9.185	1504.762	1504.029	1509.158	-6.565	-0.122	5.237	-6.201	-0.766	8.038
450385.651	NaN	-3.543	1.174	9.174	1505.495	1503.297	1510.623	-6.519	-0.076	5.313	-6.278	-0.689	8.038
450386.627	NaN	-3.522	1.185	9.185	1504.762	1504.029	1510.623	-6.580	0.031	5.359	-6.278	-0.689	8.115
450387.604	NaN	-3.522	1.174	9.185	1505.495	1504.029	1509.890	-6.611	0.107	5.328	-6.201	-0.612	8.038
450388.580	NaN	-3.522	1.163	9.163	1503.297	1504.762	1510.623	-6.519	-0.046	5.435	-6.278	-0.612	8.038
450389.557	NaN	-3.533	1.163	9.174	1504.762	1504.762	1510.623	-6.519	0.092	5.176	-6.201	-0.766	8.038
450390.533	NaN	-3.543	1.174	9.152	1505.495	1504.029	1509.158	-6.198	0.183	5.282	-6.278	-0.689	8.038
450391.510	NaN	-3.543	1.163	9.152	1504.029	1504.029	1508.425	-6.290	0.122	5.374	-6.354	-0.612	8.038
450392.487	NaN	-3.522	1.174	9.174	1504.029	1503.297	1509.158	-6.244	-0.137	5.313	-6.278	-0.689	7.962
450393.463	NaN	-3.522	1.185	9.174	1504.762	1504.029	1508.425	-6.351	-0.244	5.206	-6.278	-0.766	8.115
450394.440	NaN	-3.533	1.163	9.174	1504.029	1503.297	1509.158	-6.321	-0.107	5.176	-6.201	-0.689	8.038
450395.416	NaN	-3.522	1.163	9.174	1504.762	1504.029	1509.890	-6.489	0.244	5.267	-6.278	-0.689	7.962
450396.393	NaN	-3.533	1.152	9.163	1502.564	1504.762	1510.623	-6.351	0.290	5.237	-6.354	-0.766	8.038
450397.369	NaN	-3.533	1.163	9.174	1501.832	1503.297	1508.425	-6.321	0.107	5.374	-6.431	-0.689	8.115
450398.346	NaN	-3.522	1.163	9.152	1504.029	1504.762	1509.890	-6.473	-0.015	5.282	-6.278	-0.689	8.115
450399.323	NaN	-3.511	1.174	9.163	1504.029	1503.297	1507.692	-6.382	-0.031	5.176	-6.201	-0.766	8.038
450400.299	NaN	-3.500	1.185	9.185	1504.029	1503.297	1509.890	-6.397	0.015	5.267	-6.278	-0.919	8.038
450401.276	NaN	-3.511	1.185	9.174	1504.762	1504.762	1509.890	-6.641	0.122	5.420	-6.201	-0.689	8.038
450402.252	NaN	-3.522	1.185	9.163	1504.762	1504.762	1509.158	-6.656	0.107	5.298	-6.124	-0.766	7.885
450403.229	NaN	-3.533	1.174	9.152	1505.495	1504.029	1510.623	-6.458	0.229	5.221	-6.354	-0.842	8.115
450404.205	NaN	-3.543	1.174	9.152	1504.029	1504.029	1509.158	-6.412	0.290	5.145	-6.354	-0.689	8.115
450405.182	NaN	-3.522	1.196	9.163	1504.762	1504.029	1509.158	-6.244	0.183	5.313	-6.431	-0.766	8.115
450406.158	NaN	-3.522	1.185	9.152	1504.762	1504.762	1509.158	-6.214	0.183	5.496	-6.354	-0.766	7.962
450407.135	NaN	-3.533	1.185	9.141	1503.297	1503.297	1509.890	-6.336	0.092	5.359	-6.354	-0.689	8.115
450408.112	NaN	-3.511	1.185	9.152	1504.762	1504.762	1509.890	-6.427	0.092	5.145	-6.354	-0.459	7.962
450409.088	NaN	-3.533	1.174	9.163	1503.297	1504.029	1509.158	-6.382	0.244	5.298	-6.278	-0.766	8.115
450410.065	NaN	-3.522	1.185	9.174	1504.762	1504.029	1509.890	-6.244	0.244	5.298	-6.124	-0.689	8.115
450411.041	NaN	-3.533	1.174	9.163	1504.762	1504.762	1511.355	-6.198	0.214	5.313	-6.201	-0.612	8.038
450412.018	NaN	-3.533	1.163	9.163	1504.762	1503.297	1510.623	-6.214	0.153	5.252	-6.354	-0.689	7.809
450412.994	NaN	-3.533	1.174	9.163	1504.762	1504.029	1510.623	-6.198	0.107	5.053	-6.201	-0.689	8.115
450413.971	NaN	-3.543	1.163	9.152	1504.762	1504.029	1509.158	-6.336	0.198	5.145	-6.201	-0.612	7.962
450414.948	NaN	-3.522	1.163	9.163	1504.762	1504.029	1509.890	-6.382	0.214	5.160	-6.354	-0.689	8.115
450415.924	NaN	-3.522	1.163	9.163	1504.762	1504.029	1509.890	-6.336	0.046	5.313	-6.201	-0.689	8.115
450416.901	NaN	-3.543	1.163	9.152	1503.297	1503.297	1509.890	-6.260	-0.015	5.496	-6.124	-0.689	8.038
450417.877	NaN	-3.522	1.163	9.163	1504.029	1504.762	1510.623	-6.198	-0.031	5.344	-6.201	-0.766	7.885
450418.854	NaN	-3.533	1.163	9.163	1504.762	1504.029	1509.158	-6.290	0.031	5.191	-6.201	-0.689	8.191
450419.830	NaN	-3.522	1.185	9.174	1504.762	1504.029	1510.623	-6.534	-0.076	5.084	-6.124	-0.766	8.038
450420.807	NaN	-3.533	1.174	9.185	1504.029	1504.029	1510.623	-6.595	-0.076	5.099	-6.354	-0.689	8.038
450421.783	NaN	-3.533	1.174	9.174	1501.832	1503.297	1509.158	-6.183	0.137	5.115	-6.278	-0.612	8.038
450422.760	NaN	-3.511	1.185	9.185	1504.029	1504.029	1509.890	-6.061	0.168	5.282	-6.201	-0.689	8.038
450423.737	NaN	-3.533	1.174	9.163	1504.029	1503.297	1510.623	-6.336	0.000	5.344	-6.201	-0.689	8.115
450424.713	NaN	-3.533	1.174	9.163	1503.297	1504.029	1509.890	-6.443	-0.076	5.359	-6.354	-0.612	8.115
450425.690	NaN	-3.533	1.163	9.163	1504.029	1504.762	1509.890	-6.550	-0.015	5.252	-6.124	-0.612	8.038
450426.666	NaN	-3.533	1.163	9.163	1504.762	1504.029	1508.425	-6.366	0.076	5.221	-6.201	-0.689	8.038
450427.643	NaN	-3.511	1.163	9.174	1504.029	1504.029	1509.158	-6.244	0.168	5.282	-6.201	-0.766	8.115
450428.619	NaN	-3.522	1.174	9.174	1503.297	1504.762	1508.425	-6.168	0.107	5.588	-6.278	-0.689	8.038
450429.596	NaN	-3.522	1.174	9.174	1503.297	1504.029	1509.158	-6.305	0.015	5.481	-6.278	-0.766	8.191
450430.573	NaN	-3.522	1.185	9.174	1504.029	1504.029	1510.623	-6.382	-0.015	5.252	-6.278	-0.766	8.115
450431.549	NaN	-3.533	1.174	9.174	1504.029	1504.029	1508.425	-6.351	0.046	4.977	-6.278	-0.689	8.115
450432.526	NaN	-3.522	1.185	9.174	1503.297	1503.297	1508.425	-6.382	0.244	5.099	-6.354	-0.536	8.115
450433.502	NaN	-3.511	1.185	9.163	1504.762	1504.762	1510.623	-6.427	0.137	5.328	-6.354	-0.766	8.115
450434.479	NaN	-3.533	1.185	9.163	1503.297	1504.762	1509.158	-6.382	-0.031	5.313	-6.278	-0.536	8.038
450435.455	NaN	-3.522	1.174	9.163	1504.762	1504.029	1512.088	-6.382	-0.015	5.282	-6.048	-0.689	8.038
450436.432	NaN	-3.533	1.185	9.174	1504.029	1504.029	1509.158	-6.397	0.031	5.267	-6.278	-0.689	8.038
450437.408	NaN	-3.533	1.185	9.174	1504.762	1504.029	1510.623	-6.290	0.000	5.237	-6.201	-0.689	8.038
450438.385	NaN	-3.533	1.185	9.152	1504.029	1504.762	1510.623	-6.275	-0.137	5.176	-6.201	-0.536	8.038
450439.362	NaN	-3.543	1.185	9.152	1503.297	1503.297	1509.890	-6.244	-0.061	5.374	-6.201	-0.842	8.038
450440.338	NaN	-3.522	1.185	9.152	1503.297	1504.029	1510.623	-6.229	0.122	5.267	-6.048	-0.766	8.038
450441.315	NaN	-3.522	1.185	9.141	1504.029	1503.297	1509.890	-6.550	0.015	5.298	-6.201	-0.689	7.962
450442.291	NaN	-3.522	1.174	9.130	1504.029	1503.297	1509.158	-6.519	0.122	5.328	-6.278	-0.612	8.038
450443.268	NaN	-3.533	1.163	9.141	1504.029	1504.029	1510.623	-6.137	0.076	5.237	-6.354	-0.689	8.191
450444.244	NaN	-3.533	1.163	9.130	1504.762	1504.029	1509.890	-6.107	0.015	5.221	-6.201	-0.689	8.038
450445.221	NaN	-3.511	1.174	9.141	1504.762	1504.762	1509.890	-6.229	0.061	5.282	-6.278	-0.766	8.115
450446.198	NaN	-3.522	1.163	9.130	1504.762	1503.297	1509.890	-6.412	0.244	5.282	-6.201	-0.689	8.038
450447.174	NaN	-3.533	1.163	9.141	1503.297	1503.297	1506.960	-6.427	0.168	5.298	-6.278	-0.689	7.962
450448.151	NaN	-3.533	1.163	9.141	1504.762	1504.029	1510.623	-6.412	0.046	5.282	-6.278	-0.689	8.115
450449.127	NaN	-3.543	1.152	9.141	1504.762	1503.297	1509.158	-6.595	0.137	5.221	-6.201	-0.842	7.962
450450.104	NaN	-3.522	1.174	9.152	1504.762	1503.297	1509.890	-6.321	0.076	5.252	-6.278	-0.689	7.962
450451.080	NaN	-3.533	1.174	9.152	1504.762	1504.029	1509.890	-6.061	0.137	5.115	-6.201	-0.612	8.038
450452.057	NaN	-3.543	1.163	9.141	1504.029	1503.297	1509.890	-6.198	0.107	5.160	-6.278	-0.842	8.038
450453.033	NaN	-3.533	1.185	9.152	1504.762	1504.029	1510.623	-6.122	-0.122	5.313	-6.278	-0.766	7.962
450454.010	NaN	-3.543	1.174	9.141	1504.762	1503.297	1509.158	-6.168	-0.092	5.328	-6.201	-0.766	8.038
450454.987	NaN	-3.522	1.185	9.163	1503.297	1504.029	1509.890	-6.198	-0.076	5.298	-6.278	-0.766	7.962
450455.963	NaN	-3.533	1.185	9.174	1504.762	1504.029	1509.890	-6.137	-0.061	5.176	-6.278	-0.689	8.191
450456.940	NaN	-3.533	1.185	9.174	1502.564	1503.297	1510.623	-6.137	-0.061	5.130	-6.278	-0.536	8.038
450457.916	NaN	-3.511	1.185	9.185	1504.762	1504.029	1511.355	-6.321	-0.122	5.160	-6.201	-0.766	8.038
450458.893	NaN	-3.522	1.185	9.174	1504.762	1504.029	1509.890	-6.366	-0.198	5.008	-6.201	-0.612	8.038
450459.869	NaN	-3.522	1.185	9.185	1504.762	1504.762	1510.623	-6.244	-0.168	5.053	-6.278	-0.689	7.962
450460.846	NaN	-3.533	1.174	9.185	1504.762	1504.029	1509.158	-6.107	0.061	5.023	-6.201	-0.612	8.038
450461.823	NaN	-3.533	1.185	9.185	1504.029	1504.029	1511.355	-5.908	0.183	5.008	-6.278	-0.612	8.191
450462.799	NaN	-3.533	1.185	9.185	1506.227	1503.297	1508.425	-6.290	0.061	4.977	-6.278	-0.689	8.038
450463.776	NaN	-3.522	1.174	9.185	1504.029	1504.762	1509.158	-6.366	0.153	5.084	-6.201	-0.612	7.962
450464.752	NaN	-3.522	1.163	9.185	1503.297	1504.029	1509.158	-6.519	0.107	5.176	-6.278	-0.766	7.962
450465.729	NaN	-3.522	1.152	9.174	1504.762	1503.297	1510.623	-6.473	-0.137	5.206	-6.278	-0.689	7.962
450466.705	NaN	-3.522	1.174	9.174	1504.029	1503.297	1509.158	-6.443	-0.061	5.328	-6.201	-0.689	8.115
450467.682	NaN	-3.511	1.174	9.174	1503.297	1504.029	1509.158	-6.244	-0.015	5.145	-6.278	-0.612	8.038
450468.658	NaN	-3.533	1.185	9.174	1504.029	1504.762	1510.623	-6.229	-0.107	5.084	-6.278	-0.766	8.115
450469.635	NaN	-3.554	1.185	9.185	1504.029	1504.029	1511.355	-6.153	-0.061	5.206	-6.354	-0.766	8.038
450470.612	NaN	-3.543	1.185	9.174	1504.762	1504.029	1510.623	-6.107	-0.092	5.191	-6.124	-0.689	8.115
450471.588	NaN	-3.533	1.185	9.185	1505.495	1504.029	1510.623	-6.015	0.015	5.237	-6.201	-0.766	8.038
450472.565	NaN	-3.533	1.174	9.174	1504.029	1504.029	1510.623	-6.076	0.107	5.176	-6.124	-0.689	8.038
450473.541	NaN	-3.533	1.174	9.163	1504.762	1503.297	1509.890	-6.290	0.061	5.328	-6.278	-0.689	7.962
450474.518	NaN	-3.533	1.174	9.163	1504.762	1504.029	1509.158	-6.290	0.107	5.298	-6.278	-0.612	8.038
450475.494	NaN	-3.522	1.185	9.163	1505.495	1504.762	1510.623	-6.275	-0.061	5.145	-6.431	-0.842	8.038
450476.471	NaN	-3.533	1.196	9.163	1504.762	1504.762	1510.623	-6.397	-0.107	5.160	-6.201	-0.689	7.962
450477.448	NaN	-3.533	1.196	9.163	1504.762	1504.762	1510.623	-6.397	-0.015	5.191	-6.048	-0.689	8.115
450478.424	NaN	-3.543	1.207	9.163	1504.029	1504.029	1509.158	-6.275	0.046	5.023	-6.124	-0.536	8.115
450479.401	NaN	-3.543	1.185	9.152	1504.029	1504.029	1509.890	-6.015	0.000	5.084	-6.354	-0.766	8.038
450480.377	NaN	-3.533	1.185	9.152	1504.762	1504.762	1510.623	-6.076	-0.092	4.992	-6.354	-0.689	8.038
450481.354	NaN	-3.533	1.185	9.163	1504.762	1504.762	1510.623	-6.198	-0.076	4.947	-6.201	-0.689	8.038
450482.330	NaN	-3.543	1.185	9.163	1504.762	1504.762	1509.890	-6.290	-0.122	5.099	-6.278	-0.689	8.038
450483.307	NaN	-3.554	1.174	9.163	1504.029	1503.297	1509.158	-6.260	-0.061	5.130	-6.201	-0.842	8.115
450484.283	NaN	-3.543	1.174	9.163	1503.297	1504.029	1509.890	-6.382	-0.015	5.069	-6.278	-0.689	8.115
450485.260	NaN	-3.554	1.163	9.163	1503.297	1503.297	1509.890	-6.382	-0.168	5.252	-6.201	-0.689	7.962
450486.237	NaN	-3.543	1.174	9.174	1504.029	1503.297	1509.158	-6.153	-0.244	5.328	-6.201	-0.689	8.191
450487.213	NaN	-3.533	1.174	9.174	1504.762	1504.029	1510.623	-5.908	-0.046	5.221	-6.201	-0.536	8.038
450488.190	NaN	-3.543	1.163	9.152	1504.762	1504.762	1509.890	-6.229	0.031	5.328	-6.278	-0.689	8.115
450489.166	NaN	-3.522	1.163	9.152	1505.495	1504.762	1509.890	-6.550	-0.137	5.344	-6.278	-0.842	7.962
450490.143	NaN	-3.511	1.163	9.152	1504.762	1504.029	1510.623	-6.382	-0.305	5.450	-6.278	-0.689	8.191
450491.119	NaN	-3.511	1.163	9.163	1504.762	1503.297	1511.355	-6.061	-0.427	5.344	-6.201	-0.689	8.038
450492.096	NaN	-3.522	1.152	9.152	1504.762	1504.029	1509.158	-6.137	-0.260	5.130	-6.354	-0.612	8.191
450493.073	NaN	-3.522	1.163	9.141	1504.762	1504.029	1509.890	-6.229	-0.092	5.160	-6.354	-0.689	8.191
450494.049	NaN	-3.522	1.174	9.152	1504.762	1504.762	1509.890	-6.046	0.061	5.145	-6.278	-0.766	8.038
450495.026	NaN	-3.522	1.174	9.130	1504.762	1503.297	1509.890	-6.229	0.076	5.160	-6.201	-0.766	8.038
450496.002	NaN	-3.522	1.185	9.130	1504.762	1504.029	1509.158	-6.382	-0.015	5.237	-6.201	-0.536	8.115
450496.979	NaN	-3.543	1.174	9.130	1504.762	1503.297	1509.890	-6.275	-0.061	5.038	-6.278	-0.689	8.115
450497.955	NaN	-3.533	1.185	9.141	1504.762	1504.029	1510.623	-6.198	-0.046	5.115	-6.278	-0.689	8.038
450498.932	NaN	-3.533	1.185	9.141	1504.762	1504.762	1511.355	-6.107	0.000	5.450	-6.278	-0.612	7.885
450499.908	NaN	-3.533	1.185	9.141	1504.762	1504.029	1509.158	-6.153	0.107	5.298	-6.201	-0.689	7.962
450500.885	NaN	-3.533	1.185	9.152	1502.564	1502.564	1509.158	-6.290	0.168	5.206	-6.201	-0.689	8.038
450501.862	NaN	-3.533	1.185	9.152	1504.762	1504.762	1509.890	-6.626	0.015	5.206	-6.278	-0.536	8.038
450502.838	NaN	-3.533	1.185	9.141	1504.029	1504.762	1511.355	-6.534	0.061	5.176	-6.124	-0.612	7.962
450503.815	NaN	-3.522	1.185	9.152	1504.029	1504.029	1509.890	-6.305	0.031	5.069	-6.201	-0.612	7.962
450504.791	NaN	-3.511	1.185	9.152	1504.029	1504.029	1510.623	-6.198	-0.137	5.023	-6.278	-0.842	8.038
450505.768	NaN	-3.533	1.185	9.152	1504.029	1503.297	1509.890	-6.244	-0.107	5.069	-6.124	-0.766	8.038
450506.744	NaN	-3.522	1.174	9.152	1504.762	1504.762	1509.158	-6.137	-0.137	5.252	-6.124	-0.536	8.115
450507.721	NaN	-3.533	1.174	9.152	1504.762	1504.029	1510.623	-5.893	-0.168	5.328	-6.201	-0.689	8.115
450508.698	NaN	-3.543	1.163	9.152	1504.029	1504.029	1509.890	-6.046	-0.076	5.084	-6.124	-0.689	7.962
450509.674	NaN	-3.543	1.163	9.163	1504.762	1503.297	1509.158	-6.321	-0.046	4.855	-6.124	-0.383	8.115
450510.651	NaN	-3.554	1.152	9.174	1505.495	1503.297	1511.355	-6.214	-0.031	5.008	-7.349	-0.612	8.038
450511.627	NaN	-3.543	1.163	9.174	1504.762	1504.029	1511.355	-6.092	-0.183	5.038	-6.201	-0.689	7.962
450512.604	NaN	-3.533	1.163	9.174	1504.762	1504.762	1511.355	-6.031	-0.244	5.298	-6.354	-0.766	8.268
450513.580	NaN	-3.522	1.174	9.174	1504.029	1504.762	1509.890	-5.969	-0.244	5.313	-6.354	-0.612	8.038
450514.557	NaN	-3.533	1.163	9.174	1504.762	1504.762	1511.355	-6.321	-0.214	5.328	-6.354	-0.689	8.115
450515.533	NaN	-3.533	1.174	9.163	1505.495	1504.029	1509.890	-6.427	-0.214	5.206	-6.278	-0.766	8.038
450516.510	NaN	-3.533	1.163	9.163	1504.029	1503.297	1509.158	-6.336	-0.153	5.221	-6.124	-0.689	7.962
450517.487	NaN	-3.522	1.174	9.152	1503.297	1503.297	1507.692	-6.076	-0.046	5.221	-6.354	-0.689	8.038
450518.463	NaN	-3.533	1.185	9.152	1504.029	1504.029	1510.623	-6.046	0.000	5.145	-6.201	-0.612	8.191
450519.440	NaN	-3.533	1.185	9.152	1504.029	1503.297	1509.158	-6.153	0.046	5.191	-6.278	-0.689	8.038
450520.416	NaN	-3.522	1.185	9.152	1504.762	1503.297	1510.623	-6.229	-0.229	5.053	-6.201	-0.689	8.115
450521.393	NaN	-3.533	1.185	9.141	1503.297	1504.029	1509.890	-6.092	-0.275	5.099	-6.048	-0.766	8.038
450522.369	NaN	-3.533	1.174	9.152	1504.029	1503.297	1509.158	-6.000	-0.137	5.084	-6.124	-0.689	8.115
450523.346	NaN	-3.533	1.185	9.163	1504.029	1504.029	1509.890	-6.031	-0.122	5.206	-6.278	-0.842	8.115
450524.323	NaN	-3.543	1.174	9.163	1504.029	1502.564	1509.158	-6.229	-0.260	5.099	-6.431	-0.766	8.038
450525.299	NaN	-3.543	1.196	9.174	1504.762	1503.297	1509.158	-6.229	-0.336	5.115	-6.354	-0.842	8.115
450526.276	NaN	-3.554	1.185	9.163	1504.762	1504.029	1510.623	-6.107	-0.244	5.130	-6.431	-0.766	8.115
450527.252	NaN	-3.554	1.174	9.152	1504.029	1504.029	1509.158	-6.260	-0.092	5.221	-6.124	-0.689	8.115
450528.229	NaN	-3.543	1.185	9.163	1503.297	1503.297	1509.890	-6.443	-0.198	5.053	-6.354	-0.689	8.038
450529.205	NaN	-3.543	1.174	9.163	1504.029	1502.564	1509.890	-6.489	-0.321	5.099	-6.124	-0.689	8.038
450530.182	NaN	-3.543	1.174	9.163	1502.564	1504.029	1509.890	-6.504	-0.153	5.191	-6.278	-0.689	7.962
450531.158	NaN	-3.522	1.185	9.163	1504.029	1504.762	1509.890	-6.214	-0.122	5.053	-6.278	-0.842	8.038
450532.135	NaN	-3.533	1.174	9.163	1503.297	1504.029	1511.355	-6.015	-0.229	5.023	-6.278	-0.766	7.962
450533.112	NaN	-3.522	1.174	9.163	1504.762	1504.029	1510.623	-6.168	-0.076	4.977	-6.278	-0.612	8.115
450534.088	NaN	-3.522	1.174	9.163	1504.762	1505.495	1511.355	-6.168	0.076	5.069	-6.354	-0.612	8.038
450535.065	NaN	-3.522	1.174	9.163	1504.762	1504.029	1509.890	-6.321	-0.046	5.237	-6.278	-0.766	8.038
450536.041	NaN	-3.533	1.174	9.163	1504.762	1504.029	1509.890	-6.260	-0.290	5.176	-6.278	-0.689	8.115
450537.018	NaN	-3.543	1.174	9.152	1504.762	1503.297	1509.158	-6.198	-0.290	4.992	-6.278	-0.766	8.115
450537.994	NaN	-3.533	1.174	9.141	1504.762	1505.495	1510.623	-6.076	-0.290	5.145	-6.278	-0.689	7.809
450538.971	NaN	-3.533	1.174	9.152	1504.762	1504.029	1510.623	-6.046	-0.275	5.084	-6.278	-0.689	7.962
450539.948	NaN	-3.533	1.174	9.152	1504.029	1504.029	1509.890	-6.229	-0.137	5.130	-6.201	-0.612	8.038
450540.924	NaN	-3.533	1.174	9.174	1504.029	1502.564	1509.890	-6.198	-0.137	4.977	-6.354	-0.612	7.962
450541.901	NaN	-3.543	1.163	9.163	1505.495	1503.297	1509.158	-6.107	0.000	4.824	-6.201	-0.689	8.038
450542.877	3736848896.325	-3.543	1.174	9.163	1503.297	1504.029	1511.355	-6.092	-0.107	4.824	-6.278	-0.689	8.115
450543.854	NaN	-3.565	1.174	9.163	1503.297	1504.029	1509.158	-6.183	-0.336	5.115	-6.201	-0.766	7.962
450544.830	NaN	-3.554	1.163	9.163	1503.297	1502.564	1509.158	-6.183	-0.305	5.420	-6.124	-0.689	8.115
450545.807	NaN	-3.543	1.174	9.163	1503.297	1504.029	1510.623	-6.137	-0.168	5.328	-6.278	-0.766	7.962
450546.783	NaN	-3.533	1.174	9.152	1504.029	1503.297	1509.890	-6.168	-0.290	5.130	-6.201	-0.689	7.962
450547.760	NaN	-3.533	1.174	9.152	1503.297	1503.297	1508.425	-6.122	-0.122	5.069	-6.278	-0.612	8.038
450548.737	NaN	-3.533	1.174	9.163	1504.029	1504.029	1509.890	-5.969	-0.092	5.160	-6.278	-0.766	7.962
450549.713	NaN	-3.543	1.163	9.163	1502.564	1503.297	1509.158	-6.137	-0.260	5.008	-6.201	-0.689	8.115
450550.690	NaN	-3.543	1.163	9.174	1504.029	1503.297	1510.623	-6.214	-0.137	4.931	-6.124	-0.766	7.962
450551.666	NaN	-3.533	1.163	9.163	1504.029	1503.297	1509.890	-6.321	0.046	4.962	-6.278	-0.612	8.115
450552.643	NaN	-3.522	1.163	9.152	1504.029	1502.564	1510.623	-6.336	-0.076	5.130	-6.201	-0.766	8.038
450553.619	NaN	-3.522	1.174	9.163	1504.762	1503.297	1510.623	-6.137	-0.198	5.130	-6.201	-0.612	8.191
450554.596	NaN	-3.522	1.174	9.163	1502.564	1501.832	1509.158	-5.878	-0.214	5.130	-6.201	-0.766	8.268
450555.573	NaN	-3.522	1.174	9.163	1504.762	1504.762	1510.623	-6.046	-0.336	5.206	-6.278	-0.689	7.962
450556.549	NaN	-3.522	1.174	9.163	1504.029	1504.762	1510.623	-6.305	-0.351	5.084	-4.976	-0.689	8.115
450557.526	NaN	-3.533	1.174	9.163	1504.762	1504.029	1509.890	-6.427	-0.397	5.038	-6.278	-0.766	7.962
450558.502	NaN	-3.543	1.174	9.163	1504.029	1503.297	1509.890	-6.153	-0.137	4.901	-6.278	-0.689	8.115
450559.479	NaN	-3.543	1.174	9.163	1504.029	1504.029	1511.355	-6.015	-0.046	4.809	-6.354	-0.689	8.191
450560.455	NaN	-3.533	1.163	9.163	1504.762	1504.762	1509.890	-6.046	-0.015	4.794	-6.201	-0.689	7.962
450561.432	NaN	-3.533	1.174	9.174	1504.762	1504.029	1510.623	-6.214	-0.214	4.809	-6.354	-0.689	8.115
450562.408	NaN	-3.533	1.185	9.174	1504.762	1504.762	1512.088	-6.122	-0.366	5.023	-6.278	-0.612	8.191
450563.385	NaN	-3.543	1.174	9.163	1504.029	1503.297	1509.890	-5.939	-0.260	5.191	-6.278	-0.612	8.038
450564.362	NaN	-3.543	1.174	9.152	1504.029	1504.762	1508.425	-6.031	-0.153	5.115	-6.278	-0.766	8.115
450565.338	NaN	-3.533	1.174	9.152	1505.495	1504.762	1512.088	-5.863	0.000	5.008	-6.278	-0.766	8.038
