Timestamp	PC Timestamp	Low Noise Accelerometer X	Low Noise Accelerometer Y	Low Noise Accelerometer Z	Int A12	Int A13	Int A14	Gyroscope X	Gyroscope Y	Gyroscope Z	Wide Range Accelerometer X	Wide Range Accelerometer Y	Wide Range Accelerometer Z
32816.315	NaN	2.511	6.859	-5.293	1512.088	1499.634	1501.099	-0.580	-0.137	2.183	0.306	5.512	-7.809
32818.268	NaN	2.500	6.848	-5.304	1510.623	1500.366	1499.634	-0.489	-0.015	2.305	0.306	5.512	-7.732
32819.244	NaN	2.511	6.837	-5.293	1509.158	1499.634	1500.366	-0.260	0.015	2.397	0.459	5.512	-7.732
32820.221	NaN	2.511	6.848	-5.304	1510.623	1499.634	1501.099	-0.214	0.000	2.382	0.230	5.512	-7.885
32821.198	NaN	2.500	6.859	-5.293	1510.623	1501.099	1500.366	-0.168	0.061	2.107	0.306	5.435	-7.732
32822.174	NaN	2.500	6.859	-5.293	1509.890	1500.366	1498.901	-0.412	-0.061	2.183	0.459	5.359	-7.809
32823.151	NaN	2.489	6.848	-5.304	1510.623	1499.634	1501.099	-0.489	-0.229	2.214	0.230	5.512	-7.732
32824.127	NaN	2.489	6.848	-5.315	1509.890	1499.634	1499.634	-0.443	-0.244	2.031	0.383	5.359	-7.656
32825.104	NaN	2.500	6.848	-5.304	1509.890	1499.634	1500.366	-0.351	-0.107	2.244	0.383	5.512	-7.809
32826.080	NaN	2.511	6.859	-5.304	1512.088	1500.366	1498.901	-0.412	-0.031	2.260	0.383	5.512	-7.732
32827.057	NaN	2.511	6.837	-5.293	1510.623	1500.366	1501.099	-0.366	0.061	2.076	0.459	5.512	-7.732
32828.033	NaN	2.500	6.837	-5.283	1509.890	1500.366	1498.901	-0.122	0.092	1.969	0.306	5.359	-7.579
32829.010	NaN	2.489	6.826	-5.293	1510.623	1500.366	1499.634	-0.351	0.015	2.183	0.383	5.435	-7.656
32829.987	NaN	2.489	6.848	-5.283	1509.890	1500.366	1499.634	-0.565	-0.015	2.351	0.459	5.435	-7.732
32830.963	NaN	2.489	6.837	-5.293	1509.890	1500.366	1500.366	-0.565	0.061	2.458	0.383	5.512	-7.885
32831.940	NaN	2.500	6.848	-5.293	1510.623	1499.634	1500.366	-0.489	0.076	2.443	0.306	5.359	-7.732
32832.916	NaN	2.500	6.837	-5.293	1509.890	1499.634	1500.366	-0.443	0.061	2.397	0.383	5.359	-7.732
32833.893	NaN	2.511	6.848	-5.315	1510.623	1500.366	1498.901	-0.275	0.015	2.275	0.459	5.512	-7.809
32834.869	NaN	2.511	6.837	-5.315	1510.623	1499.634	1501.099	-0.061	-0.031	2.229	0.383	5.282	-7.656
32835.846	NaN	2.500	6.848	-5.315	1511.355	1499.634	1499.634	-0.137	0.031	2.229	0.306	5.589	-7.656
32836.823	NaN	2.489	6.859	-5.315	1510.623	1499.634	1499.634	-0.321	0.015	2.107	0.230	5.435	-7.732
32837.799	NaN	2.478	6.870	-5.326	1511.355	1498.901	1500.366	-0.290	-0.168	2.336	0.306	5.435	-7.656
32838.776	NaN	2.489	6.880	-5.315	1509.158	1500.366	1499.634	-0.366	-0.122	2.595	0.383	5.435	-7.656
32839.752	NaN	2.489	6.870	-5.304	1510.623	1500.366	1500.366	-0.427	0.000	2.458	0.383	5.435	-7.656
32840.729	NaN	2.500	6.859	-5.304	1509.890	1500.366	1499.634	-0.244	0.092	2.504	0.383	5.435	-7.732
32841.705	NaN	2.500	6.859	-5.304	1510.623	1499.634	1500.366	-0.321	0.122	2.382	0.383	5.435	-7.732
32842.682	NaN	2.500	6.859	-5.315	1511.355	1500.366	1500.366	-0.443	0.046	2.137	0.306	5.435	-7.732
32843.658	NaN	2.500	6.870	-5.315	1510.623	1500.366	1500.366	-0.519	-0.092	2.092	0.383	5.512	-7.809
32844.635	NaN	2.511	6.859	-5.315	1509.890	1500.366	1498.168	-0.519	0.000	2.351	0.383	5.435	-7.809
32845.612	NaN	2.511	6.859	-5.315	1510.623	1499.634	1501.099	-0.305	0.046	2.397	0.383	5.359	-7.579
32846.588	NaN	2.500	6.859	-5.315	1510.623	1498.901	1500.366	-0.321	0.061	2.519	0.383	5.435	-7.732
32847.565	NaN	2.500	6.859	-5.304	1511.355	1500.366	1500.366	-0.427	0.046	2.458	0.383	5.359	-7.732
32848.541	NaN	2.500	6.859	-5.304	1511.355	1500.366	1500.366	-0.351	0.122	2.244	0.383	5.435	-7.809
32849.518	NaN	2.500	6.859	-5.304	1510.623	1500.366	1498.901	-0.397	0.076	2.229	0.383	5.512	-7.732
32850.494	NaN	2.489	6.859	-5.315	1509.890	1498.901	1502.564	-0.305	-0.137	2.229	0.306	5.512	-7.809
32851.471	NaN	2.489	6.859	-5.315	1510.623	1501.099	1500.366	-0.305	-0.046	2.412	0.459	5.359	-7.809
32852.448	NaN	2.500	6.870	-5.304	1510.623	1499.634	1501.832	-0.229	0.122	2.458	0.383	5.512	-7.732
32853.424	NaN	2.500	6.870	-5.315	1509.158	1500.366	1499.634	-0.183	0.214	2.534	0.306	5.435	-7.656
32854.401	NaN	2.500	6.859	-5.326	1510.623	1499.634	1501.099	-0.229	0.076	2.489	0.383	5.435	-7.579
32855.377	NaN	2.500	6.859	-5.315	1509.890	1499.634	1500.366	-0.290	0.015	2.275	0.306	5.435	-7.579
32856.354	NaN	2.522	6.859	-5.304	1511.355	1500.366	1500.366	-0.153	0.061	2.351	0.383	5.512	-7.809
32857.330	NaN	2.511	6.859	-5.304	1509.890	1500.366	1499.634	-0.305	0.168	2.427	0.306	5.512	-7.579
32858.307	NaN	2.511	6.848	-5.304	1510.623	1499.634	1500.366	-0.229	-0.015	2.351	0.459	5.512	-7.656
32859.283	NaN	2.489	6.859	-5.304	1510.623	1500.366	1499.634	-0.290	-0.107	2.275	0.230	5.435	-7.656
32860.260	NaN	2.478	6.848	-5.315	1510.623	1500.366	1500.366	-0.397	0.061	2.214	0.230	5.512	-7.732
32861.237	NaN	2.489	6.870	-5.315	1509.890	1500.366	1499.634	-0.229	-0.061	2.351	0.383	5.435	-7.656
32862.213	NaN	2.500	6.859	-5.304	1512.088	1499.634	1501.099	-0.122	-0.153	2.473	0.459	5.359	-7.732
32863.190	NaN	2.489	6.859	-5.315	1510.623	1498.168	1499.634	-0.061	-0.031	2.336	0.306	5.589	-7.656
32864.166	NaN	2.489	6.859	-5.315	1510.623	1498.901	1501.099	0.000	0.214	2.336	0.459	5.435	-7.732
32865.143	NaN	2.500	6.870	-5.326	1512.088	1499.634	1501.099	0.046	0.321	2.397	0.383	5.512	-7.732
32866.119	NaN	2.489	6.870	-5.304	1510.623	1499.634	1501.099	-0.168	0.214	2.427	0.383	5.435	-7.732
32867.096	NaN	2.489	6.870	-5.304	1510.623	1500.366	1499.634	-0.260	0.031	2.458	0.383	5.435	-7.732
32868.073	NaN	2.478	6.870	-5.304	1509.890	1499.634	1500.366	-0.397	-0.031	2.443	0.306	5.512	-7.732
32869.049	NaN	2.478	6.870	-5.315	1510.623	1499.634	1499.634	-0.168	0.031	2.336	0.306	5.435	-7.656
32870.026	NaN	2.489	6.859	-5.293	1510.623	1501.099	1500.366	-0.107	0.092	2.336	0.383	5.435	-7.656
32871.002	NaN	2.500	6.859	-5.293	1511.355	1498.901	1501.099	-0.046	0.397	2.366	0.536	5.512	-7.656
32871.979	NaN	2.500	6.848	-5.293	1510.623	1499.634	1501.099	-0.153	0.321	2.107	0.230	5.435	-7.732
32872.955	NaN	2.489	6.859	-5.283	1509.890	1500.366	1499.634	-0.351	0.107	2.427	0.383	5.435	-7.809
32873.932	NaN	2.500	6.859	-5.283	1510.623	1499.634	1500.366	-0.550	0.076	2.412	0.383	5.512	-7.732
32874.908	NaN	2.500	6.859	-5.293	1509.158	1498.901	1501.099	-0.229	0.229	2.443	0.383	5.435	-7.732
32875.885	NaN	2.511	6.859	-5.283	1510.623	1500.366	1501.099	-0.107	0.198	2.397	0.383	5.359	-7.732
32876.862	NaN	2.511	6.859	-5.293	1510.623	1500.366	1499.634	-0.183	0.000	2.107	0.459	5.435	-7.656
32877.838	NaN	2.511	6.848	-5.293	1509.158	1499.634	1501.099	-0.107	0.015	2.244	0.383	5.435	-7.579
32878.815	NaN	2.522	6.848	-5.293	1512.088	1500.366	1500.366	0.061	0.137	2.321	0.459	5.435	-7.579
32879.791	NaN	2.511	6.837	-5.304	1510.623	1499.634	1500.366	-0.092	0.107	2.290	0.230	5.359	-7.732
32880.768	NaN	2.511	6.848	-5.283	1510.623	1499.634	1499.634	0.000	0.061	2.305	0.383	5.359	-7.732
32881.744	NaN	2.500	6.826	-5.283	1509.890	1500.366	1500.366	-0.168	0.107	2.260	0.306	5.435	-7.656
32882.721	NaN	2.500	6.848	-5.293	1509.890	1498.901	1501.099	-0.275	0.244	2.153	0.383	5.359	-7.809
32883.698	NaN	2.511	6.859	-5.283	1509.890	1499.634	1501.832	-0.122	0.290	2.122	0.459	5.435	-7.656
32884.674	NaN	2.511	6.859	-5.304	1510.623	1499.634	1501.099	0.107	0.168	2.107	0.383	5.435	-7.579
32885.651	NaN	2.500	6.859	-5.293	1509.890	1498.168	1500.366	-0.015	-0.076	2.092	0.459	5.512	-7.656
32886.627	NaN	2.489	6.848	-5.293	1510.623	1498.901	1499.634	-0.092	-0.076	2.137	0.306	5.512	-7.809
32887.604	NaN	2.489	6.837	-5.293	1509.158	1499.634	1498.901	-0.183	0.137	2.275	0.383	5.435	-7.656
32888.580	NaN	2.500	6.837	-5.293	1510.623	1499.634	1501.099	-0.015	0.260	2.504	0.306	5.435	-7.656
32889.557	NaN	2.500	6.837	-5.293	1510.623	1500.366	1498.901	0.092	0.244	2.290	0.306	5.435	-7.809
32890.533	NaN	2.489	6.837	-5.272	1509.158	1499.634	1500.366	-0.275	0.229	2.092	0.459	5.435	-7.809
32891.510	NaN	2.478	6.848	-5.283	1510.623	1498.901	1500.366	-0.397	0.076	2.153	0.383	5.359	-7.656
32892.487	NaN	2.489	6.848	-5.293	1510.623	1499.634	1499.634	-0.351	0.061	2.260	0.306	5.589	-7.656
32893.463	NaN	2.511	6.859	-5.272	1509.890	1498.901	1501.832	-0.122	0.153	2.260	0.306	5.435	-7.656
32894.440	NaN	2.511	6.848	-5.283	1510.623	1499.634	1501.832	-0.122	0.244	2.168	0.383	5.359	-7.732
32895.416	NaN	2.500	6.848	-5.283	1509.890	1498.901	1500.366	-0.260	0.076	2.290	0.383	5.359	-7.732
32896.393	NaN	2.511	6.848	-5.304	1510.623	1500.366	1499.634	-0.321	0.092	2.351	0.383	5.435	-7.579
32897.369	NaN	2.500	6.826	-5.315	1509.890	1499.634	1499.634	-0.275	0.107	2.244	0.383	5.512	-7.579
32898.346	NaN	2.500	6.826	-5.315	1509.158	1498.901	1499.634	-0.382	0.198	2.183	0.459	5.512	-7.732
32899.323	NaN	2.500	6.826	-5.293	1510.623	1498.901	1500.366	-0.076	0.336	2.305	0.459	5.435	-7.656
32900.299	NaN	2.489	6.837	-5.315	1510.623	1498.901	1499.634	-0.046	0.351	2.305	0.306	5.359	-7.656
32901.276	NaN	2.489	6.837	-5.293	1510.623	1500.366	1501.099	-0.305	0.229	2.244	0.383	5.435	-7.502
32902.252	NaN	2.489	6.837	-5.293	1510.623	1500.366	1498.901	-0.260	0.275	2.382	0.383	5.435	-7.732
32903.229	NaN	2.489	6.815	-5.283	1510.623	1498.901	1500.366	-0.458	0.305	2.427	0.459	5.512	-7.732
32904.205	NaN	2.489	6.826	-5.272	1510.623	1499.634	1500.366	-0.626	0.305	2.290	0.230	5.359	-7.656
32905.182	NaN	2.489	6.837	-5.283	1511.355	1500.366	1500.366	-0.519	0.168	2.321	0.383	5.435	-7.579
32906.158	NaN	2.489	6.826	-5.283	1511.355	1500.366	1500.366	-0.061	0.244	2.336	0.383	5.589	-7.579
32907.135	NaN	2.478	6.826	-5.283	1510.623	1500.366	1498.901	0.137	0.397	2.153	0.306	5.512	-7.579
32908.112	NaN	2.478	6.826	-5.283	1511.355	1499.634	1501.832	0.015	0.397	2.092	0.306	5.435	-7.732
32909.088	NaN	2.478	6.826	-5.293	1510.623	1498.901	1501.099	-0.153	0.336	2.122	0.459	5.435	-7.732
32910.065	NaN	2.489	6.837	-5.283	1510.623	1500.366	1500.366	-0.275	0.366	2.122	0.306	5.512	-7.579
32911.041	NaN	2.489	6.848	-5.283	1509.890	1500.366	1500.366	-0.168	0.305	2.534	0.230	5.435	-7.732
32912.018	NaN	2.489	6.848	-5.283	1511.355	1499.634	1501.099	0.000	0.229	2.504	0.459	5.589	-7.656
32912.994	NaN	2.489	6.848	-5.283	1509.158	1500.366	1498.901	-0.061	0.244	2.382	0.383	5.359	-7.732
32913.971	NaN	2.489	6.848	-5.293	1510.623	1500.366	1498.901	-0.321	0.214	2.305	0.306	5.359	-7.809
32914.948	NaN	2.489	6.837	-5.283	1510.623	1501.099	1500.366	-0.137	0.183	2.336	0.306	5.359	-7.656
32915.924	NaN	2.489	6.837	-5.283	1510.623	1500.366	1499.634	-0.122	0.168	2.260	0.383	5.435	-7.732
32916.901	NaN	2.500	6.837	-5.293	1509.890	1499.634	1500.366	-0.229	0.275	2.290	0.459	5.359	-7.732
32917.877	NaN	2.489	6.837	-5.315	1509.890	1500.366	1498.901	-0.275	0.260	2.290	0.306	5.512	-7.502
32918.854	NaN	2.489	6.837	-5.315	1511.355	1500.366	1501.099	-0.015	0.275	2.550	0.306	5.359	-7.732
32919.830	NaN	2.489	6.837	-5.304	1509.890	1500.366	1501.099	0.122	0.443	2.519	0.383	5.512	-7.809
32920.807	NaN	2.489	6.837	-5.304	1508.425	1500.366	1499.634	0.275	0.229	2.229	0.383	5.359	-7.732
32921.783	NaN	2.489	6.837	-5.293	1509.890	1500.366	1500.366	0.153	0.000	2.168	0.383	5.435	-7.732
32922.760	NaN	2.478	6.837	-5.304	1510.623	1499.634	1500.366	0.198	0.107	2.412	0.383	5.512	-7.656
32923.737	NaN	2.478	6.859	-5.283	1510.623	1499.634	1501.832	0.015	0.366	2.504	0.383	5.359	-7.502
32924.713	NaN	2.478	6.859	-5.283	1510.623	1499.634	1501.099	-0.061	0.412	2.321	0.230	5.512	-7.732
32925.690	NaN	2.478	6.859	-5.283	1511.355	1499.634	1500.366	0.137	0.214	2.153	0.383	5.359	-7.579
32926.666	NaN	2.478	6.859	-5.283	1509.890	1499.634	1500.366	0.122	0.168	2.061	0.306	5.512	-7.656
32927.643	NaN	2.478	6.870	-5.293	1512.088	1499.634	1501.832	-0.015	0.015	2.168	0.383	5.435	-7.732
32928.619	NaN	2.478	6.859	-5.293	1510.623	1500.366	1500.366	-0.122	0.122	2.214	0.383	5.742	-7.732
32929.596	NaN	2.478	6.859	-5.304	1510.623	1500.366	1500.366	-0.336	0.153	2.366	0.383	5.435	-7.809
32930.573	NaN	2.478	6.848	-5.293	1510.623	1499.634	1500.366	-0.168	0.198	2.382	0.459	5.435	-7.579
32931.549	NaN	2.467	6.848	-5.315	1510.623	1500.366	1499.634	-0.076	0.260	2.397	0.459	5.512	-7.656
32932.526	NaN	2.478	6.848	-5.304	1510.623	1500.366	1500.366	-0.214	0.260	2.275	0.459	5.435	-7.656
32933.502	NaN	2.489	6.859	-5.315	1510.623	1498.901	1501.099	-0.183	0.214	2.229	0.459	5.435	-7.732
32934.479	NaN	2.489	6.859	-5.304	1509.890	1499.634	1501.099	-0.183	0.321	2.244	0.383	5.282	-7.885
32935.455	NaN	2.489	6.859	-5.304	1510.623	1499.634	1500.366	-0.122	0.305	2.275	0.306	5.512	-7.732
32936.432	NaN	2.500	6.859	-5.315	1510.623	1498.901	1500.366	0.122	0.336	2.305	0.383	5.435	-7.579
32937.408	NaN	2.511	6.870	-5.304	1510.623	1499.634	1501.099	0.015	0.229	2.260	0.306	5.512	-7.732
32938.385	NaN	2.500	6.870	-5.304	1509.890	1499.634	1499.634	-0.015	0.214	2.198	0.306	5.512	-7.656
32939.362	NaN	2.500	6.859	-5.293	1511.355	1500.366	1498.901	0.061	0.275	2.229	0.306	5.435	-7.732
32940.338	NaN	2.489	6.859	-5.304	1511.355	1499.634	1500.366	0.092	0.290	2.183	0.306	5.359	-7.732
32941.315	NaN	2.489	6.870	-5.304	1509.158	1498.901	1499.634	0.092	0.275	2.336	0.383	5.435	-7.656
32942.291	NaN	2.500	6.880	-5.283	1510.623	1498.901	1500.366	-0.046	0.321	2.427	0.459	5.435	-7.809
32943.268	NaN	2.500	6.870	-5.315	1510.623	1499.634	1501.099	-0.031	0.229	2.427	0.306	5.435	-7.579
32944.244	NaN	2.500	6.870	-5.315	1508.425	1499.634	1499.634	0.015	0.290	2.290	0.536	5.435	-7.732
32945.221	NaN	2.489	6.859	-5.326	1511.355	1499.634	1500.366	-0.061	0.336	2.153	0.459	5.435	-7.656
32946.198	NaN	2.489	6.870	-5.326	1509.158	1499.634	1498.901	-0.015	0.260	2.137	0.459	5.359	-7.809
32947.174	NaN	2.500	6.870	-5.315	1509.158	1498.901	1500.366	0.000	0.183	2.305	0.306	5.435	-7.885
32948.151	NaN	2.500	6.870	-5.326	1509.158	1499.634	1500.366	0.061	0.137	2.275	0.306	5.512	-7.809
32949.127	NaN	2.500	6.870	-5.326	1509.890	1499.634	1501.099	-0.137	0.198	2.275	0.383	5.512	-7.579
32950.104	NaN	2.500	6.880	-5.326	1511.355	1500.366	1501.832	-0.321	0.229	2.412	0.306	5.359	-7.809
32951.080	NaN	2.500	6.880	-5.326	1511.355	1500.366	1498.901	-0.137	0.153	2.351	0.383	5.512	-7.732
32952.057	NaN	2.500	6.870	-5.304	1510.623	1499.634	1500.366	0.122	0.168	2.412	0.459	5.589	-7.732
32953.033	NaN	2.500	6.880	-5.304	1509.890	1499.634	1500.366	0.198	0.351	2.397	0.230	5.359	-7.732
32954.010	NaN	2.489	6.870	-5.326	1509.890	1498.901	1499.634	0.183	0.336	2.504	0.459	5.435	-7.732
32954.987	NaN	2.489	6.859	-5.315	1510.623	1499.634	1502.564	0.107	0.198	2.473	0.459	5.589	-7.656
32955.963	NaN	2.478	6.848	-5.315	1510.623	1499.634	1498.168	0.092	0.229	2.336	0.306	5.435	-7.656
32956.940	NaN	2.489	6.859	-5.304	1509.890	1498.901	1500.366	0.000	0.275	2.321	0.459	5.435	-7.656
32957.916	NaN	2.478	6.848	-5.315	1509.158	1499.634	1501.099	-0.031	0.412	2.382	0.383	5.435	-7.732
32958.893	NaN	2.467	6.859	-5.326	1509.890	1498.901	1498.901	-0.061	0.458	2.458	0.306	5.435	-7.656
32959.869	NaN	2.478	6.859	-5.315	1510.623	1499.634	1501.832	0.183	0.550	2.275	0.383	5.435	-7.809
32960.846	NaN	2.478	6.859	-5.315	1510.623	1500.366	1499.634	0.168	0.443	2.076	0.306	5.435	-7.732
32961.823	NaN	2.489	6.859	-5.315	1509.890	1498.901	1500.366	-0.061	0.382	2.061	0.383	5.512	-7.732
32962.799	NaN	2.489	6.870	-5.315	1510.623	1500.366	1500.366	-0.061	0.382	2.366	0.383	5.359	-7.732
32963.776	NaN	2.500	6.859	-5.293	1510.623	1500.366	1500.366	-0.122	0.183	2.565	0.383	5.359	-7.732
32964.752	NaN	2.500	6.859	-5.293	1510.623	1500.366	1501.099	-0.321	0.260	2.580	0.383	5.359	-7.656
32965.729	NaN	2.500	6.848	-5.293	1509.890	1500.366	1500.366	-0.076	0.244	2.489	0.383	5.359	-7.809
32966.705	NaN	2.500	6.848	-5.293	1510.623	1499.634	1501.832	-0.214	0.244	2.397	0.306	5.589	-7.732
32967.682	NaN	2.500	6.848	-5.304	1510.623	1500.366	1500.366	-0.183	0.305	2.366	0.459	5.512	-7.732
32968.658	NaN	2.511	6.859	-5.304	1510.623	1500.366	1499.634	-0.168	0.351	2.534	0.459	5.435	-7.809
32969.635	NaN	2.511	6.848	-5.304	1510.623	1500.366	1499.634	-0.046	0.321	2.458	0.306	5.665	-7.732
32970.612	NaN	2.500	6.859	-5.315	1511.355	1499.634	1500.366	0.000	0.305	2.397	0.383	5.359	-7.732
32971.588	NaN	2.489	6.848	-5.304	1509.890	1500.366	1500.366	0.137	0.412	2.366	0.306	5.512	-7.732
32972.565	NaN	2.500	6.859	-5.293	1510.623	1500.366	1498.901	-0.015	0.351	2.412	0.306	5.359	-7.732
32973.541	NaN	2.500	6.837	-5.293	1509.890	1499.634	1500.366	-0.061	0.305	2.458	0.459	5.435	-7.732
32974.518	NaN	2.500	6.837	-5.283	1509.890	1499.634	1501.099	-0.046	0.229	2.351	0.306	5.435	-7.656
32975.494	NaN	2.500	6.837	-5.293	1510.623	1500.366	1498.901	-0.031	0.382	2.397	0.459	5.512	-7.732
32976.471	NaN	2.500	6.837	-5.304	1509.890	1500.366	1498.901	0.153	0.595	2.397	0.459	5.435	-7.579
32977.448	NaN	2.489	6.837	-5.304	1510.623	1499.634	1502.564	0.382	0.351	2.336	0.306	5.359	-7.656
32978.424	NaN	2.489	6.848	-5.293	1509.890	1501.099	1499.634	0.351	0.275	2.504	0.230	5.435	-7.885
32979.401	NaN	2.489	6.837	-5.304	1510.623	1499.634	1500.366	0.061	0.366	2.611	0.306	5.359	-7.656
32980.377	NaN	2.489	6.837	-5.304	1510.623	1498.901	1501.099	0.000	0.565	2.580	0.536	5.435	-7.656
32981.354	NaN	2.489	6.848	-5.293	1509.890	1499.634	1501.099	-0.015	0.687	2.366	0.306	5.359	-7.809
32982.330	NaN	2.489	6.848	-5.293	1511.355	1500.366	1499.634	0.122	0.489	2.336	0.383	5.435	-7.885
32983.307	NaN	2.489	6.837	-5.283	1510.623	1499.634	1501.099	0.137	0.290	2.351	0.383	5.589	-7.656
32984.283	NaN	2.500	6.837	-5.283	1510.623	1500.366	1498.901	-0.336	0.290	2.382	0.306	5.512	-7.656
32985.260	NaN	2.489	6.837	-5.283	1510.623	1500.366	1499.634	-0.336	0.321	2.412	0.230	5.359	-7.656
32986.237	NaN	2.500	6.837	-5.272	1510.623	1499.634	1500.366	-0.061	0.168	2.427	0.306	5.435	-7.732
32987.213	NaN	2.500	6.848	-5.272	1511.355	1499.634	1500.366	0.000	0.244	2.458	0.306	5.435	-7.732
32988.190	NaN	2.500	6.848	-5.283	1510.623	1498.901	1500.366	0.443	0.214	2.427	0.306	5.435	-7.732
32989.166	NaN	2.500	6.837	-5.283	1509.890	1499.634	1501.099	0.443	0.244	2.275	0.383	5.435	-7.732
32990.143	NaN	2.500	6.859	-5.283	1510.623	1500.366	1499.634	0.137	0.366	2.122	0.459	5.435	-7.579
32991.119	NaN	2.500	6.848	-5.272	1509.890	1499.634	1500.366	-0.168	0.489	2.183	0.459	5.435	-7.809
32992.096	NaN	2.500	6.848	-5.272	1510.623	1500.366	1500.366	0.107	0.412	2.198	0.306	5.435	-7.656
32993.073	NaN	2.489	6.848	-5.272	1510.623	1498.901	1501.099	0.351	0.366	2.260	0.383	5.435	-7.656
32994.049	NaN	2.478	6.848	-5.283	1509.890	1500.366	1499.634	0.443	0.305	2.260	0.459	5.512	-7.656
32995.026	NaN	2.478	6.837	-5.272	1510.623	1501.099	1500.366	0.382	0.183	2.229	0.306	5.435	-7.732
32996.002	NaN	2.478	6.848	-5.272	1510.623	1500.366	1500.366	0.107	0.061	2.260	0.459	5.512	-7.732
32996.979	NaN	2.467	6.837	-5.261	1510.623	1499.634	1501.099	-0.076	0.137	2.183	0.306	5.435	-7.579
32997.955	NaN	2.478	6.848	-5.261	1510.623	1500.366	1499.634	-0.153	0.351	2.260	0.306	5.589	-7.732
32998.932	NaN	2.478	6.848	-5.272	1510.623	1500.366	1500.366	0.015	0.366	2.366	0.306	5.359	-7.579
32999.908	NaN	2.478	6.848	-5.283	1510.623	1499.634	1499.634	0.015	0.336	2.260	0.306	5.359	-7.732
33000.885	NaN	2.500	6.848	-5.272	1510.623	1498.901	1501.099	-0.107	0.260	2.107	0.306	5.435	-7.579
33001.862	NaN	2.511	6.848	-5.283	1509.158	1499.634	1501.832	-0.031	0.290	2.305	0.383	5.435	-7.656
33002.838	NaN	2.489	6.859	-5.272	1509.890	1498.901	1500.366	0.168	0.336	2.458	0.383	5.435	-7.732
33003.815	NaN	2.500	6.859	-5.272	1510.623	1500.366	1498.901	0.061	0.321	2.397	0.459	5.435	-7.809
33004.791	NaN	2.489	6.848	-5.293	1509.890	1499.634	1501.099	0.000	0.412	2.229	0.383	5.512	-7.656
33005.768	NaN	2.500	6.859	-5.283	1510.623	1499.634	1500.366	0.092	0.565	2.229	0.383	5.359	-7.656
33006.744	NaN	2.500	6.859	-5.293	1509.158	1499.634	1499.634	0.122	0.534	2.382	0.306	5.359	-7.809
33007.721	NaN	2.500	6.837	-5.293	1509.890	1498.901	1498.901	0.046	0.305	2.244	0.383	5.512	-7.656
33008.698	NaN	2.500	6.848	-5.283	1512.088	1499.634	1500.366	0.137	0.260	2.229	0.383	5.435	-7.732
33009.674	NaN	2.500	6.848	-5.293	1510.623	1499.634	1501.832	0.229	0.305	2.351	0.306	5.359	-7.579
33010.651	NaN	2.489	6.848	-5.293	1509.158	1498.901	1499.634	0.321	0.336	2.412	0.459	5.435	-7.885
33011.627	NaN	2.489	6.848	-5.304	1509.890	1498.901	1500.366	0.198	0.336	2.351	0.459	5.359	-7.656
33012.604	NaN	2.489	6.859	-5.304	1510.623	1499.634	1499.634	-0.061	0.519	2.183	0.459	5.512	-7.656
33013.580	NaN	2.489	6.859	-5.272	1510.623	1499.634	1501.099	0.137	0.489	2.412	0.306	5.435	-7.656
33014.557	NaN	2.489	6.848	-5.293	1510.623	1499.634	1499.634	0.031	0.489	2.412	0.383	5.512	-7.656
33015.533	NaN	2.500	6.859	-5.304	1509.890	1498.901	1500.366	0.092	0.427	2.336	0.383	5.435	-7.809
33016.510	NaN	2.500	6.848	-5.304	1509.890	1500.366	1500.366	0.107	0.351	2.366	0.306	5.512	-7.732
33017.487	NaN	2.500	6.848	-5.315	1509.890	1498.901	1500.366	-0.061	0.412	2.397	0.383	5.512	-7.579
33018.463	NaN	2.511	6.848	-5.304	1509.890	1498.901	1501.099	0.214	0.244	2.534	0.383	5.435	-7.502
33019.440	NaN	2.511	6.848	-5.304	1510.623	1500.366	1498.901	0.137	0.305	2.458	0.230	5.512	-7.732
33020.416	NaN	2.511	6.848	-5.315	1509.890	1499.634	1498.901	0.183	0.275	2.473	0.306	5.512	-7.732
33021.393	NaN	2.522	6.848	-5.304	1510.623	1500.366	1500.366	0.137	0.382	2.443	0.536	5.435	-7.656
33022.369	NaN	2.500	6.848	-5.315	1510.623	1500.366	1499.634	0.198	0.382	2.305	0.306	5.435	-7.732
33023.346	NaN	2.489	6.848	-5.315	1508.425	1499.634	1499.634	0.107	0.397	2.336	0.383	5.512	-7.732
33024.323	NaN	2.489	6.848	-5.293	1509.890	1500.366	1501.099	0.183	0.458	2.336	0.383	5.282	-7.885
33025.299	NaN	2.489	6.848	-5.293	1510.623	1499.634	1498.168	0.122	0.504	2.275	0.383	5.435	-7.656
33026.276	NaN	2.500	6.848	-5.293	1509.158	1498.901	1500.366	0.031	0.244	2.305	0.306	5.435	-7.732
33027.252	NaN	2.500	6.859	-5.304	1509.158	1500.366	1500.366	0.214	0.122	2.275	0.383	5.435	-7.656
33028.229	NaN	2.489	6.859	-5.304	1511.355	1499.634	1501.099	0.305	0.290	2.351	0.383	5.512	-7.579
33029.205	NaN	2.489	6.859	-5.304	1510.623	1499.634	1501.099	0.153	0.504	2.473	0.383	5.282	-7.656
33030.182	NaN	2.489	6.870	-5.293	1510.623	1501.099	1499.634	0.000	0.611	2.244	0.230	5.359	-7.809
33031.158	NaN	2.500	6.859	-5.304	1508.425	1500.366	1500.366	0.076	0.595	2.000	0.383	5.435	-7.732
33032.135	NaN	2.500	6.870	-5.304	1510.623	1499.634	1501.099	0.122	0.473	2.183	0.306	5.435	-7.809
33033.112	NaN	2.511	6.870	-5.315	1510.623	1499.634	1500.366	0.153	0.382	2.595	0.230	5.435	-7.656
33034.088	NaN	2.500	6.859	-5.315	1510.623	1499.634	1500.366	0.260	0.489	2.473	0.383	5.589	-7.656
33035.065	NaN	2.511	6.870	-5.304	1510.623	1501.099	1500.366	0.015	0.412	2.305	0.306	5.589	-7.656
33036.041	NaN	2.511	6.870	-5.304	1510.623	1500.366	1499.634	0.015	0.275	2.153	0.306	5.435	-7.732
33037.018	NaN	2.511	6.859	-5.304	1509.890	1500.366	1500.366	-0.107	0.260	2.107	0.306	5.512	-7.809
33037.994	NaN	2.500	6.870	-5.315	1507.692	1499.634	1500.366	0.076	0.427	2.214	0.230	5.512	-7.502
33038.971	NaN	2.500	6.859	-5.315	1510.623	1500.366	1500.366	0.183	0.427	2.275	0.459	5.512	-7.579
33039.948	NaN	2.500	6.870	-5.315	1510.623	1500.366	1500.366	0.076	0.397	2.229	0.459	5.589	-7.656
33040.924	NaN	2.500	6.859	-5.304	1510.623	1499.634	1500.366	0.122	0.489	2.168	0.383	5.435	-7.579
33041.901	NaN	2.500	6.880	-5.315	1509.890	1501.099	1499.634	0.107	0.443	2.137	0.306	5.359	-7.656
33042.877	NaN	2.500	6.859	-5.315	1510.623	1499.634	1500.366	0.198	0.412	2.290	0.383	5.435	-7.656
33043.854	NaN	2.500	6.880	-5.315	1511.355	1499.634	1500.366	0.198	0.595	2.550	0.383	5.435	-7.732
33044.830	NaN	2.500	6.880	-5.315	1510.623	1499.634	1501.099	0.076	0.595	2.641	0.383	5.435	-7.579
33045.807	NaN	2.489	6.880	-5.315	1510.623	1499.634	1499.634	0.000	0.641	2.427	0.459	5.359	-7.732
33046.783	NaN	2.489	6.870	-5.315	1510.623	1499.634	1500.366	0.137	0.534	2.382	0.459	5.512	-7.732
33047.760	NaN	2.489	6.870	-5.326	1511.355	1499.634	1499.634	0.382	0.397	2.351	0.383	5.435	-7.732
33048.737	NaN	2.500	6.870	-5.315	1510.623	1500.366	1500.366	0.214	0.534	2.366	0.306	5.435	-7.732
33049.713	NaN	2.500	6.880	-5.315	1509.890	1500.366	1500.366	0.198	0.550	2.321	0.383	5.512	-7.656
33050.690	NaN	2.500	6.880	-5.304	1509.890	1500.366	1501.099	0.290	0.458	2.275	0.306	5.435	-7.809
33051.666	NaN	2.500	6.870	-5.304	1510.623	1499.634	1500.366	0.275	0.519	2.473	0.459	5.435	-7.732
33052.643	NaN	2.500	6.870	-5.315	1511.355	1499.634	1501.832	0.290	0.702	2.458	0.306	5.359	-7.656
33053.619	NaN	2.500	6.870	-5.304	1509.890	1500.366	1499.634	0.183	0.702	2.366	0.306	5.435	-7.732
33054.596	NaN	2.500	6.859	-5.315	1509.890	1500.366	1498.901	0.275	0.611	2.397	0.459	5.512	-7.809
33055.573	NaN	2.489	6.859	-5.304	1511.355	1498.901	1500.366	0.031	0.336	2.489	0.459	5.435	-7.656
33056.549	NaN	2.478	6.859	-5.326	1510.623	1498.901	1499.634	-0.015	0.336	2.321	0.383	5.359	-7.656
33057.526	NaN	2.489	6.859	-5.326	1509.158	1499.634	1501.832	-0.046	0.397	2.260	0.459	5.435	-7.809
33058.502	NaN	2.489	6.859	-5.326	1509.890	1499.634	1501.099	-0.046	0.519	2.290	0.536	5.435	-7.732
33059.479	NaN	2.478	6.859	-5.326	1512.088	1500.366	1500.366	0.198	0.412	2.397	0.383	5.435	-7.732
33060.455	NaN	2.478	6.859	-5.326	1511.355	1499.634	1501.099	0.000	0.366	2.519	0.459	5.359	-7.809
33061.432	NaN	2.489	6.859	-5.326	1509.890	1498.901	1498.901	0.015	0.397	2.534	0.306	5.435	-7.732
33062.408	NaN	2.500	6.859	-5.315	1508.425	1498.901	1498.901	0.000	0.412	2.519	0.306	5.435	-7.579
33063.385	NaN	2.511	6.870	-5.315	1510.623	1499.634	1500.366	0.183	0.550	2.443	0.306	5.359	-7.732
33064.362	NaN	2.522	6.870	-5.293	1510.623	1499.634	1500.366	0.229	0.595	2.351	0.306	5.435	-7.656
33065.338	NaN	2.511	6.870	-5.304	1509.890	1500.366	1498.168	0.137	0.458	2.382	0.383	5.359	-7.656
33066.315	NaN	2.500	6.848	-5.293	1510.623	1500.366	1498.901	0.183	0.427	2.427	0.459	5.512	-7.732
33067.291	NaN	2.500	6.859	-5.293	1510.623	1500.366	1499.634	0.305	0.412	2.489	0.536	5.512	-7.656
33068.268	NaN	2.489	6.837	-5.293	1510.623	1500.366	1501.099	0.351	0.534	2.519	0.306	5.589	-7.732
33069.244	NaN	2.478	6.848	-5.293	1510.623	1499.634	1500.366	0.153	0.626	2.504	0.306	5.359	-7.656
33070.221	NaN	2.478	6.837	-5.304	1509.158	1499.634	1498.901	-0.061	0.366	2.321	0.459	5.359	-7.809
33071.198	NaN	2.500	6.848	-5.293	1510.623	1500.366	1498.168	0.168	0.504	2.198	0.459	5.359	-7.656
33072.174	NaN	2.500	6.837	-5.315	1509.890	1499.634	1501.099	0.137	0.595	2.244	0.230	5.512	-7.656
33073.151	NaN	2.500	6.848	-5.304	1509.158	1499.634	1501.832	0.015	0.519	2.229	0.459	5.435	-7.502
33074.127	NaN	2.511	6.848	-5.315	1509.158	1499.634	1501.099	0.107	0.458	2.351	0.230	5.435	-7.579
33075.104	NaN	2.500	6.848	-5.315	1509.890	1498.901	1500.366	0.183	0.351	2.397	0.306	5.359	-7.809
33076.080	NaN	2.511	6.848	-5.293	1510.623	1500.366	1501.099	0.351	0.290	2.305	0.306	5.435	-7.656
33077.057	NaN	2.500	6.848	-5.304	1512.088	1499.634	1499.634	0.366	0.412	2.412	0.306	5.512	-7.579
33078.033	NaN	2.500	6.848	-5.283	1510.623	1499.634	1500.366	0.214	0.595	2.473	0.383	5.435	-7.885
33079.010	NaN	2.478	6.848	-5.293	1511.355	1500.366	1498.168	0.031	0.733	2.427	0.383	5.359	-7.809
33079.987	NaN	2.489	6.826	-5.283	1509.890	1500.366	1498.901	0.015	0.656	2.397	0.383	5.435	-7.656
33080.963	NaN	2.500	6.837	-5.272	1511.355	1500.366	1500.366	0.092	0.611	2.275	0.230	5.435	-7.656
33081.940	NaN	2.489	6.837	-5.293	1511.355	1500.366	1498.901	-0.076	0.473	2.366	0.306	5.359	-7.809
33082.916	NaN	2.500	6.837	-5.293	1508.425	1498.901	1499.634	-0.107	0.366	2.519	0.383	5.359	-7.579
33083.893	NaN	2.511	6.848	-5.283	1509.890	1500.366	1500.366	0.229	0.397	2.473	0.306	5.435	-7.656
33084.869	NaN	2.489	6.848	-5.283	1510.623	1499.634	1500.366	0.092	0.504	2.550	0.459	5.359	-7.656
33085.846	NaN	2.489	6.859	-5.272	1509.158	1498.901	1500.366	0.000	0.611	2.336	0.306	5.435	-7.502
33086.823	NaN	2.478	6.859	-5.283	1511.355	1499.634	1500.366	0.122	0.656	2.229	0.306	5.359	-7.656
33087.799	NaN	2.478	6.837	-5.293	1509.890	1499.634	1499.634	0.092	0.611	2.351	0.306	5.435	-7.579
33088.776	3736843359.015	2.489	6.848	-5.272	1510.623	1498.901	1500.366	0.244	0.397	2.183	0.459	5.435	-7.579
33089.752	NaN	2.489	6.837	-5.272	1508.425	1500.366	1500.366	0.351	0.565	2.153	0.383	5.282	-7.732
33090.729	NaN	2.500	6.837	-5.261	1509.158	1498.901	1499.634	0.137	0.565	2.519	0.306	5.435	-7.732
33091.705	NaN	2.500	6.837	-5.239	1510.623	1499.634	1501.832	0.198	0.412	2.641	0.230	5.512	-7.732
33092.682	NaN	2.500	6.848	-5.250	1508.425	1500.366	1500.366	0.015	0.305	2.443	0.306	5.359	-7.579
33093.658	NaN	2.500	6.848	-5.261	1511.355	1499.634	1501.099	0.107	0.443	2.321	0.383	5.359	-7.579
33094.635	NaN	2.500	6.837	-5.272	1511.355	1499.634	1498.901	0.366	0.565	2.275	0.383	5.435	-7.732
33095.612	NaN	2.500	6.837	-5.283	1509.890	1499.634	1501.099	0.351	0.534	2.366	0.383	5.435	-7.656
33096.588	NaN	2.489	6.837	-5.283	1509.890	1499.634	1499.634	0.473	0.427	2.641	0.459	5.512	-7.579
33097.565	NaN	2.500	6.837	-5.283	1510.623	1500.366	1500.366	0.321	0.321	2.534	0.306	5.435	-7.732
33098.541	NaN	2.511	6.848	-5.283	1510.623	1500.366	1498.901	0.183	0.397	2.519	0.306	5.282	-7.809
33099.518	NaN	2.500	6.837	-5.283	1510.623	1500.366	1498.901	0.107	0.534	2.427	0.459	5.512	-7.732
33100.494	NaN	2.500	6.837	-5.283	1510.623	1499.634	1501.832	0.244	0.489	2.153	0.230	5.435	-7.732
33101.471	NaN	2.500	6.848	-5.283	1510.623	1500.366	1500.366	0.382	0.626	2.229	0.383	5.435	-7.656
33102.448	NaN	2.511	6.859	-5.283	1512.088	1498.901	1501.099	0.458	0.534	2.290	0.383	5.512	-7.732
33103.424	NaN	2.511	6.848	-5.283	1510.623	1499.634	1500.366	0.244	0.382	2.260	0.306	5.435	-7.656
33104.401	NaN	2.500	6.848	-5.293	1509.890	1499.634	1501.099	0.244	0.473	2.351	0.306	5.512	-7.579
33105.377	NaN	2.489	6.837	-5.304	1510.623	1499.634	1500.366	-0.031	0.595	2.473	0.383	5.359	-7.732
33106.354	NaN	2.500	6.848	-5.293	1511.355	1500.366	1500.366	-0.153	0.489	2.397	0.383	5.359	-7.656
33107.330	NaN	2.489	6.837	-5.283	1510.623	1499.634	1501.099	0.137	0.382	2.489	0.383	5.435	-7.656
33108.307	NaN	2.489	6.837	-5.283	1510.623	1500.366	1500.366	0.275	0.244	2.504	0.306	5.589	-7.809
33109.283	NaN	2.489	6.837	-5.283	1510.623	1500.366	1498.168	0.366	0.275	2.473	0.306	5.512	-7.732
33110.260	NaN	2.489	6.837	-5.293	1511.355	1499.634	1499.634	0.305	0.458	2.397	0.306	5.512	-7.656
33111.237	NaN	2.500	6.837	-5.293	1511.355	1500.366	1501.099	0.168	0.427	2.260	0.306	5.435	-7.579
33112.213	NaN	2.500	6.848	-5.304	1510.623	1500.366	1500.366	0.260	0.565	2.198	0.383	5.359	-7.579
33113.190	NaN	2.489	6.848	-5.304	1509.890	1499.634	1500.366	0.168	0.656	2.168	0.383	5.359	-7.809
33114.166	NaN	2.500	6.848	-5.304	1510.623	1499.634	1500.366	0.321	0.626	2.321	0.383	5.359	-7.809
33115.143	NaN	2.500	6.859	-5.304	1510.623	1500.366	1498.168	0.275	0.489	2.366	0.383	5.512	-7.579
33116.119	NaN	2.500	6.859	-5.293	1510.623	1500.366	1500.366	-0.031	0.519	2.260	0.459	5.359	-7.656
33117.096	NaN	2.500	6.870	-5.293	1510.623	1499.634	1500.366	-0.076	0.534	2.183	0.459	5.435	-7.732
33118.073	NaN	2.489	6.859	-5.315	1509.890	1499.634	1498.901	0.000	0.382	2.260	0.459	5.435	-7.809
33119.049	NaN	2.489	6.848	-5.315	1510.623	1499.634	1500.366	0.092	0.412	2.412	0.306	5.512	-7.732
33120.026	NaN	2.489	6.859	-5.304	1510.623	1499.634	1499.634	0.031	0.550	2.366	0.459	5.512	-7.809
33121.002	NaN	2.489	6.848	-5.304	1510.623	1499.634	1500.366	0.092	0.397	2.366	0.383	5.512	-7.579
33121.979	NaN	2.489	6.859	-5.304	1510.623	1499.634	1499.634	0.244	0.489	2.473	0.306	5.359	-7.732
33122.955	NaN	2.500	6.848	-5.304	1510.623	1499.634	1500.366	0.183	0.534	2.382	0.383	5.435	-7.732
33123.932	NaN	2.500	6.859	-5.326	1509.158	1498.901	1499.634	0.153	0.611	2.321	0.383	5.512	-7.656
33124.908	NaN	2.511	6.848	-5.304	1510.623	1500.366	1501.099	0.153	0.595	2.290	0.383	5.359	-7.732
33125.885	NaN	2.500	6.848	-5.315	1510.623	1498.901	1500.366	0.168	0.427	2.137	0.383	5.512	-7.656
33126.862	NaN	2.522	6.848	-5.304	1509.890	1498.901	1500.366	0.137	0.519	2.168	0.383	5.512	-7.656
33127.838	NaN	2.500	6.848	-5.315	1509.890	1499.634	1499.634	0.214	0.397	2.229	0.459	5.435	-7.732
33128.815	NaN	2.511	6.837	-5.326	1509.890	1499.634	1500.366	0.168	0.489	2.382	0.383	5.512	-7.732
33129.791	NaN	2.522	6.848	-5.304	1509.890	1500.366	1498.901	0.397	0.641	2.412	0.383	5.589	-7.579
33130.768	NaN	2.511	6.837	-5.315	1510.623	1500.366	1498.901	0.336	0.550	2.504	0.306	5.435	-7.656
33131.744	NaN	2.511	6.837	-5.326	1509.158	1498.901	1498.168	0.168	0.489	2.489	0.383	5.359	-7.656
33132.721	NaN	2.522	6.848	-5.315	1509.890	1500.366	1499.634	0.290	0.702	2.244	0.383	5.359	-7.579
33133.698	NaN	2.511	6.837	-5.315	1509.890	1499.634	1500.366	0.183	0.687	2.137	0.306	5.512	-7.656
33134.674	NaN	2.511	6.848	-5.315	1510.623	1499.634	1500.366	0.076	0.489	2.550	0.383	5.435	-7.809
33135.651	NaN	2.522	6.870	-5.304	1511.355	1499.634	1499.634	0.122	0.321	2.565	0.459	5.359	-7.732
33136.627	NaN	2.511	6.859	-5.315	1511.355	1500.366	1498.901	0.305	0.336	2.550	0.383	5.512	-7.656
33137.604	NaN	2.522	6.859	-5.315	1509.158	1498.901	1497.436	0.550	0.550	2.504	0.383	5.512	-7.885
33138.580	NaN	2.522	6.870	-5.293	1509.890	1498.901	1499.634	0.687	0.382	2.458	0.383	5.435	-7.656
33139.557	NaN	2.511	6.859	-5.315	1509.890	1500.366	1500.366	0.626	0.198	2.473	0.459	5.435	-7.656
33140.533	NaN	2.511	6.859	-5.326	1509.158	1498.901	1500.366	0.305	0.366	2.489	0.383	5.512	-7.732
33141.510	NaN	2.500	6.859	-5.304	1510.623	1499.634	1499.634	-0.031	0.565	2.397	0.230	5.435	-7.656
33142.487	NaN	2.500	6.859	-5.315	1509.158	1499.634	1500.366	0.015	0.534	2.351	0.383	5.512	-7.656
33143.463	NaN	2.511	6.859	-5.304	1509.158	1498.168	1499.634	0.122	0.473	2.290	0.306	5.435	-7.656
33144.440	NaN	2.522	6.859	-5.326	1510.623	1499.634	1500.366	0.168	0.595	2.229	0.383	5.435	-7.809
33145.416	NaN	2.522	6.870	-5.337	1512.088	1499.634	1500.366	0.305	0.565	2.260	0.383	5.435	-7.579
33146.393	NaN	2.533	6.870	-5.326	1509.158	1500.366	1499.634	0.458	0.305	2.366	0.383	5.589	-7.809
33147.369	NaN	2.511	6.859	-5.326	1509.890	1500.366	1499.634	0.382	0.397	2.336	0.306	5.435	-7.656
33148.346	NaN	2.500	6.859	-5.315	1510.623	1499.634	1501.099	0.229	0.397	2.153	0.383	5.512	-7.732
33149.323	NaN	2.500	6.859	-5.315	1510.623	1499.634	1499.634	0.244	0.351	2.305	0.230	5.589	-7.656
33150.299	NaN	2.500	6.859	-5.304	1510.623	1498.901	1501.099	0.244	0.397	2.473	0.383	5.512	-7.732
33151.276	NaN	2.500	6.859	-5.304	1510.623	1499.634	1501.832	0.153	0.473	2.504	0.383	5.359	-7.579
33152.252	NaN	2.500	6.859	-5.304	1509.890	1498.901	1500.366	0.198	0.550	2.458	0.383	5.435	-7.732
33153.229	NaN	2.500	6.848	-5.293	1510.623	1498.901	1500.366	0.168	0.489	2.275	0.536	5.435	-7.732
33154.205	NaN	2.500	6.848	-5.293	1510.623	1498.901	1500.366	0.107	0.443	2.198	0.383	5.435	-7.656
33155.182	NaN	2.500	6.848	-5.304	1510.623	1499.634	1500.366	0.214	0.504	2.229	0.459	5.512	-7.809
33156.158	NaN	2.511	6.848	-5.304	1510.623	1500.366	1500.366	0.031	0.443	2.229	0.230	5.359	-7.809
33157.135	NaN	2.500	6.848	-5.293	1509.890	1499.634	1500.366	-0.122	0.443	2.244	0.383	5.359	-7.732
33158.112	NaN	2.489	6.837	-5.315	1509.890	1499.634	1500.366	-0.031	0.489	2.382	0.230	5.435	-7.809
33159.088	NaN	2.478	6.859	-5.326	1509.890	1499.634	1500.366	0.168	0.565	2.366	0.383	5.589	-7.809
33160.065	NaN	2.489	6.859	-5.315	1511.355	1500.366	1500.366	0.595	0.534	2.458	0.383	5.512	-7.579
33161.041	NaN	2.489	6.859	-5.304	1510.623	1498.901	1499.634	0.580	0.427	2.519	0.383	5.512	-7.656
33162.018	NaN	2.489	6.870	-5.304	1509.158	1498.901	1499.634	0.275	0.580	2.489	0.383	5.435	-7.656
33162.994	NaN	2.500	6.848	-5.315	1510.623	1499.634	1501.099	0.107	0.550	2.336	0.383	5.512	-7.732
33170.807	NaN	2.489	6.848	-5.304	1509.890	1498.901	1500.366	0.046	0.489	2.366	0.383	5.435	-7.502
33171.783	NaN	2.489	6.859	-5.315	1509.890	1499.634	1501.099	0.168	0.534	2.198	0.459	5.435	-7.656
33172.760	NaN	2.500	6.859	-5.304	1509.158	1500.366	1499.634	0.382	0.519	2.351	0.383	5.359	-7.656
33173.737	NaN	2.500	6.859	-5.283	1511.355	1500.366	1501.832	0.534	0.229	2.427	0.306	5.359	-7.732
33174.713	NaN	2.500	6.848	-5.283	1511.355	1499.634	1500.366	0.321	0.336	2.305	0.306	5.512	-7.732
33175.690	NaN	2.511	6.837	-5.283	1510.623	1499.634	1500.366	0.153	0.687	2.321	0.230	5.512	-7.579
33176.666	NaN	2.500	6.837	-5.283	1509.890	1500.366	1500.366	0.015	0.702	2.260	0.459	5.512	-7.579
33177.643	NaN	2.511	6.848	-5.283	1510.623	1500.366	1499.634	0.046	0.595	2.107	0.383	5.435	-7.656
33178.619	NaN	2.511	6.837	-5.272	1511.355	1499.634	1500.366	0.122	0.550	2.107	0.383	5.359	-7.656
33179.596	NaN	2.511	6.837	-5.261	1510.623	1500.366	1499.634	0.153	0.595	2.336	0.383	5.359	-7.502
33180.573	NaN	2.511	6.826	-5.250	1510.623	1498.901	1501.099	0.076	0.550	2.336	0.306	5.435	-7.732
33181.549	NaN	2.500	6.837	-5.250	1510.623	1501.099	1500.366	0.183	0.504	2.168	0.306	5.282	-7.732
33182.526	NaN	2.500	6.837	-5.250	1511.355	1500.366	1500.366	0.382	0.504	2.229	0.383	5.359	-7.809
33183.502	NaN	2.500	6.837	-5.261	1511.355	1498.901	1500.366	0.305	0.427	2.458	0.459	5.435	-7.809
33184.479	NaN	2.500	6.826	-5.272	1510.623	1498.901	1501.832	0.092	0.397	2.504	0.383	5.512	-7.656
33185.455	NaN	2.500	6.837	-5.272	1509.890	1498.901	1501.099	0.198	0.489	2.351	0.230	5.512	-7.656
33186.432	NaN	2.500	6.826	-5.272	1510.623	1500.366	1498.901	0.305	0.565	2.183	0.306	5.512	-7.732
33187.408	NaN	2.522	6.826	-5.261	1509.890	1500.366	1498.168	0.397	0.794	2.183	0.459	5.359	-7.579
33188.385	NaN	2.511	6.815	-5.261	1509.890	1499.634	1500.366	0.244	0.763	2.214	0.306	5.359	-7.732
33189.362	NaN	2.522	6.826	-5.272	1506.227	1499.634	1500.366	0.046	0.458	2.183	0.383	5.359	-7.732
33190.338	NaN	2.500	6.815	-5.283	1509.890	1499.634	1500.366	0.153	0.458	2.321	0.306	5.359	-7.732
33191.315	NaN	2.500	6.826	-5.293	1509.158	1500.366	1500.366	0.122	0.321	2.489	0.383	5.435	-7.579
33192.291	NaN	2.511	6.837	-5.272	1509.890	1499.634	1500.366	0.137	0.382	2.489	0.306	5.435	-7.656
33193.268	NaN	2.500	6.837	-5.283	1509.890	1499.634	1501.099	0.198	0.412	2.321	0.306	5.359	-7.809
33194.244	NaN	2.500	6.826	-5.293	1509.158	1498.901	1498.901	0.458	0.229	2.275	0.459	5.435	-7.809
33195.221	NaN	2.500	6.837	-5.293	1511.355	1501.099	1499.634	0.382	0.229	2.336	0.459	5.512	-7.732
33196.198	NaN	2.489	6.815	-5.293	1509.890	1500.366	1500.366	0.153	0.382	2.275	0.383	5.359	-7.579
33197.174	NaN	2.500	6.837	-5.293	1509.158	1498.901	1499.634	0.046	0.534	2.183	0.306	5.512	-7.809
33198.151	NaN	2.500	6.826	-5.304	1509.890	1499.634	1500.366	0.031	0.565	2.321	0.383	5.512	-7.732
33199.127	NaN	2.500	6.826	-5.315	1509.890	1498.901	1499.634	0.153	0.443	2.336	0.383	5.512	-7.732
33200.104	NaN	2.511	6.826	-5.304	1510.623	1501.099	1500.366	0.336	0.534	2.275	0.459	5.435	-7.732
33201.080	NaN	2.489	6.826	-5.315	1510.623	1498.901	1499.634	0.321	0.443	2.275	0.383	5.435	-7.656
33202.057	NaN	2.489	6.837	-5.304	1507.692	1498.901	1500.366	0.473	0.351	2.260	0.306	5.435	-7.656
33203.033	NaN	2.500	6.848	-5.304	1509.890	1498.901	1500.366	0.260	0.489	2.321	0.306	5.435	-7.656
33204.010	NaN	2.489	6.848	-5.304	1509.158	1499.634	1500.366	0.122	0.656	2.336	0.383	5.359	-7.732
33204.987	NaN	2.500	6.859	-5.293	1510.623	1499.634	1501.832	-0.076	0.733	2.351	0.306	5.359	-7.656
33205.963	NaN	2.500	6.859	-5.304	1510.623	1499.634	1500.366	-0.031	0.626	2.351	0.306	5.282	-7.732
33206.940	NaN	2.489	6.859	-5.304	1509.158	1498.901	1499.634	0.305	0.519	2.366	0.383	5.512	-7.656
33207.916	NaN	2.489	6.870	-5.315	1510.623	1500.366	1500.366	0.443	0.550	2.321	0.383	5.512	-7.809
33208.893	NaN	2.489	6.870	-5.326	1509.158	1498.901	1498.901	0.092	0.519	2.031	0.459	5.282	-7.502
33209.869	NaN	2.511	6.870	-5.304	1509.890	1498.901	1499.634	-0.046	0.321	1.969	0.383	5.512	-7.579
33210.846	NaN	2.500	6.859	-5.315	1509.890	1499.634	1500.366	-0.031	0.305	2.122	0.306	5.435	-7.656
33211.823	NaN	2.489	6.848	-5.304	1509.890	1499.634	1500.366	0.046	0.412	2.183	0.383	5.589	-7.732
33212.799	NaN	2.478	6.859	-5.304	1509.890	1501.099	1499.634	0.321	0.412	2.244	0.459	5.435	-7.656
33213.776	NaN	2.489	6.859	-5.293	1510.623	1500.366	1499.634	0.321	0.519	2.168	0.459	5.512	-7.732
33214.752	NaN	2.489	6.859	-5.293	1509.158	1500.366	1499.634	0.183	0.519	2.015	0.383	5.435	-7.732
33215.729	3736843359.167	2.478	6.848	-5.315	1510.623	1498.901	1501.099	0.275	0.550	2.107	0.383	5.589	-7.656
33216.705	NaN	2.500	6.848	-5.304	1509.158	1499.634	1501.832	0.183	0.534	2.214	0.306	5.435	-7.656
33217.682	NaN	2.500	6.859	-5.304	1511.355	1499.634	1501.099	0.061	0.458	2.229	0.306	5.359	-7.579
33218.658	NaN	2.511	6.848	-5.293	1511.355	1499.634	1499.634	-0.122	0.412	2.168	0.459	5.435	-7.656
33219.635	NaN	2.511	6.837	-5.293	1511.355	1499.634	1501.099	0.046	0.519	2.260	0.383	5.435	-7.656
33220.612	NaN	2.500	6.837	-5.304	1511.355	1500.366	1498.901	0.198	0.412	2.397	0.459	5.512	-7.732
33221.588	NaN	2.500	6.837	-5.304	1511.355	1498.901	1501.099	0.183	0.382	2.305	0.230	5.359	-7.656
33222.565	NaN	2.500	6.848	-5.283	1512.088	1500.366	1501.832	0.382	0.366	2.153	0.383	5.435	-7.809
33223.541	NaN	2.500	6.848	-5.283	1511.355	1500.366	1500.366	0.366	0.321	2.305	0.383	5.359	-7.732
33224.518	NaN	2.500	6.859	-5.283	1510.623	1499.634	1501.099	0.198	0.595	2.427	0.459	5.435	-7.656
33225.494	NaN	2.511	6.859	-5.293	1509.890	1500.366	1500.366	0.244	0.687	2.168	0.383	5.589	-7.809
33226.471	NaN	2.511	6.870	-5.304	1510.623	1500.366	1499.634	0.214	0.397	2.168	0.459	5.512	-7.732
33227.448	NaN	2.511	6.848	-5.293	1510.623	1500.366	1499.634	0.260	0.275	2.397	0.383	5.435	-7.809
33228.424	NaN	2.522	6.859	-5.293	1511.355	1499.634	1499.634	0.260	0.443	2.565	0.306	5.435	-7.732
33229.401	NaN	2.522	6.859	-5.304	1512.088	1498.901	1500.366	0.397	0.534	2.519	0.306	5.435	-7.656
33230.377	NaN	2.500	6.848	-5.315	1510.623	1499.634	1499.634	0.260	0.580	2.565	0.230	5.512	-7.656
33231.354	NaN	2.500	6.848	-5.304	1511.355	1499.634	1500.366	0.122	0.580	2.534	0.383	5.359	-7.732
33232.330	NaN	2.489	6.859	-5.304	1509.158	1500.366	1500.366	0.031	0.626	2.321	0.459	5.435	-7.656
33233.307	NaN	2.500	6.859	-5.304	1511.355	1499.634	1501.099	-0.153	0.641	2.183	0.230	5.435	-7.885
33234.283	NaN	2.500	6.859	-5.315	1510.623	1499.634	1500.366	0.046	0.534	2.244	0.383	5.282	-7.885
33235.260	NaN	2.500	6.859	-5.326	1510.623	1499.634	1499.634	0.153	0.275	2.260	0.306	5.206	-7.732
33236.237	NaN	2.522	6.859	-5.315	1510.623	1499.634	1500.366	0.290	0.534	2.351	0.383	5.589	-7.579
33237.213	NaN	2.511	6.859	-5.315	1511.355	1500.366	1500.366	0.244	0.702	2.229	0.383	5.589	-7.732
33238.190	NaN	2.511	6.848	-5.304	1511.355	1499.634	1500.366	-0.061	0.519	2.198	0.383	5.359	-7.579
33239.166	NaN	2.511	6.837	-5.315	1510.623	1499.634	1499.634	0.031	0.473	2.183	0.230	5.435	-7.656
33240.143	NaN	2.511	6.859	-5.315	1510.623	1499.634	1500.366	0.107	0.504	2.183	0.306	5.359	-7.579
33241.119	NaN	2.511	6.859	-5.304	1511.355	1499.634	1501.099	0.183	0.443	2.260	0.383	5.282	-7.732
33242.096	NaN	2.511	6.859	-5.304	1509.890	1499.634	1500.366	0.260	0.412	2.290	0.459	5.435	-7.656
33243.073	NaN	2.511	6.870	-5.304	1509.890	1499.634	1500.366	0.198	0.351	2.290	0.230	5.512	-7.732
33244.049	NaN	2.511	6.859	-5.337	1511.355	1499.634	1500.366	0.092	0.305	2.351	0.383	5.435	-7.809
33245.026	NaN	2.511	6.859	-5.337	1510.623	1500.366	1500.366	0.031	0.443	2.351	0.383	5.512	-7.732
33246.002	NaN	2.511	6.859	-5.326	1512.088	1499.634	1500.366	0.168	0.427	2.321	0.383	5.435	-7.656
33246.979	NaN	2.511	6.848	-5.326	1509.890	1499.634	1500.366	0.275	0.275	2.290	0.383	5.435	-7.656
33247.955	NaN	2.511	6.848	-5.315	1509.890	1499.634	1500.366	0.397	0.275	2.229	0.459	5.512	-7.732
33248.932	NaN	2.511	6.859	-5.315	1511.355	1499.634	1501.099	0.397	0.473	2.214	0.459	5.435	-7.656
33249.908	NaN	2.511	6.859	-5.315	1509.890	1500.366	1501.099	0.153	0.595	2.244	0.459	5.359	-7.885
33250.885	NaN	2.500	6.859	-5.326	1508.425	1499.634	1501.832	0.092	0.504	2.183	0.306	5.512	-7.809
33251.862	NaN	2.500	6.859	-5.337	1510.623	1499.634	1500.366	0.137	0.427	2.275	0.306	5.359	-7.732
33252.838	NaN	2.489	6.848	-5.337	1510.623	1499.634	1501.099	0.214	0.427	2.244	0.383	5.435	-7.732
33253.815	NaN	2.500	6.859	-5.326	1512.088	1499.634	1501.099	0.412	0.397	2.076	0.536	5.435	-7.732
33254.791	NaN	2.500	6.848	-5.337	1509.890	1499.634	1500.366	0.290	0.641	2.137	0.306	5.589	-7.579
33255.768	NaN	2.500	6.859	-5.315	1509.158	1498.901	1498.901	-0.046	0.519	2.076	0.306	5.435	-7.732
33256.744	NaN	2.500	6.859	-5.315	1508.425	1498.901	1499.634	-0.214	0.443	2.153	0.306	5.512	-7.579
33257.721	NaN	2.500	6.859	-5.304	1511.355	1499.634	1500.366	-0.153	0.260	2.366	0.459	5.589	-7.579
33258.698	NaN	2.500	6.848	-5.315	1510.623	1499.634	1501.099	0.290	0.137	2.473	0.306	5.359	-7.732
33259.674	NaN	2.500	6.848	-5.315	1508.425	1498.901	1500.366	0.275	0.382	2.443	0.383	5.512	-7.656
33260.651	NaN	2.500	6.848	-5.304	1509.158	1498.168	1500.366	0.244	0.443	2.443	0.306	5.359	-7.732
33261.627	NaN	2.489	6.848	-5.315	1510.623	1499.634	1500.366	0.214	0.321	2.382	0.383	5.435	-7.656
33262.604	NaN	2.500	6.848	-5.304	1510.623	1498.901	1498.901	0.198	0.412	2.244	0.383	5.435	-7.656
33263.580	NaN	2.489	6.848	-5.304	1509.158	1499.634	1500.366	0.046	0.489	2.107	0.459	5.512	-7.809
33264.557	NaN	2.489	6.848	-5.293	1507.692	1498.901	1500.366	0.214	0.534	2.183	0.383	5.435	-7.656
33265.533	NaN	2.489	6.859	-5.304	1509.890	1500.366	1498.168	0.443	0.504	2.183	0.306	5.435	-7.579
33266.510	NaN	2.478	6.848	-5.304	1509.890	1498.901	1500.366	0.366	0.443	2.198	0.306	5.589	-7.656
33267.487	NaN	2.500	6.859	-5.293	1509.890	1500.366	1499.634	0.107	0.382	2.153	0.230	5.512	-7.732
33268.463	NaN	2.511	6.837	-5.283	1510.623	1500.366	1500.366	0.046	0.229	2.244	0.306	5.435	-7.732
33269.440	NaN	2.511	6.848	-5.293	1510.623	1498.901	1499.634	0.061	0.168	2.290	0.306	5.512	-7.732
33270.416	NaN	2.500	6.837	-5.304	1509.890	1499.634	1500.366	0.122	0.244	2.214	0.383	5.512	-7.732
33271.393	NaN	2.500	6.848	-5.293	1509.890	1498.901	1500.366	0.244	0.244	2.168	0.383	5.282	-7.809
33272.369	NaN	2.511	6.859	-5.283	1510.623	1500.366	1500.366	0.198	0.183	2.183	0.306	5.435	-7.732
33273.346	NaN	2.500	6.848	-5.304	1510.623	1500.366	1499.634	-0.107	0.290	2.260	0.383	5.359	-7.656
33274.323	NaN	2.478	6.826	-5.304	1508.425	1499.634	1500.366	-0.260	0.489	2.305	0.383	5.435	-7.579
33275.299	NaN	2.478	6.837	-5.304	1509.158	1498.901	1500.366	0.214	0.427	2.275	0.383	5.512	-7.579
33276.276	NaN	2.478	6.837	-5.304	1509.158	1500.366	1500.366	0.290	0.168	2.275	0.306	5.359	-7.885
33277.252	NaN	2.500	6.848	-5.283	1509.890	1499.634	1499.634	0.092	0.366	2.229	0.383	5.435	-7.732
33278.229	NaN	2.500	6.826	-5.293	1511.355	1499.634	1499.634	0.061	0.489	2.305	0.383	5.359	-7.656
33279.205	NaN	2.500	6.826	-5.304	1509.890	1498.901	1499.634	0.183	0.412	2.504	0.383	5.435	-7.732
33280.182	NaN	2.511	6.837	-5.315	1510.623	1500.366	1501.099	0.076	0.519	2.504	0.459	5.282	-7.579
33281.158	NaN	2.511	6.837	-5.315	1509.158	1498.901	1499.634	0.229	0.519	2.336	0.230	5.359	-7.579
33282.135	NaN	2.511	6.837	-5.304	1509.158	1498.901	1501.832	0.260	0.443	2.183	0.230	5.435	-7.579
33283.112	NaN	2.511	6.848	-5.293	1510.623	1500.366	1499.634	0.076	0.382	2.214	0.306	5.512	-7.809
33284.088	NaN	2.500	6.837	-5.304	1509.890	1498.901	1500.366	-0.015	0.382	2.229	0.383	5.435	-7.732
33285.065	NaN	2.511	6.848	-5.283	1511.355	1500.366	1500.366	0.137	0.382	2.366	0.306	5.435	-7.732
33286.041	NaN	2.511	6.837	-5.272	1510.623	1500.366	1500.366	0.015	0.336	2.290	0.383	5.435	-7.732
33287.018	NaN	2.511	6.848	-5.283	1510.623	1500.366	1499.634	0.046	0.305	2.244	0.383	5.359	-7.656
33287.994	NaN	2.500	6.837	-5.272	1510.623	1499.634	1499.634	0.061	0.290	2.305	0.306	5.435	-7.732
33288.971	NaN	2.489	6.848	-5.293	1511.355	1500.366	1498.901	0.153	0.305	2.092	0.459	5.512	-7.732
33289.948	NaN	2.500	6.848	-5.283	1510.623	1500.366	1498.901	0.244	0.443	2.260	0.306	5.359	-7.732
33290.924	NaN	2.511	6.837	-5.283	1509.890	1500.366	1499.634	0.229	0.351	2.351	0.383	5.359	-7.656
33291.901	NaN	2.511	6.837	-5.283	1509.890	1499.634	1500.366	0.290	0.427	2.260	0.383	5.435	-7.732
33292.877	NaN	2.500	6.826	-5.283	1509.890	1500.366	1498.901	0.198	0.366	2.183	0.306	5.512	-7.809
33293.854	NaN	2.500	6.837	-5.272	1510.623	1501.099	1500.366	-0.107	0.397	2.183	0.459	5.359	-7.656
33294.830	NaN	2.500	6.837	-5.283	1510.623	1500.366	1500.366	-0.183	0.443	2.198	0.306	5.435	-7.656
33295.807	NaN	2.511	6.837	-5.283	1510.623	1499.634	1501.099	0.000	0.336	2.382	0.383	5.512	-7.656
33296.783	NaN	2.511	6.837	-5.283	1510.623	1500.366	1499.634	0.015	0.382	2.382	0.383	5.512	-7.656
33297.760	NaN	2.500	6.826	-5.304	1510.623	1499.634	1501.099	-0.015	0.412	2.290	0.383	5.512	-7.579
33298.737	NaN	2.500	6.826	-5.293	1511.355	1499.634	1500.366	0.076	0.321	2.305	0.306	5.359	-7.732
33299.713	NaN	2.500	6.826	-5.293	1510.623	1500.366	1500.366	0.458	0.336	2.275	0.306	5.359	-7.732
33300.690	NaN	2.500	6.826	-5.293	1511.355	1500.366	1500.366	0.397	0.275	2.244	0.306	5.359	-7.656
33301.666	NaN	2.489	6.826	-5.304	1509.158	1498.901	1501.099	0.137	0.275	2.168	0.383	5.282	-7.579
33302.643	NaN	2.500	6.826	-5.283	1510.623	1500.366	1500.366	0.137	0.305	2.168	0.383	5.435	-7.656
33303.619	NaN	2.500	6.837	-5.272	1510.623	1499.634	1501.099	0.122	0.305	2.107	0.383	5.435	-7.885
33304.596	NaN	2.500	6.837	-5.272	1508.425	1499.634	1500.366	0.061	0.290	2.092	0.306	5.512	-7.579
33305.573	NaN	2.500	6.837	-5.283	1510.623	1499.634	1500.366	0.031	0.412	2.015	0.459	5.512	-7.885
33306.549	NaN	2.500	6.837	-5.304	1509.158	1500.366	1499.634	0.244	0.534	2.168	0.459	5.435	-7.656
33307.526	NaN	2.500	6.826	-5.304	1510.623	1499.634	1500.366	0.153	0.412	2.229	0.383	5.282	-7.732
33308.502	NaN	2.500	6.837	-5.293	1511.355	1500.366	1499.634	0.046	0.473	2.229	0.383	5.282	-7.732
33309.479	NaN	2.511	6.826	-5.315	1510.623	1500.366	1499.634	0.092	0.443	2.260	0.306	5.435	-7.732
33310.455	NaN	2.511	6.826	-5.315	1510.623	1499.634	1501.099	0.244	0.321	2.260	0.459	5.359	-7.732
33311.432	NaN	2.511	6.848	-5.315	1511.355	1499.634	1501.099	0.229	0.305	2.198	0.383	5.435	-7.656
33312.408	NaN	2.511	6.859	-5.315	1509.890	1500.366	1500.366	0.122	0.489	2.260	0.459	5.589	-7.809
33313.385	NaN	2.500	6.870	-5.337	1511.355	1499.634	1500.366	-0.015	0.443	2.397	0.306	5.435	-7.656
33314.362	NaN	2.489	6.870	-5.326	1509.890	1499.634	1499.634	-0.031	0.305	2.443	0.383	5.359	-7.809
33315.338	NaN	2.478	6.859	-5.337	1510.623	1499.634	1501.099	0.031	0.244	2.153	0.383	5.435	-7.809
33316.315	NaN	2.478	6.859	-5.326	1510.623	1498.901	1500.366	0.031	0.275	2.092	0.459	5.435	-7.732
33317.291	NaN	2.489	6.859	-5.304	1510.623	1499.634	1501.099	0.046	0.260	2.153	0.459	5.435	-7.809
33318.268	NaN	2.489	6.848	-5.304	1510.623	1500.366	1500.366	0.092	0.305	2.061	0.459	5.512	-7.579
33319.244	NaN	2.500	6.848	-5.293	1509.158	1498.901	1500.366	0.092	0.382	1.924	0.230	5.512	-7.732
33320.221	NaN	2.511	6.848	-5.293	1509.890	1498.901	1500.366	0.183	0.351	2.015	0.306	5.282	-7.732
33321.198	NaN	2.500	6.837	-5.304	1509.890	1498.901	1500.366	0.244	0.260	2.107	0.230	5.512	-7.656
33322.174	NaN	2.511	6.848	-5.293	1509.158	1499.634	1500.366	0.336	0.229	2.153	0.459	5.512	-7.809
33323.151	NaN	2.511	6.848	-5.304	1511.355	1499.634	1501.099	0.137	0.153	2.031	0.536	5.359	-7.656
33324.127	NaN	2.511	6.837	-5.315	1509.890	1498.901	1500.366	0.046	0.260	2.137	0.383	5.435	-7.809
33325.104	NaN	2.522	6.848	-5.315	1509.890	1500.366	1499.634	0.290	0.366	2.107	0.230	5.359	-7.732
33326.080	NaN	2.511	6.837	-5.326	1509.890	1500.366	1500.366	0.321	0.412	2.321	0.383	5.435	-7.885
33327.057	NaN	2.522	6.848	-5.326	1510.623	1500.366	1499.634	0.183	0.168	2.214	0.306	5.359	-7.732
33328.033	NaN	2.511	6.837	-5.326	1510.623	1499.634	1501.099	0.168	0.000	2.168	0.383	5.282	-7.656
33329.010	NaN	2.500	6.848	-5.315	1508.425	1498.901	1499.634	0.076	0.015	2.214	0.306	5.435	-7.579
33329.987	NaN	2.511	6.848	-5.304	1510.623	1499.634	1501.099	0.137	0.153	2.122	0.459	5.359	-7.502
33330.963	NaN	2.511	6.848	-5.315	1509.158	1499.634	1499.634	0.031	0.351	2.137	0.230	5.665	-7.502
33331.940	NaN	2.511	6.848	-5.315	1510.623	1500.366	1498.901	0.000	0.534	1.985	0.383	5.359	-7.732
33332.916	NaN	2.511	6.837	-5.315	1509.890	1499.634	1500.366	-0.046	0.534	1.817	0.383	5.435	-7.656
33333.893	NaN	2.500	6.837	-5.304	1509.890	1498.901	1499.634	-0.015	0.412	1.969	0.306	5.512	-7.809
33334.869	NaN	2.522	6.848	-5.293	1509.890	1500.366	1499.634	-0.076	0.183	2.092	0.306	5.435	-7.732
33335.846	NaN	2.511	6.848	-5.315	1509.890	1500.366	1499.634	0.092	0.183	2.214	0.383	5.435	-7.656
33336.823	NaN	2.511	6.848	-5.304	1508.425	1499.634	1501.099	0.244	0.290	2.107	0.536	5.512	-7.732
33337.799	NaN	2.500	6.848	-5.304	1509.890	1500.366	1498.901	0.305	0.305	2.214	0.383	5.435	-7.656
33338.776	NaN	2.500	6.859	-5.293	1509.158	1499.634	1499.634	0.290	0.260	2.137	0.383	5.512	-7.809
33339.752	NaN	2.511	6.859	-5.293	1509.158	1498.901	1498.901	0.229	0.275	2.244	0.459	5.435	-7.809
33340.729	NaN	2.500	6.859	-5.293	1510.623	1499.634	1501.099	0.198	0.168	2.137	0.306	5.435	-7.732
33341.705	NaN	2.500	6.859	-5.293	1509.890	1499.634	1500.366	0.198	0.046	2.214	0.383	5.435	-7.656
33342.682	NaN	2.500	6.870	-5.304	1510.623	1501.099	1499.634	0.214	0.198	2.244	0.306	5.435	-7.656
33343.658	NaN	2.489	6.870	-5.304	1509.890	1500.366	1501.099	0.183	0.321	2.153	0.459	5.359	-7.579
33344.635	NaN	2.500	6.880	-5.315	1509.158	1500.366	1498.901	0.183	0.168	2.137	0.459	5.359	-7.732
33345.612	NaN	2.500	6.880	-5.315	1509.890	1499.634	1501.832	0.153	0.183	2.214	0.306	5.435	-7.656
33346.588	NaN	2.500	6.870	-5.315	1510.623	1499.634	1501.099	0.076	0.107	2.183	0.306	5.435	-7.732
33347.565	NaN	2.522	6.870	-5.293	1510.623	1501.099	1500.366	0.168	0.015	2.122	0.383	5.512	-7.579
33348.541	3736843359.280	2.522	6.859	-5.293	1510.623	1499.634	1501.099	0.107	0.229	2.015	0.230	5.206	-7.656
33349.518	NaN	2.522	6.848	-5.283	1511.355	1499.634	1499.634	0.198	0.321	1.939	0.306	5.282	-7.885
33350.494	NaN	2.522	6.837	-5.283	1509.890	1499.634	1499.634	0.336	0.290	2.031	0.230	5.435	-7.656
33351.471	NaN	2.500	6.837	-5.283	1509.890	1499.634	1501.099	0.214	0.183	2.137	0.306	5.359	-7.656
33352.448	NaN	2.500	6.848	-5.272	1510.623	1500.366	1499.634	0.122	0.214	2.076	0.306	5.359	-7.732
33353.424	NaN	2.500	6.837	-5.283	1511.355	1499.634	1500.366	0.076	0.153	2.122	0.306	5.359	-7.579
33354.401	NaN	2.500	6.848	-5.293	1511.355	1499.634	1499.634	0.015	0.061	2.168	0.383	5.435	-7.579
33355.377	NaN	2.500	6.837	-5.293	1509.890	1499.634	1500.366	-0.092	0.153	1.939	0.459	5.359	-7.656
33356.354	NaN	2.511	6.848	-5.293	1510.623	1501.099	1501.832	0.061	0.290	1.939	0.383	5.359	-7.732
33357.330	NaN	2.511	6.837	-5.304	1509.890	1500.366	1500.366	0.321	0.473	2.092	0.306	5.359	-7.732
33358.307	NaN	2.500	6.848	-5.304	1511.355	1499.634	1501.099	0.122	0.366	2.260	0.383	5.359	-7.579
33359.283	NaN	2.489	6.837	-5.304	1509.890	1499.634	1500.366	-0.107	0.153	2.290	0.459	5.512	-7.732
33360.260	NaN	2.489	6.837	-5.315	1511.355	1500.366	1500.366	0.015	0.137	2.244	0.383	5.512	-7.809
33361.237	NaN	2.500	6.837	-5.304	1511.355	1499.634	1501.832	0.076	0.092	1.985	0.230	5.359	-7.579
33362.213	NaN	2.500	6.859	-5.304	1510.623	1500.366	1499.634	0.153	0.137	2.046	0.306	5.359	-7.809
33363.190	NaN	2.500	6.848	-5.293	1510.623	1501.099	1500.366	0.168	0.275	2.244	0.306	5.589	-7.656
33364.166	NaN	2.500	6.848	-5.304	1510.623	1500.366	1498.901	0.000	0.260	2.000	0.306	5.435	-7.656
33365.143	NaN	2.500	6.848	-5.293	1510.623	1501.099	1500.366	-0.183	0.183	1.939	0.383	5.435	-7.809
33366.119	NaN	2.500	6.848	-5.283	1510.623	1501.099	1500.366	-0.015	0.275	1.954	0.383	5.512	-7.732
33367.096	NaN	2.489	6.848	-5.272	1511.355	1499.634	1500.366	0.031	0.244	2.198	0.383	5.512	-7.579
33368.073	NaN	2.489	6.859	-5.272	1511.355	1498.901	1498.901	0.092	0.260	2.198	0.459	5.512	-7.656
33369.049	NaN	2.478	6.837	-5.283	1511.355	1499.634	1500.366	0.153	0.290	2.168	0.306	5.512	-7.732
33370.026	NaN	2.489	6.848	-5.272	1511.355	1500.366	1499.634	0.336	0.366	2.122	0.383	5.435	-7.656
33371.002	NaN	2.489	6.837	-5.272	1510.623	1499.634	1500.366	0.153	0.244	1.969	0.306	5.435	-7.656
33371.979	NaN	2.478	6.837	-5.283	1509.890	1499.634	1500.366	-0.031	0.168	1.908	0.383	5.282	-7.732
33372.955	NaN	2.478	6.837	-5.283	1509.890	1499.634	1500.366	-0.122	0.061	1.969	0.383	5.359	-7.656
33373.932	NaN	2.489	6.848	-5.293	1510.623	1500.366	1498.901	-0.137	0.198	2.000	0.306	5.512	-7.732
33374.908	NaN	2.489	6.837	-5.283	1510.623	1500.366	1501.099	-0.214	0.076	1.924	0.230	5.512	-7.656
33375.885	NaN	2.489	6.848	-5.283	1510.623	1498.901	1500.366	-0.229	-0.107	2.076	0.383	5.512	-7.656
33376.862	NaN	2.478	6.848	-5.293	1509.890	1499.634	1501.832	-0.244	-0.015	2.321	0.383	5.512	-7.732
33377.838	NaN	2.489	6.848	-5.293	1509.890	1498.901	1498.901	-0.122	0.183	2.183	0.230	5.435	-7.656
33378.815	NaN	2.500	6.848	-5.293	1510.623	1500.366	1499.634	-0.061	0.153	2.137	0.306	5.435	-7.732
33379.791	NaN	2.489	6.837	-5.293	1509.890	1499.634	1501.099	0.031	0.183	2.046	0.383	5.512	-7.732
33380.768	NaN	2.500	6.848	-5.272	1509.890	1499.634	1501.099	0.137	0.137	2.305	0.383	5.359	-7.732
33381.744	NaN	2.489	6.848	-5.283	1509.890	1500.366	1499.634	0.076	0.107	2.183	0.306	5.512	-7.579
33382.721	NaN	2.500	6.837	-5.272	1509.158	1498.168	1498.901	0.153	0.183	2.031	0.459	5.359	-7.579
33383.698	NaN	2.522	6.837	-5.272	1510.623	1500.366	1498.901	0.122	0.122	2.046	0.230	5.435	-7.656
33384.674	NaN	2.511	6.837	-5.283	1508.425	1499.634	1499.634	0.000	0.076	2.092	0.306	5.435	-7.579
33385.651	NaN	2.511	6.837	-5.293	1509.890	1499.634	1498.901	-0.015	-0.061	2.122	0.306	5.512	-7.732
33386.627	NaN	2.511	6.837	-5.283	1510.623	1499.634	1500.366	-0.031	-0.061	2.229	0.459	5.512	-7.656
33387.604	NaN	2.500	6.848	-5.283	1509.158	1498.901	1499.634	0.046	0.031	2.153	0.383	5.435	-7.809
33388.580	NaN	2.511	6.848	-5.283	1509.890	1498.901	1500.366	0.031	0.305	2.046	0.383	5.359	-7.732
33389.557	NaN	2.511	6.848	-5.293	1510.623	1500.366	1498.901	0.107	0.397	2.122	0.383	5.512	-7.656
33390.533	NaN	2.500	6.848	-5.293	1509.158	1499.634	1501.099	-0.015	0.168	2.137	0.306	5.282	-7.656
33391.510	NaN	2.500	6.848	-5.272	1511.355	1500.366	1499.634	-0.046	-0.015	2.275	0.383	5.435	-7.579
33392.487	NaN	2.489	6.837	-5.283	1509.890	1500.366	1498.901	-0.061	0.061	2.168	0.383	5.512	-7.579
33393.463	NaN	2.500	6.848	-5.261	1510.623	1499.634	1500.366	0.015	0.321	1.954	0.383	5.435	-7.656
33394.440	NaN	2.489	6.837	-5.261	1510.623	1499.634	1499.634	-0.061	0.260	2.000	0.383	5.359	-7.579
33395.416	NaN	2.489	6.837	-5.261	1510.623	1498.901	1499.634	-0.122	0.107	2.031	0.383	5.512	-7.656
33396.393	NaN	2.500	6.837	-5.250	1511.355	1499.634	1501.099	-0.107	0.153	1.924	0.306	5.435	-7.732
33397.369	NaN	2.500	6.837	-5.272	1510.623	1498.901	1500.366	-0.031	0.198	2.092	0.306	5.359	-7.656
33398.346	NaN	2.489	6.837	-5.272	1509.158	1498.168	1500.366	-0.076	0.076	2.366	0.306	5.435	-7.502
33399.323	NaN	2.489	6.837	-5.283	1509.890	1499.634	1500.366	0.015	0.122	2.305	0.383	5.589	-7.732
33400.299	NaN	2.489	6.837	-5.283	1509.158	1499.634	1500.366	0.000	0.092	2.214	0.306	5.435	-7.732
33401.276	NaN	2.500	6.848	-5.283	1512.088	1500.366	1499.634	-0.168	0.046	2.183	0.306	5.435	-7.579
33402.252	NaN	2.500	6.837	-5.283	1511.355	1498.901	1500.366	-0.168	0.183	1.908	0.383	5.359	-7.656
33403.229	NaN	2.500	6.848	-5.283	1510.623	1498.901	1501.832	-0.046	0.244	2.015	0.306	5.435	-7.656
33404.205	NaN	2.500	6.848	-5.272	1510.623	1498.901	1501.099	-0.031	0.168	2.092	0.383	5.512	-7.732
33405.182	NaN	2.500	6.848	-5.272	1511.355	1500.366	1499.634	-0.076	0.076	1.939	0.383	5.512	-7.732
33406.158	NaN	2.500	6.837	-5.261	1510.623	1500.366	1500.366	0.229	0.076	1.924	0.383	5.359	-7.809
33407.135	NaN	2.511	6.848	-5.261	1510.623	1499.634	1501.832	0.321	0.244	1.878	0.459	5.359	-7.732
33408.112	NaN	2.500	6.837	-5.272	1510.623	1499.634	1500.366	0.214	0.290	1.924	0.459	5.512	-7.732
33409.088	NaN	2.489	6.837	-5.283	1511.355	1499.634	1499.634	0.168	0.153	1.893	0.383	5.435	-7.656
33410.065	NaN	2.500	6.837	-5.272	1509.890	1501.099	1499.634	0.198	0.031	1.893	0.459	5.282	-7.656
33411.041	NaN	2.500	6.848	-5.272	1510.623	1500.366	1499.634	0.214	0.229	2.107	0.306	5.359	-7.579
33412.018	NaN	2.500	6.848	-5.272	1511.355	1499.634	1500.366	-0.015	0.260	2.244	0.306	5.512	-7.579
33412.994	NaN	2.489	6.848	-5.272	1510.623	1500.366	1498.901	-0.290	0.244	2.031	0.383	5.435	-7.732
33413.971	NaN	2.489	6.859	-5.283	1510.623	1500.366	1501.099	-0.214	0.168	1.863	0.306	5.435	-7.809
33414.948	NaN	2.489	6.848	-5.272	1509.890	1500.366	1499.634	-0.031	0.229	1.786	0.383	5.435	-7.656
33415.924	NaN	2.500	6.837	-5.283	1509.158	1499.634	1499.634	-0.107	0.122	2.031	0.306	5.359	-7.732
33416.901	NaN	2.500	6.848	-5.283	1511.355	1499.634	1499.634	-0.107	0.214	2.137	0.306	5.359	-7.809
33417.877	NaN	2.500	6.837	-5.272	1510.623	1499.634	1500.366	-0.031	0.290	2.107	0.383	5.435	-7.809
33418.854	NaN	2.511	6.848	-5.283	1512.088	1499.634	1501.099	0.168	0.214	2.000	0.383	5.359	-7.656
33419.830	NaN	2.500	6.848	-5.283	1511.355	1499.634	1501.832	0.229	0.107	1.893	0.459	5.359	-7.502
33420.807	NaN	2.500	6.848	-5.283	1510.623	1500.366	1500.366	0.076	0.092	1.924	0.459	5.282	-7.502
33421.783	NaN	2.511	6.848	-5.283	1509.158	1500.366	1499.634	-0.015	0.107	2.000	0.383	5.435	-7.656
33422.760	NaN	2.500	6.837	-5.293	1510.623	1499.634	1500.366	-0.046	0.229	1.985	0.306	5.359	-7.809
33423.737	NaN	2.511	6.848	-5.293	1510.623	1499.634	1501.099	0.000	0.412	1.954	0.459	5.512	-7.579
33424.713	NaN	2.511	6.859	-5.293	1509.890	1499.634	1500.366	0.046	0.489	2.015	0.306	5.435	-7.656
33425.690	NaN	2.500	6.848	-5.293	1510.623	1499.634	1501.099	0.046	0.351	2.137	0.383	5.512	-7.732
33426.666	NaN	2.489	6.848	-5.293	1509.890	1499.634	1500.366	-0.031	0.076	2.015	0.459	5.512	-7.732
33427.643	NaN	2.489	6.859	-5.304	1510.623	1501.099	1500.366	-0.015	-0.031	1.969	0.383	5.589	-7.732
33428.619	NaN	2.489	6.859	-5.293	1509.890	1500.366	1499.634	0.107	0.061	1.817	0.383	5.359	-7.579
33429.596	NaN	2.489	6.848	-5.304	1510.623	1499.634	1501.099	0.046	0.153	1.832	0.383	5.435	-7.579
33430.573	NaN	2.489	6.859	-5.304	1510.623	1498.901	1500.366	-0.015	0.153	1.863	0.459	5.282	-7.732
33431.549	NaN	2.478	6.848	-5.315	1510.623	1499.634	1501.832	-0.076	0.031	1.985	0.459	5.435	-7.656
33432.526	NaN	2.489	6.859	-5.293	1509.890	1499.634	1501.832	0.092	-0.061	2.076	0.153	5.665	-7.656
33433.502	NaN	2.500	6.848	-5.293	1510.623	1499.634	1501.099	0.000	0.061	2.198	0.459	5.359	-7.656
33434.479	NaN	2.500	6.859	-5.293	1510.623	1500.366	1500.366	0.137	0.229	2.275	0.536	5.435	-7.656
33435.455	NaN	2.489	6.859	-5.293	1510.623	1499.634	1500.366	0.122	0.382	2.275	0.459	5.435	-7.885
33436.432	NaN	2.489	6.859	-5.293	1511.355	1500.366	1499.634	-0.122	0.260	2.229	0.306	5.512	-7.732
33437.408	NaN	2.500	6.859	-5.283	1510.623	1500.366	1500.366	-0.015	0.229	2.244	0.306	5.435	-7.579
33438.385	NaN	2.511	6.870	-5.293	1510.623	1499.634	1501.099	0.000	0.153	2.137	0.230	5.435	-7.732
33439.362	NaN	2.500	6.870	-5.293	1510.623	1499.634	1501.099	0.046	-0.153	2.046	0.383	5.435	-7.732
33440.338	NaN	2.500	6.870	-5.293	1510.623	1499.634	1501.099	0.183	-0.244	1.924	0.306	5.435	-7.732
33441.315	NaN	2.500	6.870	-5.293	1509.890	1499.634	1500.366	0.137	-0.122	1.893	0.459	5.435	-7.656
33442.291	NaN	2.500	6.880	-5.293	1510.623	1499.634	1501.099	-0.031	-0.076	1.924	0.383	5.512	-7.656
33443.268	NaN	2.500	6.880	-5.293	1509.890	1500.366	1500.366	-0.275	0.076	2.000	0.459	5.359	-7.656
33444.244	NaN	2.511	6.880	-5.304	1510.623	1498.168	1499.634	-0.168	0.336	1.985	0.383	5.435	-7.809
33445.221	NaN	2.511	6.870	-5.304	1510.623	1498.901	1500.366	-0.061	0.473	1.969	0.383	5.512	-7.809
33446.198	NaN	2.500	6.870	-5.304	1509.158	1498.901	1500.366	0.031	0.305	1.939	0.459	5.359	-7.809
33447.174	NaN	2.500	6.859	-5.283	1508.425	1498.901	1499.634	0.015	0.305	1.847	0.306	5.282	-7.732
33448.151	NaN	2.500	6.859	-5.293	1509.890	1499.634	1501.099	0.183	0.183	1.908	0.383	5.512	-7.656
33449.127	NaN	2.500	6.859	-5.304	1508.425	1498.901	1501.099	0.107	-0.015	1.939	0.383	5.435	-7.732
33450.104	NaN	2.511	6.880	-5.304	1510.623	1501.099	1500.366	0.031	0.153	2.122	0.306	5.512	-7.732
33451.080	NaN	2.511	6.859	-5.326	1510.623	1498.901	1499.634	-0.122	0.168	2.153	0.306	5.512	-7.656
33452.057	NaN	2.533	6.859	-5.326	1509.890	1498.901	1499.634	0.000	0.275	2.107	0.306	5.589	-7.579
33453.033	NaN	2.522	6.848	-5.326	1509.890	1498.901	1500.366	0.061	0.351	1.939	0.536	5.435	-7.656
33454.010	NaN	2.511	6.859	-5.326	1509.890	1498.901	1500.366	-0.061	0.382	1.771	0.383	5.359	-7.809
33454.987	NaN	2.522	6.859	-5.315	1510.623	1500.366	1499.634	-0.076	0.076	1.863	0.306	5.435	-7.656
33455.963	NaN	2.511	6.848	-5.315	1510.623	1499.634	1499.634	0.031	-0.153	2.000	0.306	5.435	-7.656
33456.940	NaN	2.500	6.848	-5.304	1508.425	1498.901	1500.366	-0.168	-0.168	2.260	0.459	5.435	-7.656
33457.916	NaN	2.500	6.848	-5.304	1510.623	1498.901	1498.901	0.015	0.046	2.214	0.459	5.359	-7.809
33458.893	NaN	2.500	6.848	-5.293	1509.890	1499.634	1499.634	-0.015	0.153	1.786	0.383	5.512	-7.656
33459.869	NaN	2.511	6.848	-5.293	1510.623	1499.634	1500.366	0.031	0.244	1.634	0.306	5.512	-7.656
33460.846	NaN	2.511	6.848	-5.293	1510.623	1499.634	1501.099	0.031	0.198	1.924	0.459	5.435	-7.656
33461.823	NaN	2.511	6.848	-5.293	1509.890	1499.634	1499.634	-0.183	-0.061	2.046	0.459	5.435	-7.579
33462.799	NaN	2.511	6.837	-5.283	1509.158	1499.634	1498.901	-0.168	-0.137	1.786	0.306	5.435	-7.656
33463.776	NaN	2.511	6.837	-5.283	1509.158	1499.634	1499.634	-0.183	-0.107	1.786	0.459	5.512	-7.732
33464.752	NaN	2.533	6.837	-5.272	1510.623	1499.634	1500.366	-0.061	-0.015	1.786	0.230	5.359	-7.732
33465.729	NaN	2.533	6.837	-5.272	1510.623	1500.366	1499.634	-0.137	-0.061	1.893	0.536	5.359	-7.809
33466.705	NaN	2.533	6.826	-5.272	1510.623	1498.901	1501.099	-0.076	-0.061	1.893	0.306	5.512	-7.656
33467.682	NaN	2.533	6.837	-5.283	1510.623	1500.366	1500.366	0.137	0.031	1.985	0.383	5.282	-7.656
33468.658	NaN	2.533	6.837	-5.293	1511.355	1500.366	1499.634	0.122	0.076	2.092	0.383	5.512	-7.656
33469.635	NaN	2.522	6.848	-5.304	1510.623	1499.634	1500.366	-0.076	0.031	2.275	0.306	5.435	-7.732
33470.612	NaN	2.522	6.848	-5.304	1510.623	1499.634	1500.366	-0.183	-0.015	2.168	0.383	5.435	-7.579
33471.588	NaN	2.500	6.859	-5.304	1510.623	1499.634	1499.634	0.015	0.015	1.847	0.383	5.435	-7.656
33472.565	NaN	2.500	6.859	-5.293	1510.623	1501.099	1500.366	-0.122	0.168	1.802	0.306	5.359	-7.656
33473.541	NaN	2.489	6.859	-5.293	1510.623	1499.634	1501.099	-0.092	0.061	1.832	0.383	5.359	-7.656
33474.518	NaN	2.489	6.859	-5.293	1509.890	1500.366	1498.901	0.137	-0.031	1.847	0.383	5.435	-7.656
33475.494	NaN	2.500	6.859	-5.293	1509.890	1499.634	1499.634	0.260	-0.107	1.908	0.383	5.359	-7.732
33476.471	NaN	2.500	6.859	-5.293	1509.890	1500.366	1500.366	0.305	-0.061	1.908	0.383	5.512	-7.656
33477.448	NaN	2.500	6.859	-5.272	1510.623	1500.366	1499.634	0.122	-0.076	2.000	0.383	5.359	-7.656
33478.424	NaN	2.489	6.859	-5.283	1510.623	1499.634	1501.099	0.137	-0.290	2.000	0.306	5.359	-7.579
33479.401	NaN	2.489	6.859	-5.272	1510.623	1500.366	1499.634	0.031	-0.107	2.031	0.230	5.512	-7.579
33480.377	NaN	2.478	6.848	-5.272	1509.890	1499.634	1501.099	-0.061	0.046	2.000	0.383	5.435	-7.809
33481.354	NaN	2.478	6.859	-5.261	1511.355	1500.366	1499.634	0.076	0.076	2.122	0.306	5.512	-7.732
33482.330	NaN	2.478	6.848	-5.250	1509.890	1499.634	1501.832	0.137	-0.031	2.061	0.459	5.435	-7.579
33483.307	NaN	2.489	6.848	-5.261	1509.890	1500.366	1499.634	0.046	0.000	2.076	0.383	5.512	-7.732
33484.283	NaN	2.489	6.837	-5.261	1509.158	1500.366	1499.634	-0.031	0.000	1.939	0.230	5.512	-7.656
33485.260	NaN	2.489	6.837	-5.272	1511.355	1499.634	1500.366	0.015	-0.031	1.710	0.383	5.435	-7.656
33486.237	NaN	2.500	6.848	-5.261	1510.623	1500.366	1501.099	-0.046	-0.061	1.573	0.383	5.435	-7.579
33487.213	NaN	2.500	6.859	-5.272	1510.623	1500.366	1500.366	-0.107	0.137	1.771	0.459	5.512	-7.732
33488.190	NaN	2.489	6.848	-5.261	1509.890	1499.634	1500.366	-0.092	0.061	1.924	0.536	5.512	-7.656
33489.166	NaN	2.489	6.848	-5.261	1510.623	1500.366	1499.634	-0.092	0.046	2.046	0.383	5.435	-7.502
33490.143	NaN	2.489	6.837	-5.261	1511.355	1500.366	1500.366	-0.137	-0.092	2.183	0.383	5.435	-7.732
33491.119	NaN	2.500	6.826	-5.261	1510.623	1499.634	1500.366	-0.214	-0.092	2.015	0.306	5.359	-7.579
33492.096	NaN	2.500	6.837	-5.250	1510.623	1500.366	1499.634	-0.107	-0.046	1.710	0.383	5.435	-7.732
33493.073	NaN	2.489	6.837	-5.261	1510.623	1499.634	1500.366	-0.031	0.031	1.679	0.383	5.435	-7.656
33494.049	NaN	2.489	6.826	-5.272	1510.623	1499.634	1500.366	0.137	-0.244	1.863	0.459	5.435	-7.579
33495.026	NaN	2.511	6.826	-5.261	1510.623	1500.366	1500.366	0.046	-0.198	2.076	0.459	5.435	-7.809
33496.002	NaN	2.500	6.837	-5.261	1509.890	1499.634	1500.366	-0.015	-0.061	2.015	0.459	5.512	-7.502
33496.979	NaN	2.500	6.837	-5.250	1510.623	1500.366	1500.366	-0.107	-0.168	2.015	0.230	5.435	-7.732
33497.955	NaN	2.500	6.826	-5.261	1509.890	1499.634	1501.099	-0.122	-0.183	1.969	0.383	5.282	-7.656
33498.932	NaN	2.500	6.848	-5.272	1511.355	1500.366	1500.366	-0.076	0.076	1.908	0.383	5.359	-7.732
33499.908	NaN	2.511	6.848	-5.272	1510.623	1499.634	1501.099	-0.137	0.168	1.939	0.383	5.435	-7.579
33500.885	NaN	2.511	6.848	-5.261	1510.623	1500.366	1500.366	-0.046	0.122	1.969	0.230	5.435	-7.656
33501.862	NaN	2.511	6.837	-5.261	1510.623	1500.366	1499.634	-0.076	-0.137	2.076	0.306	5.435	-7.809
33502.838	NaN	2.500	6.837	-5.283	1509.890	1499.634	1501.099	0.031	-0.275	1.924	0.306	5.359	-7.732
33503.815	NaN	2.511	6.837	-5.283	1510.623	1500.366	1500.366	0.076	-0.015	1.756	0.230	5.512	-7.732
33504.791	NaN	2.500	6.837	-5.283	1510.623	1498.901	1499.634	0.198	0.107	1.924	0.383	5.435	-7.732
33505.768	NaN	2.511	6.848	-5.261	1509.890	1499.634	1501.099	0.168	-0.046	2.046	0.306	5.435	-7.656
33506.744	NaN	2.489	6.837	-5.261	1509.890	1499.634	1499.634	0.229	-0.092	2.046	0.306	5.589	-7.656
33507.721	NaN	2.478	6.837	-5.261	1509.158	1498.901	1500.366	0.183	-0.015	2.168	0.383	5.359	-7.809
33508.698	NaN	2.489	6.848	-5.250	1510.623	1499.634	1501.099	-0.092	-0.092	2.122	0.383	5.359	-7.579
33509.674	NaN	2.489	6.837	-5.261	1509.890	1499.634	1500.366	-0.183	-0.031	2.031	0.383	5.359	-7.579
33510.651	NaN	2.489	6.837	-5.261	1508.425	1499.634	1500.366	0.092	0.015	1.939	0.383	5.435	-7.809
33511.627	NaN	2.500	6.837	-5.261	1508.425	1498.901	1498.901	0.153	-0.092	1.817	0.306	5.359	-7.656
33512.604	NaN	2.511	6.848	-5.261	1510.623	1501.099	1498.901	-0.076	-0.076	1.908	0.459	5.589	-7.732
33513.580	NaN	2.500	6.826	-5.272	1511.355	1499.634	1500.366	-0.122	-0.061	1.893	0.306	5.359	-7.502
33514.557	3736843359.444	2.511	6.837	-5.250	1509.890	1499.634	1501.832	0.046	0.046	1.863	0.383	5.512	-7.656
33515.533	NaN	2.511	6.826	-5.272	1509.890	1499.634	1501.099	-0.122	-0.061	2.031	0.459	5.435	-7.732
33516.510	NaN	2.500	6.837	-5.283	1510.623	1498.168	1498.901	-0.290	-0.275	2.015	0.383	5.512	-7.732
33517.487	NaN	2.511	6.837	-5.272	1509.890	1499.634	1501.099	-0.260	-0.198	2.061	0.383	5.359	-7.732
33518.463	NaN	2.511	6.848	-5.293	1510.623	1500.366	1499.634	0.046	-0.183	2.107	0.306	5.435	-7.579
33519.440	NaN	2.500	6.848	-5.283	1509.158	1498.168	1499.634	-0.046	0.015	1.924	0.306	5.359	-7.656
33520.416	NaN	2.500	6.848	-5.304	1510.623	1498.901	1499.634	-0.183	0.260	1.985	0.383	5.435	-7.732
33521.393	NaN	2.511	6.848	-5.304	1509.890	1498.901	1498.901	-0.183	0.244	1.893	0.383	5.435	-7.656
33522.369	NaN	2.522	6.848	-5.283	1509.890	1499.634	1499.634	0.000	-0.015	1.924	0.383	5.512	-7.656
33523.346	NaN	2.511	6.848	-5.283	1511.355	1499.634	1500.366	0.076	0.076	1.847	0.459	5.435	-7.656
33524.323	NaN	2.511	6.859	-5.272	1510.623	1499.634	1499.634	-0.015	-0.061	1.679	0.383	5.435	-7.656
33525.299	NaN	2.511	6.848	-5.293	1510.623	1500.366	1500.366	-0.031	-0.198	1.664	0.383	5.435	-7.732
33526.276	NaN	2.500	6.848	-5.293	1509.158	1498.901	1499.634	0.092	-0.229	1.939	0.306	5.435	-7.656
33527.252	NaN	2.500	6.859	-5.283	1509.890	1499.634	1501.832	0.107	0.031	2.168	0.459	5.589	-7.732
33528.229	NaN	2.500	6.870	-5.293	1510.623	1499.634	1501.832	-0.061	0.076	2.000	0.306	5.435	-7.732
33529.205	NaN	2.500	6.859	-5.315	1509.890	1498.901	1501.832	-0.092	-0.137	1.893	0.306	5.435	-7.732
33530.182	NaN	2.500	6.859	-5.315	1511.355	1499.634	1499.634	-0.046	0.000	1.725	0.383	5.512	-7.809
33531.158	NaN	2.500	6.848	-5.315	1510.623	1499.634	1501.832	-0.183	-0.061	1.740	0.383	5.435	-7.732
33532.135	NaN	2.500	6.848	-5.315	1509.890	1499.634	1501.099	-0.305	-0.076	1.817	0.459	5.435	-7.732
33533.112	NaN	2.511	6.848	-5.315	1510.623	1500.366	1499.634	0.015	0.000	1.863	0.383	5.589	-7.502
33534.088	NaN	2.500	6.837	-5.326	1509.890	1498.901	1500.366	0.061	-0.061	1.847	0.383	5.435	-7.732
33535.065	NaN	2.511	6.848	-5.315	1509.890	1500.366	1500.366	0.015	-0.107	1.924	0.306	5.435	-7.579
33536.041	NaN	2.511	6.859	-5.315	1511.355	1499.634	1499.634	0.061	0.092	1.985	0.230	5.589	-7.579
33537.018	NaN	2.500	6.859	-5.315	1509.890	1500.366	1500.366	-0.107	0.031	2.107	0.383	5.435	-7.732
33537.994	NaN	2.489	6.848	-5.304	1511.355	1500.366	1500.366	-0.275	-0.244	2.031	0.383	5.435	-7.579
33538.971	NaN	2.489	6.859	-5.315	1512.088	1499.634	1501.099	-0.351	-0.290	1.756	0.230	5.359	-7.579
33539.948	NaN	2.489	6.859	-5.304	1509.158	1500.366	1500.366	-0.137	-0.214	1.618	0.230	5.512	-7.732
33540.924	NaN	2.489	6.859	-5.304	1510.623	1499.634	1500.366	-0.107	0.031	1.603	0.383	5.589	-7.656
33541.901	NaN	2.489	6.859	-5.315	1510.623	1499.634	1500.366	-0.260	0.031	1.679	0.383	5.589	-7.656
33542.877	NaN	2.489	6.848	-5.304	1509.890	1499.634	1501.099	0.092	-0.031	1.786	0.459	5.359	-7.656
33543.854	NaN	2.500	6.848	-5.293	1512.088	1500.366	1500.366	0.275	0.015	1.954	0.383	5.512	-7.656
33544.830	NaN	2.511	6.848	-5.293	1510.623	1500.366	1500.366	0.214	-0.183	2.000	0.306	5.512	-7.656
33545.807	NaN	2.500	6.848	-5.304	1510.623	1499.634	1501.099	-0.107	-0.244	1.939	0.306	5.435	-7.579
33546.783	NaN	2.500	6.837	-5.304	1511.355	1500.366	1500.366	-0.183	-0.137	1.893	0.383	5.512	-7.732
33547.760	NaN	2.500	6.837	-5.304	1510.623	1500.366	1498.901	-0.076	0.061	2.000	0.536	5.435	-7.732
33548.737	NaN	2.500	6.837	-5.304	1510.623	1499.634	1500.366	0.015	0.046	1.939	0.383	5.512	-7.809
33549.713	NaN	2.500	6.848	-5.293	1510.623	1499.634	1500.366	0.107	-0.092	1.908	0.383	5.359	-7.579
33550.690	NaN	2.500	6.837	-5.283	1510.623	1499.634	1500.366	0.015	-0.107	1.695	0.306	5.359	-7.732
33551.666	NaN	2.500	6.848	-5.293	1509.158	1499.634	1500.366	-0.076	-0.122	1.634	0.536	5.359	-7.656
33552.643	NaN	2.500	6.859	-5.304	1509.890	1501.099	1500.366	-0.183	0.000	1.710	0.459	5.512	-7.809
33553.619	NaN	2.500	6.870	-5.304	1510.623	1501.099	1498.901	0.198	0.015	1.969	0.383	5.282	-7.656
33554.596	NaN	2.511	6.870	-5.304	1509.158	1500.366	1501.099	0.122	-0.107	1.954	0.459	5.282	-7.732
33555.573	NaN	2.522	6.870	-5.304	1512.088	1499.634	1500.366	-0.046	-0.260	1.817	0.459	5.435	-7.732
33556.549	NaN	2.511	6.859	-5.315	1510.623	1499.634	1499.634	-0.107	-0.305	1.817	0.383	5.512	-7.732
33557.526	NaN	2.533	6.848	-5.293	1511.355	1500.366	1499.634	-0.046	-0.183	1.756	0.383	5.435	-7.656
33558.502	NaN	2.533	6.848	-5.304	1509.890	1499.634	1501.099	-0.137	0.031	1.786	0.306	5.435	-7.885
33559.479	NaN	2.533	6.859	-5.315	1509.158	1499.634	1501.099	-0.229	-0.168	1.908	0.383	5.512	-7.579
33560.455	NaN	2.522	6.870	-5.315	1512.088	1499.634	1501.099	-0.153	-0.397	2.031	0.383	5.512	-7.732
33561.432	NaN	2.511	6.880	-5.315	1512.088	1501.099	1500.366	-0.015	-0.443	2.000	0.383	5.435	-7.732
33562.408	NaN	2.511	6.880	-5.293	1510.623	1500.366	1500.366	-0.214	-0.260	1.802	0.383	5.435	-7.732
33563.385	NaN	2.500	6.880	-5.293	1510.623	1499.634	1500.366	-0.244	-0.260	1.557	0.383	5.435	-7.732
33564.362	NaN	2.511	6.870	-5.304	1509.890	1500.366	1499.634	0.000	-0.382	1.725	0.383	5.435	-7.579
33565.338	NaN	2.500	6.859	-5.304	1509.890	1499.634	1500.366	0.076	-0.412	1.847	0.383	5.435	-7.809
33566.315	NaN	2.522	6.859	-5.293	1509.890	1500.366	1501.099	0.046	-0.153	2.031	0.383	5.435	-7.579
33567.291	NaN	2.511	6.859	-5.283	1509.890	1500.366	1500.366	-0.305	-0.229	2.000	0.383	5.435	-7.656
33568.268	NaN	2.511	6.859	-5.283	1510.623	1500.366	1499.634	-0.565	-0.183	1.863	0.459	5.512	-7.656
33569.244	NaN	2.500	6.859	-5.293	1510.623	1499.634	1500.366	-0.305	-0.260	1.939	0.383	5.435	-7.732
33570.221	NaN	2.511	6.859	-5.293	1509.890	1499.634	1501.099	-0.122	-0.198	1.954	0.230	5.435	-7.656
33571.198	NaN	2.500	6.859	-5.304	1509.158	1498.901	1501.099	-0.076	-0.031	1.893	0.383	5.435	-7.809
33572.174	NaN	2.522	6.870	-5.283	1509.890	1499.634	1500.366	-0.107	-0.076	1.740	0.383	5.435	-7.656
33573.151	NaN	2.511	6.848	-5.293	1510.623	1498.901	1500.366	0.015	-0.214	1.802	0.306	5.512	-7.809
33574.127	NaN	2.500	6.848	-5.304	1509.890	1498.168	1501.099	-0.137	-0.137	1.878	0.459	5.359	-7.732
33575.104	NaN	2.511	6.848	-5.304	1511.355	1500.366	1500.366	-0.107	-0.260	1.786	0.306	5.435	-7.656
33576.080	NaN	2.489	6.848	-5.315	1510.623	1498.901	1499.634	-0.031	-0.305	1.878	0.459	5.435	-7.656
33577.057	NaN	2.500	6.859	-5.293	1509.158	1499.634	1500.366	0.015	-0.260	1.893	0.383	5.435	-7.732
33578.033	NaN	2.500	6.848	-5.293	1510.623	1499.634	1500.366	-0.183	-0.214	1.649	0.383	5.512	-7.732
33579.010	NaN	2.500	6.848	-5.293	1509.158	1499.634	1499.634	-0.321	-0.107	1.573	0.306	5.435	-7.656
33579.987	NaN	2.522	6.848	-5.261	1511.355	1499.634	1501.099	-0.305	-0.153	1.710	0.536	5.359	-7.656
33580.963	NaN	2.511	6.848	-5.272	1510.623	1501.099	1499.634	-0.168	-0.229	1.969	0.383	5.512	-7.656
33581.940	NaN	2.500	6.837	-5.272	1511.355	1499.634	1500.366	-0.305	-0.244	1.893	0.306	5.512	-7.732
33582.916	NaN	2.500	6.837	-5.283	1509.890	1500.366	1498.901	-0.351	-0.168	1.695	0.306	5.359	-7.579
33583.893	NaN	2.500	6.837	-5.293	1510.623	1501.099	1499.634	-0.092	-0.046	1.634	0.306	5.512	-7.656
33584.869	NaN	2.500	6.826	-5.304	1510.623	1498.901	1498.901	-0.076	-0.137	1.527	0.383	5.435	-7.579
33585.846	NaN	2.511	6.826	-5.283	1509.890	1499.634	1501.099	-0.168	-0.198	1.802	0.383	5.359	-7.656
33586.823	NaN	2.511	6.826	-5.283	1510.623	1500.366	1499.634	-0.168	-0.061	1.908	0.306	5.359	-7.579
33587.799	NaN	2.511	6.826	-5.293	1509.158	1499.634	1499.634	-0.244	-0.321	1.908	0.306	5.359	-7.656
33588.776	NaN	2.522	6.837	-5.261	1509.158	1500.366	1499.634	-0.046	-0.229	1.817	0.306	5.512	-7.732
33589.752	NaN	2.511	6.826	-5.272	1510.623	1498.901	1500.366	0.000	-0.305	1.649	0.306	5.359	-7.656
33590.729	NaN	2.522	6.848	-5.261	1510.623	1499.634	1501.099	-0.137	-0.443	1.634	0.383	5.512	-7.732
33591.705	NaN	2.500	6.826	-5.283	1509.890	1499.634	1500.366	-0.107	-0.397	1.679	0.383	5.359	-7.732
33592.682	NaN	2.500	6.826	-5.293	1509.890	1498.168	1499.634	-0.046	-0.321	1.649	0.459	5.512	-7.732
33593.658	NaN	2.511	6.826	-5.272	1509.158	1498.901	1500.366	0.061	-0.107	1.893	0.383	5.435	-7.656
33594.635	NaN	2.500	6.815	-5.293	1509.890	1499.634	1500.366	-0.137	0.031	1.924	0.306	5.282	-7.579
33595.612	NaN	2.500	6.804	-5.293	1507.692	1499.634	1500.366	-0.015	-0.168	1.664	0.306	5.282	-7.579
33596.588	NaN	2.489	6.815	-5.293	1510.623	1500.366	1498.901	-0.092	-0.260	1.573	0.230	5.512	-7.732
33597.565	NaN	2.489	6.815	-5.283	1510.623	1500.366	1500.366	-0.290	-0.305	1.817	0.306	5.435	-7.732
33598.541	NaN	2.489	6.826	-5.283	1509.890	1499.634	1501.099	-0.290	-0.290	1.924	0.306	5.435	-7.656
33599.518	NaN	2.489	6.815	-5.283	1509.158	1500.366	1500.366	-0.031	-0.458	1.786	0.306	5.435	-7.885
33600.494	NaN	2.500	6.826	-5.283	1510.623	1500.366	1498.901	-0.137	-0.519	1.710	0.383	5.359	-7.732
33601.471	NaN	2.511	6.826	-5.293	1509.890	1501.099	1499.634	-0.214	-0.183	1.771	0.383	5.435	-7.732
33602.448	NaN	2.500	6.826	-5.283	1510.623	1499.634	1501.099	0.061	0.000	1.939	0.383	5.512	-7.579
33603.424	NaN	2.511	6.826	-5.272	1509.890	1499.634	1499.634	0.153	-0.214	1.863	0.230	5.512	-7.579
33604.401	NaN	2.511	6.826	-5.272	1509.890	1500.366	1500.366	0.000	-0.321	1.924	0.459	5.435	-7.656
33605.377	NaN	2.500	6.826	-5.283	1514.286	1498.901	1499.634	-0.244	-0.412	1.802	0.459	5.359	-7.809
33606.354	NaN	2.500	6.826	-5.261	1510.623	1500.366	1500.366	-0.214	-0.397	1.832	0.459	5.359	-7.579
33607.330	NaN	2.511	6.826	-5.272	1511.355	1499.634	1500.366	0.061	-0.290	1.863	0.383	5.435	-7.656
33608.307	NaN	2.500	6.826	-5.272	1509.158	1499.634	1501.099	-0.061	-0.305	1.740	0.383	5.512	-7.656
33609.283	NaN	2.500	6.826	-5.272	1510.623	1499.634	1500.366	-0.229	-0.321	1.863	0.383	5.359	-7.656
33610.260	NaN	2.478	6.837	-5.283	1511.355	1500.366	1498.901	-0.275	-0.290	1.725	0.383	5.512	-7.579
33611.237	NaN	2.489	6.826	-5.272	1510.623	1500.366	1501.832	-0.321	-0.351	1.695	0.306	5.359	-7.732
33612.213	NaN	2.489	6.826	-5.272	1509.890	1500.366	1499.634	-0.198	-0.214	1.847	0.306	5.435	-7.502
33613.190	NaN	2.500	6.826	-5.283	1510.623	1500.366	1500.366	0.153	-0.290	1.771	0.459	5.512	-7.732
33614.166	NaN	2.489	6.837	-5.272	1511.355	1498.901	1500.366	0.260	-0.351	1.771	0.306	5.435	-7.732
33615.143	NaN	2.500	6.837	-5.272	1511.355	1500.366	1500.366	0.031	-0.412	1.786	0.383	5.589	-7.656
33616.119	NaN	2.500	6.848	-5.272	1511.355	1499.634	1500.366	-0.153	-0.458	1.756	0.383	5.435	-7.656
33617.096	NaN	2.500	6.848	-5.261	1511.355	1500.366	1500.366	-0.534	-0.244	1.695	0.230	5.359	-7.579
33618.073	NaN	2.500	6.848	-5.272	1510.623	1500.366	1499.634	-0.458	-0.275	1.695	0.383	5.359	-7.732
33619.049	NaN	2.489	6.826	-5.283	1509.890	1500.366	1499.634	-0.214	-0.153	1.802	0.306	5.359	-7.656
33620.026	NaN	2.489	6.837	-5.272	1510.623	1499.634	1501.832	-0.153	-0.076	1.710	0.383	5.359	-7.656
33621.002	NaN	2.489	6.848	-5.283	1511.355	1499.634	1501.832	-0.275	-0.153	1.588	0.536	5.435	-7.656
33621.979	NaN	2.489	6.848	-5.283	1510.623	1500.366	1499.634	-0.061	-0.275	1.618	0.306	5.589	-7.656
33622.955	NaN	2.489	6.837	-5.293	1510.623	1499.634	1501.099	-0.107	-0.168	1.878	0.306	5.435	-7.732
33623.932	NaN	2.500	6.848	-5.293	1510.623	1501.099	1499.634	-0.214	-0.214	1.863	0.383	5.589	-7.579
33624.908	NaN	2.489	6.837	-5.293	1511.355	1501.099	1500.366	-0.336	-0.397	1.679	0.383	5.589	-7.502
33625.885	NaN	2.489	6.848	-5.293	1510.623	1499.634	1501.099	-0.107	-0.427	1.603	0.383	5.435	-7.732
33626.862	NaN	2.500	6.837	-5.293	1510.623	1500.366	1498.901	-0.015	-0.290	1.618	0.306	5.435	-7.809
33627.838	NaN	2.500	6.826	-5.304	1510.623	1500.366	1498.901	-0.305	-0.229	1.649	0.306	5.435	-7.732
33628.815	NaN	2.500	6.837	-5.293	1510.623	1501.099	1500.366	-0.412	-0.214	1.649	0.306	5.435	-7.732
33629.791	NaN	2.511	6.848	-5.304	1510.623	1499.634	1501.099	-0.290	-0.427	1.649	0.383	5.512	-7.732
33630.768	NaN	2.511	6.848	-5.293	1511.355	1499.634	1500.366	-0.046	-0.397	1.664	0.459	5.512	-7.732
33631.744	NaN	2.489	6.848	-5.293	1509.890	1500.366	1498.901	0.000	-0.214	1.649	0.459	5.435	-7.656
33632.721	NaN	2.489	6.848	-5.315	1509.890	1498.901	1501.099	0.076	-0.244	1.695	0.230	5.512	-7.579
33633.698	NaN	2.489	6.859	-5.293	1509.158	1499.634	1498.901	-0.061	-0.260	1.603	0.459	5.435	-7.656
33634.674	NaN	2.489	6.848	-5.304	1509.890	1499.634	1500.366	-0.458	-0.397	1.588	0.459	5.282	-7.656
33635.651	NaN	2.500	6.859	-5.283	1510.623	1498.901	1499.634	-0.427	-0.305	1.573	0.383	5.359	-7.732
33636.627	NaN	2.500	6.848	-5.293	1511.355	1498.901	1501.099	-0.244	-0.443	1.634	0.383	5.359	-7.656
33637.604	NaN	2.489	6.848	-5.293	1509.890	1500.366	1498.901	-0.198	-0.275	1.817	0.459	5.435	-7.656
33638.580	NaN	2.500	6.848	-5.293	1509.890	1500.366	1500.366	-0.229	-0.244	1.725	0.459	5.359	-7.885
33639.557	NaN	2.500	6.848	-5.293	1509.890	1499.634	1500.366	-0.214	-0.305	1.542	0.306	5.435	-7.656
33640.533	NaN	2.500	6.848	-5.293	1509.890	1498.901	1498.901	-0.321	-0.275	1.618	0.383	5.359	-7.579
33641.510	NaN	2.511	6.848	-5.283	1511.355	1499.634	1500.366	-0.229	-0.122	1.618	0.383	5.435	-7.809
33642.487	NaN	2.500	6.848	-5.293	1509.158	1498.901	1500.366	-0.137	-0.290	1.603	0.383	5.589	-7.579
33643.463	NaN	2.511	6.870	-5.283	1509.890	1500.366	1499.634	-0.229	-0.321	1.481	0.459	5.359	-7.809
33644.440	NaN	2.511	6.859	-5.283	1509.890	1499.634	1500.366	-0.137	-0.229	1.542	0.306	5.512	-7.656
33645.416	NaN	2.511	6.870	-5.283	1509.158	1499.634	1499.634	-0.305	-0.244	1.679	0.230	5.435	-7.809
33646.393	NaN	2.511	6.870	-5.283	1509.890	1499.634	1501.099	-0.427	-0.397	1.573	0.383	5.589	-7.579
33647.369	NaN	2.489	6.859	-5.293	1509.890	1498.901	1498.901	-0.427	-0.489	1.481	0.459	5.359	-7.656
33648.346	NaN	2.500	6.859	-5.293	1509.890	1498.901	1500.366	-0.305	-0.427	1.573	0.383	5.589	-7.579
33649.323	NaN	2.500	6.859	-5.283	1510.623	1498.901	1501.099	-0.275	-0.275	1.863	0.306	5.282	-7.579
33650.299	NaN	2.489	6.848	-5.293	1509.158	1498.901	1499.634	-0.290	-0.122	1.695	0.383	5.359	-7.656
33651.276	NaN	2.500	6.859	-5.272	1510.623	1500.366	1499.634	-0.443	-0.168	1.679	0.306	5.435	-7.656
33652.252	NaN	2.500	6.848	-5.283	1509.890	1499.634	1499.634	-0.443	-0.366	1.573	0.383	5.435	-7.656
33653.229	NaN	2.500	6.848	-5.272	1509.158	1498.901	1498.901	-0.336	-0.382	1.420	0.383	5.435	-7.656
33654.205	NaN	2.500	6.837	-5.293	1510.623	1498.901	1500.366	-0.382	-0.473	1.511	0.459	5.512	-7.656
33655.182	NaN	2.511	6.859	-5.304	1510.623	1501.099	1499.634	-0.366	-0.489	1.542	0.383	5.512	-7.732
33656.158	NaN	2.511	6.826	-5.304	1509.158	1499.634	1501.099	-0.458	-0.397	1.725	0.306	5.512	-7.732
33657.135	NaN	2.511	6.848	-5.304	1510.623	1499.634	1500.366	-0.443	-0.183	1.725	0.306	5.359	-7.579
33658.112	NaN	2.522	6.848	-5.315	1509.890	1499.634	1500.366	-0.290	-0.229	1.634	0.306	5.435	-7.656
33659.088	NaN	2.511	6.848	-5.326	1511.355	1499.634	1500.366	-0.321	-0.427	1.603	0.383	5.435	-7.656
33660.065	NaN	2.511	6.848	-5.326	1510.623	1500.366	1501.832	-0.382	-0.366	1.527	0.306	5.359	-7.656
33661.041	NaN	2.511	6.848	-5.326	1509.890	1500.366	1499.634	-0.336	-0.305	1.511	0.306	5.435	-7.656
33662.018	NaN	2.500	6.837	-5.315	1509.890	1500.366	1499.634	-0.290	-0.229	1.481	0.383	5.435	-7.656
33662.994	NaN	2.500	6.837	-5.304	1510.623	1500.366	1499.634	-0.198	-0.214	1.481	0.306	5.512	-7.732
33663.971	NaN	2.500	6.837	-5.315	1511.355	1499.634	1502.564	0.000	-0.412	1.634	0.230	5.359	-7.732
33664.948	NaN	2.511	6.848	-5.315	1510.623	1499.634	1501.099	-0.275	-0.458	1.832	0.306	5.435	-7.579
33665.924	NaN	2.511	6.848	-5.326	1510.623	1499.634	1501.099	-0.137	-0.473	1.725	0.306	5.512	-7.732
33666.901	NaN	2.511	6.848	-5.326	1510.623	1499.634	1500.366	-0.458	-0.580	1.527	0.383	5.435	-7.579
33667.877	NaN	2.489	6.837	-5.326	1509.158	1500.366	1498.901	-0.656	-0.473	1.725	0.383	5.512	-7.732
33668.854	NaN	2.500	6.837	-5.315	1509.890	1500.366	1500.366	-0.458	-0.534	1.740	0.306	5.512	-7.656
33669.830	NaN	2.500	6.837	-5.304	1510.623	1500.366	1499.634	-0.168	-0.366	1.695	0.383	5.512	-7.656
33670.807	NaN	2.511	6.848	-5.315	1509.158	1500.366	1500.366	-0.015	-0.275	1.771	0.383	5.512	-7.732
33671.783	NaN	2.500	6.848	-5.326	1509.890	1499.634	1500.366	-0.260	-0.366	1.740	0.383	5.435	-7.656
33672.760	NaN	2.489	6.859	-5.315	1510.623	1499.634	1500.366	-0.153	-0.504	1.573	0.459	5.435	-7.732
33673.737	NaN	2.489	6.859	-5.304	1510.623	1500.366	1499.634	-0.183	-0.611	1.542	0.459	5.435	-7.732
33674.713	NaN	2.489	6.848	-5.293	1511.355	1499.634	1500.366	-0.198	-0.366	1.817	0.306	5.512	-7.732
33675.690	NaN	2.489	6.837	-5.293	1509.158	1498.901	1501.099	-0.198	-0.305	1.679	0.383	5.359	-7.732
33676.666	NaN	2.489	6.837	-5.293	1510.623	1499.634	1500.366	-0.351	-0.290	1.374	0.383	5.435	-7.732
33677.643	NaN	2.500	6.837	-5.304	1511.355	1499.634	1500.366	-0.382	-0.275	1.450	0.459	5.435	-7.732
33678.619	NaN	2.511	6.837	-5.293	1510.623	1500.366	1499.634	-0.458	-0.290	1.496	0.383	5.359	-7.579
33679.596	NaN	2.511	6.837	-5.304	1510.623	1499.634	1500.366	-0.290	-0.290	1.511	0.306	5.512	-7.732
33680.573	NaN	2.500	6.837	-5.304	1510.623	1499.634	1500.366	-0.153	-0.489	1.496	0.459	5.435	-7.656
33681.549	NaN	2.500	6.837	-5.304	1511.355	1499.634	1501.099	-0.290	-0.550	1.557	0.306	5.512	-7.579
33682.526	NaN	2.511	6.837	-5.293	1510.623	1500.366	1499.634	-0.443	-0.504	1.557	0.459	5.435	-7.732
33683.502	NaN	2.500	6.837	-5.304	1510.623	1499.634	1501.832	-0.412	-0.260	1.450	0.230	5.435	-7.579
33684.479	NaN	2.489	6.837	-5.293	1509.158	1500.366	1498.901	-0.809	-0.519	1.420	0.459	5.359	-7.732
33685.455	NaN	2.489	6.837	-5.293	1511.355	1498.901	1501.832	-0.595	-0.534	1.496	0.383	5.435	-7.656
33686.432	NaN	2.500	6.837	-5.304	1511.355	1501.099	1499.634	-0.137	-0.489	1.573	0.383	5.435	-7.656
33687.408	NaN	2.511	6.837	-5.293	1510.623	1501.099	1500.366	-0.015	-0.443	1.618	0.536	5.359	-7.732
33688.385	NaN	2.511	6.837	-5.293	1510.623	1501.099	1498.901	-0.366	-0.336	1.588	0.459	5.359	-7.656
33689.362	3736843359.608	2.511	6.826	-5.293	1511.355	1499.634	1500.366	-0.458	-0.382	1.481	0.383	5.359	-7.809
33690.338	NaN	2.511	6.826	-5.293	1511.355	1500.366	1498.901	-0.504	-0.580	1.603	0.459	5.512	-7.579
33691.315	NaN	2.511	6.837	-5.283	1510.623	1500.366	1501.099	-0.198	-0.504	1.603	0.306	5.435	-7.732
33692.291	NaN	2.511	6.837	-5.283	1509.890	1499.634	1501.099	-0.015	-0.443	1.511	0.306	5.359	-7.579
33693.268	NaN	2.511	6.826	-5.283	1510.623	1499.634	1500.366	-0.107	-0.427	1.389	0.306	5.589	-7.732
33694.244	NaN	2.500	6.826	-5.272	1510.623	1500.366	1499.634	-0.107	-0.397	1.389	0.459	5.435	-7.809
33695.221	NaN	2.489	6.826	-5.283	1510.623	1500.366	1500.366	-0.168	-0.397	1.405	0.306	5.435	-7.809
33696.198	NaN	2.489	6.826	-5.283	1509.890	1499.634	1500.366	-0.397	-0.504	1.450	0.230	5.359	-7.656
33697.174	NaN	2.500	6.837	-5.272	1509.158	1498.901	1498.168	-0.565	-0.565	1.740	0.459	5.359	-7.656
33698.151	NaN	2.511	6.837	-5.283	1509.890	1499.634	1501.099	-0.611	-0.534	1.664	0.383	5.359	-7.656
33699.127	NaN	2.522	6.826	-5.283	1510.623	1498.168	1500.366	-0.244	-0.473	1.420	0.230	5.435	-7.579
33700.104	NaN	2.511	6.848	-5.272	1512.821	1500.366	1500.366	-0.305	-0.504	1.405	0.383	5.512	-7.656
33701.080	NaN	2.500	6.826	-5.283	1509.158	1499.634	1501.099	-0.366	-0.550	1.450	0.383	5.435	-7.579
33702.057	NaN	2.511	6.837	-5.272	1509.158	1499.634	1501.099	-0.473	-0.504	1.511	0.383	5.435	-7.732
33703.033	NaN	2.500	6.837	-5.283	1510.623	1499.634	1500.366	-0.611	-0.412	1.527	0.383	5.435	-7.579
33704.010	NaN	2.489	6.837	-5.293	1509.890	1499.634	1499.634	-0.366	-0.519	1.466	0.306	5.435	-7.732
33704.987	NaN	2.489	6.837	-5.272	1510.623	1499.634	1501.099	-0.260	-0.534	1.481	0.306	5.359	-7.579
33705.963	NaN	2.478	6.837	-5.261	1510.623	1499.634	1500.366	-0.214	-0.427	1.481	0.306	5.435	-7.732
33706.940	NaN	2.489	6.848	-5.272	1510.623	1498.901	1500.366	-0.321	-0.534	1.496	0.383	5.435	-7.502
33707.916	NaN	2.489	6.848	-5.283	1510.623	1499.634	1501.832	-0.412	-0.519	1.466	0.383	5.359	-7.732
33708.893	NaN	2.489	6.848	-5.283	1509.158	1499.634	1500.366	-0.458	-0.504	1.527	0.383	5.359	-7.732
33709.869	NaN	2.511	6.859	-5.272	1509.890	1499.634	1500.366	-0.595	-0.550	1.542	0.383	5.359	-7.656
33710.846	NaN	2.511	6.859	-5.272	1510.623	1499.634	1500.366	-0.550	-0.382	1.786	0.383	5.359	-7.732
33711.823	NaN	2.511	6.848	-5.272	1510.623	1498.168	1500.366	-0.595	-0.366	1.649	0.536	5.512	-7.656
33712.799	NaN	2.511	6.859	-5.272	1509.158	1500.366	1500.366	-0.550	-0.565	1.359	0.383	5.359	-7.656
33713.776	NaN	2.522	6.848	-5.272	1509.158	1499.634	1498.901	-0.580	-0.595	1.191	0.383	5.435	-7.656
33714.752	NaN	2.533	6.859	-5.250	1509.890	1498.901	1498.901	-0.427	-0.550	1.359	0.383	5.359	-7.656
33715.729	NaN	2.522	6.848	-5.272	1510.623	1499.634	1501.099	-0.336	-0.626	1.450	0.383	5.282	-7.732
33716.705	NaN	2.522	6.848	-5.261	1510.623	1498.901	1499.634	-0.382	-0.565	1.542	0.459	5.435	-7.579
33717.682	NaN	2.511	6.848	-5.283	1510.623	1499.634	1500.366	-0.351	-0.580	1.634	0.383	5.512	-7.579
33718.658	NaN	2.489	6.848	-5.283	1509.890	1498.901	1499.634	-0.168	-0.672	1.405	0.383	5.359	-7.656
33719.635	NaN	2.500	6.859	-5.261	1509.890	1498.901	1499.634	-0.260	-0.641	1.237	0.459	5.512	-7.656
33720.612	NaN	2.489	6.848	-5.272	1509.890	1499.634	1500.366	-0.397	-0.458	1.191	0.459	5.512	-7.809
33721.588	NaN	2.478	6.848	-5.283	1509.890	1498.901	1499.634	-0.687	-0.351	1.313	0.459	5.359	-7.732
33722.565	NaN	2.489	6.848	-5.272	1511.355	1500.366	1499.634	-0.595	-0.519	1.374	0.153	5.435	-7.656
33723.541	NaN	2.489	6.837	-5.272	1509.890	1499.634	1501.099	-0.397	-0.580	1.145	0.306	5.435	-7.656
33724.518	NaN	2.500	6.837	-5.272	1509.158	1500.366	1499.634	-0.214	-0.733	1.359	0.306	5.435	-7.656
33725.494	NaN	2.489	6.837	-5.283	1508.425	1501.099	1498.901	-0.473	-0.534	1.527	0.230	5.435	-7.656
33726.471	NaN	2.478	6.848	-5.293	1511.355	1500.366	1500.366	-0.534	-0.214	1.496	0.230	5.282	-7.579
33727.448	NaN	2.489	6.848	-5.283	1510.623	1500.366	1501.099	-0.550	-0.321	1.298	0.230	5.512	-7.656
33728.424	NaN	2.489	6.859	-5.272	1511.355	1500.366	1500.366	-0.611	-0.550	1.145	0.306	5.512	-7.656
33729.401	NaN	2.489	6.848	-5.283	1509.890	1500.366	1501.099	-0.489	-0.702	1.176	0.459	5.512	-7.656
33730.377	NaN	2.500	6.837	-5.283	1510.623	1498.901	1498.901	-0.275	-0.672	1.328	0.306	5.359	-7.656
33731.354	NaN	2.500	6.837	-5.283	1511.355	1500.366	1500.366	-0.229	-0.595	1.313	0.536	5.512	-7.656
33732.330	NaN	2.511	6.837	-5.283	1510.623	1501.099	1499.634	-0.443	-0.687	1.359	0.459	5.435	-7.579
33733.307	NaN	2.500	6.848	-5.283	1510.623	1499.634	1500.366	-0.489	-0.702	1.359	0.306	5.435	-7.579
33734.283	NaN	2.500	6.848	-5.283	1509.890	1500.366	1499.634	-0.427	-0.519	1.496	0.383	5.512	-7.656
33735.260	NaN	2.489	6.848	-5.293	1511.355	1500.366	1498.901	-0.504	-0.458	1.511	0.383	5.359	-7.732
33736.237	NaN	2.489	6.848	-5.272	1511.355	1499.634	1501.099	-0.519	-0.626	1.588	0.306	5.435	-7.732
33737.213	NaN	2.500	6.837	-5.283	1511.355	1499.634	1500.366	-0.626	-0.687	1.435	0.306	5.435	-7.732
33738.190	NaN	2.511	6.859	-5.283	1509.890	1501.099	1500.366	-0.565	-0.718	1.435	0.459	5.435	-7.579
33739.166	NaN	2.511	6.848	-5.283	1510.623	1499.634	1500.366	-0.504	-0.641	1.634	0.459	5.435	-7.656
33740.143	NaN	2.522	6.859	-5.283	1509.890	1500.366	1498.901	-0.611	-0.672	1.588	0.306	5.512	-7.579
33741.119	NaN	2.522	6.859	-5.272	1510.623	1499.634	1501.832	-0.550	-0.580	1.588	0.459	5.359	-7.732
33742.096	NaN	2.511	6.859	-5.272	1510.623	1499.634	1500.366	-0.534	-0.504	1.634	0.383	5.435	-7.809
33743.073	NaN	2.511	6.859	-5.283	1510.623	1500.366	1500.366	-0.412	-0.595	1.420	0.383	5.359	-7.732
33744.049	NaN	2.500	6.859	-5.304	1509.890	1499.634	1500.366	-0.489	-0.733	1.069	0.306	5.282	-7.732
33745.026	NaN	2.500	6.870	-5.304	1509.890	1499.634	1500.366	-0.702	-0.656	1.084	0.383	5.435	-7.656
33746.002	NaN	2.500	6.859	-5.293	1510.623	1500.366	1500.366	-0.458	-0.595	1.298	0.536	5.512	-7.732
33746.979	NaN	2.500	6.848	-5.304	1509.890	1499.634	1501.099	-0.366	-0.626	1.344	0.459	5.512	-7.579
33747.955	NaN	2.500	6.848	-5.293	1509.158	1499.634	1498.901	-0.595	-0.626	1.267	0.306	5.359	-7.809
33748.932	NaN	2.511	6.837	-5.304	1511.355	1500.366	1499.634	-0.443	-0.656	1.252	0.459	5.359	-7.656
33749.908	NaN	2.511	6.837	-5.304	1510.623	1499.634	1501.832	-0.504	-0.702	1.466	0.383	5.512	-7.656
33750.885	NaN	2.500	6.837	-5.304	1510.623	1499.634	1500.366	-0.840	-0.748	1.435	0.459	5.435	-7.656
33751.862	NaN	2.500	6.848	-5.315	1509.158	1499.634	1501.099	-0.763	-0.794	1.313	0.230	5.435	-7.579
33752.838	NaN	2.500	6.837	-5.326	1509.890	1500.366	1498.901	-0.702	-0.718	1.221	0.306	5.435	-7.579
33753.815	NaN	2.500	6.837	-5.315	1510.623	1499.634	1501.832	-0.672	-0.733	1.053	0.383	5.359	-7.656
33754.791	NaN	2.511	6.837	-5.304	1509.890	1499.634	1501.099	-0.565	-0.611	1.267	0.383	5.512	-7.579
33755.768	NaN	2.522	6.837	-5.304	1510.623	1500.366	1501.099	-0.641	-0.641	1.466	0.459	5.512	-7.656
33756.744	NaN	2.522	6.837	-5.293	1509.890	1500.366	1498.901	-0.733	-0.702	1.481	0.383	5.359	-7.656
33757.721	NaN	2.511	6.837	-5.293	1510.623	1500.366	1500.366	-0.733	-0.626	1.298	0.459	5.435	-7.579
33758.698	NaN	2.522	6.848	-5.283	1510.623	1499.634	1501.099	-0.656	-0.641	0.992	0.306	5.435	-7.809
33759.674	NaN	2.511	6.859	-5.304	1509.890	1500.366	1498.901	-0.702	-0.718	1.115	0.383	5.512	-7.579
33760.651	NaN	2.522	6.859	-5.283	1510.623	1499.634	1501.099	-0.626	-0.794	1.328	0.306	5.282	-7.656
33761.627	NaN	2.500	6.848	-5.304	1509.890	1499.634	1501.099	-0.397	-0.718	1.389	0.383	5.359	-7.809
33762.604	NaN	2.500	6.848	-5.315	1509.158	1499.634	1499.634	-0.336	-0.595	1.435	0.459	5.435	-7.732
33763.580	NaN	2.511	6.859	-5.304	1509.890	1498.901	1501.099	-0.397	-0.672	1.359	0.383	5.435	-7.732
33764.557	NaN	2.500	6.848	-5.326	1510.623	1499.634	1501.832	-0.626	-0.718	1.328	0.383	5.435	-7.579
33765.533	NaN	2.500	6.848	-5.326	1509.158	1498.901	1498.901	-0.962	-0.656	1.344	0.383	5.512	-7.732
33766.510	NaN	2.522	6.848	-5.337	1510.623	1499.634	1500.366	-0.885	-0.672	1.374	0.306	5.435	-7.732
33767.487	NaN	2.511	6.859	-5.337	1509.158	1498.901	1500.366	-0.626	-0.733	1.328	0.230	5.435	-7.732
33768.463	NaN	2.522	6.859	-5.326	1510.623	1499.634	1500.366	-0.580	-0.779	1.099	0.383	5.435	-7.579
33769.440	NaN	2.522	6.859	-5.326	1510.623	1500.366	1498.901	-0.718	-0.641	1.084	0.536	5.512	-7.809
33770.416	NaN	2.511	6.848	-5.326	1509.158	1499.634	1499.634	-0.626	-0.641	1.221	0.306	5.589	-7.809
33771.393	NaN	2.522	6.848	-5.326	1510.623	1500.366	1499.634	-0.611	-0.901	1.511	0.536	5.435	-7.732
33772.369	NaN	2.522	6.837	-5.326	1509.890	1499.634	1499.634	-0.733	-1.023	1.618	0.383	5.435	-7.579
33773.346	NaN	2.511	6.837	-5.315	1510.623	1498.901	1500.366	-0.672	-0.916	1.466	0.383	5.512	-7.732
33774.323	NaN	2.511	6.837	-5.304	1510.623	1499.634	1500.366	-0.687	-0.794	1.344	0.383	5.435	-7.656
33775.299	NaN	2.500	6.837	-5.304	1510.623	1500.366	1499.634	-0.748	-0.672	1.237	0.383	5.435	-7.885
33776.276	NaN	2.511	6.837	-5.304	1509.890	1500.366	1501.099	-0.519	-0.641	1.191	0.306	5.512	-7.656
33777.252	NaN	2.489	6.837	-5.315	1509.158	1499.634	1499.634	-0.580	-0.794	1.389	0.383	5.589	-7.732
33778.229	NaN	2.511	6.837	-5.304	1509.890	1500.366	1500.366	-0.672	-0.855	1.496	0.383	5.435	-7.809
33779.205	NaN	2.500	6.837	-5.315	1510.623	1499.634	1499.634	-0.336	-0.763	1.527	0.459	5.359	-7.579
33780.182	NaN	2.511	6.837	-5.315	1509.158	1499.634	1500.366	-0.382	-0.702	1.450	0.383	5.435	-7.732
33781.158	NaN	2.522	6.859	-5.304	1509.890	1499.634	1500.366	-0.489	-0.580	1.313	0.383	5.435	-7.732
33782.135	NaN	2.522	6.859	-5.304	1510.623	1500.366	1498.901	-0.519	-0.733	1.221	0.383	5.512	-7.579
33783.112	NaN	2.522	6.848	-5.304	1509.158	1498.901	1500.366	-0.473	-0.870	1.160	0.306	5.435	-7.809
33784.088	NaN	2.522	6.859	-5.315	1509.890	1499.634	1501.099	-0.534	-0.855	1.252	0.383	5.435	-7.579
33785.065	NaN	2.522	6.859	-5.293	1510.623	1501.099	1500.366	-0.702	-0.962	1.450	0.459	5.589	-7.579
33786.041	NaN	2.522	6.859	-5.293	1509.890	1500.366	1501.099	-0.580	-0.931	1.573	0.383	5.435	-7.732
33787.018	NaN	2.511	6.848	-5.304	1511.355	1499.634	1501.099	-0.580	-0.901	1.511	0.230	5.359	-7.579
33787.994	NaN	2.511	6.837	-5.293	1510.623	1500.366	1500.366	-0.718	-0.718	1.206	0.459	5.359	-7.656
33788.971	NaN	2.511	6.837	-5.304	1509.890	1498.168	1498.168	-0.748	-0.626	1.267	0.306	5.435	-7.656
33789.948	NaN	2.522	6.837	-5.283	1509.158	1500.366	1498.901	-0.489	-0.748	1.267	0.306	5.512	-7.732
33790.924	NaN	2.522	6.837	-5.283	1510.623	1499.634	1499.634	-0.473	-0.809	1.206	0.459	5.512	-7.732
33791.901	NaN	2.511	6.837	-5.283	1509.890	1501.099	1498.901	-0.733	-0.824	1.252	0.459	5.359	-7.656
33792.877	NaN	2.500	6.837	-5.283	1509.890	1499.634	1499.634	-0.779	-0.702	1.359	0.383	5.359	-7.656
33793.854	NaN	2.500	6.837	-5.272	1510.623	1501.099	1500.366	-0.702	-0.733	1.435	0.306	5.512	-7.656
33794.830	NaN	2.500	6.837	-5.283	1509.890	1500.366	1498.901	-0.626	-0.870	1.389	0.230	5.435	-7.579
33795.807	NaN	2.500	6.848	-5.293	1510.623	1500.366	1500.366	-0.611	-0.809	1.252	0.383	5.512	-7.732
33796.783	NaN	2.500	6.848	-5.283	1509.890	1500.366	1498.901	-0.626	-0.763	1.313	0.383	5.359	-7.656
33797.760	NaN	2.489	6.837	-5.293	1510.623	1500.366	1500.366	-0.656	-0.901	1.405	0.383	5.435	-7.579
33798.737	NaN	2.500	6.837	-5.272	1511.355	1500.366	1500.366	-0.702	-0.809	1.313	0.306	5.512	-7.656
33799.713	NaN	2.511	6.826	-5.272	1510.623	1499.634	1501.832	-0.672	-0.748	1.313	0.459	5.435	-7.579
33800.690	NaN	2.511	6.837	-5.261	1509.890	1500.366	1500.366	-0.702	-0.763	1.221	0.306	5.435	-7.732
33801.666	NaN	2.511	6.837	-5.261	1510.623	1498.901	1501.099	-0.733	-0.840	1.359	0.383	5.282	-7.732
33802.643	NaN	2.511	6.837	-5.261	1511.355	1501.099	1501.099	-0.702	-0.763	1.359	0.383	5.435	-7.656
33803.619	NaN	2.511	6.837	-5.261	1511.355	1500.366	1501.099	-0.580	-0.748	1.267	0.459	5.435	-7.579
33804.596	NaN	2.511	6.848	-5.283	1511.355	1499.634	1500.366	-0.534	-0.794	1.359	0.306	5.435	-7.656
33805.573	NaN	2.500	6.837	-5.283	1510.623	1499.634	1501.099	-0.534	-0.840	1.252	0.383	5.435	-7.656
33806.549	NaN	2.489	6.837	-5.293	1510.623	1500.366	1499.634	-0.733	-0.824	1.328	0.536	5.359	-7.809
33807.526	NaN	2.500	6.837	-5.304	1510.623	1501.099	1498.901	-0.855	-0.794	1.527	0.383	5.282	-7.579
33808.502	NaN	2.500	6.837	-5.293	1510.623	1499.634	1499.634	-0.611	-0.794	1.450	0.459	5.435	-7.579
33809.479	NaN	2.500	6.826	-5.293	1510.623	1499.634	1500.366	-0.412	-0.794	1.359	0.383	5.512	-7.579
33810.455	NaN	2.500	6.837	-5.304	1510.623	1500.366	1498.901	-0.519	-0.977	1.237	0.230	5.359	-7.656
33811.432	NaN	2.500	6.826	-5.304	1511.355	1499.634	1499.634	-0.809	-1.053	1.252	0.306	5.435	-7.732
33812.408	NaN	2.500	6.837	-5.304	1510.623	1499.634	1501.099	-0.779	-0.916	1.206	0.459	5.435	-7.656
33813.385	NaN	2.500	6.826	-5.293	1510.623	1499.634	1501.099	-0.611	-0.779	1.221	0.459	5.435	-7.656
33814.362	NaN	2.511	6.837	-5.293	1509.890	1500.366	1499.634	-0.779	-0.794	1.359	0.459	5.359	-7.579
33815.338	NaN	2.511	6.826	-5.293	1509.158	1499.634	1499.634	-0.916	-0.870	1.374	0.459	5.359	-7.732
33816.315	NaN	2.522	6.837	-5.283	1511.355	1500.366	1501.099	-0.840	-0.718	1.160	0.383	5.589	-7.656
33817.291	NaN	2.511	6.848	-5.283	1511.355	1499.634	1501.099	-0.748	-0.687	0.977	0.306	5.435	-7.656
33818.268	NaN	2.511	6.848	-5.272	1510.623	1500.366	1500.366	-0.718	-0.687	1.130	0.383	5.512	-7.579
33819.244	NaN	2.500	6.837	-5.261	1509.158	1499.634	1500.366	-0.779	-0.763	1.191	0.383	5.435	-7.732
33820.221	NaN	2.489	6.848	-5.261	1512.088	1499.634	1500.366	-1.084	-1.023	1.267	0.383	5.512	-7.732
33821.198	NaN	2.500	6.848	-5.250	1511.355	1500.366	1500.366	-0.916	-1.176	1.115	0.383	5.359	-7.656
33822.174	NaN	2.500	6.848	-5.239	1511.355	1499.634	1500.366	-0.824	-1.053	1.176	0.459	5.282	-7.656
33823.151	NaN	2.500	6.837	-5.239	1509.890	1499.634	1499.634	-0.687	-0.977	1.191	0.306	5.435	-7.732
33824.127	NaN	2.500	6.826	-5.250	1509.158	1498.901	1500.366	-0.611	-0.992	1.328	0.230	5.359	-7.732
33825.104	NaN	2.511	6.837	-5.250	1509.890	1500.366	1499.634	-0.702	-1.084	1.115	0.383	5.359	-7.579
33826.080	NaN	2.500	6.826	-5.272	1510.623	1499.634	1499.634	-0.489	-1.084	1.130	0.383	5.359	-7.656
33827.057	NaN	2.500	6.826	-5.250	1508.425	1498.901	1500.366	-0.489	-1.191	1.038	0.459	5.282	-7.579
33828.033	NaN	2.500	6.837	-5.261	1510.623	1499.634	1500.366	-0.748	-1.069	1.069	0.383	5.359	-7.809
33829.010	NaN	2.511	6.837	-5.283	1510.623	1498.901	1498.168	-1.008	-0.901	1.191	0.383	5.512	-7.656
33829.987	NaN	2.511	6.826	-5.261	1510.623	1499.634	1501.099	-0.824	-0.794	1.252	0.306	5.589	-7.809
33830.963	NaN	2.500	6.826	-5.272	1510.623	1500.366	1501.099	-0.733	-1.008	1.298	0.459	5.435	-7.656
33831.940	NaN	2.500	6.837	-5.283	1509.890	1499.634	1499.634	-0.458	-1.053	1.160	0.383	5.359	-7.809
33832.916	NaN	2.500	6.826	-5.293	1509.890	1499.634	1500.366	-0.504	-1.069	0.977	0.306	5.435	-7.732
33833.893	NaN	2.500	6.826	-5.304	1509.158	1500.366	1499.634	-0.779	-1.084	1.115	0.459	5.435	-7.502
33834.869	NaN	2.511	6.837	-5.293	1509.890	1500.366	1501.099	-0.733	-0.901	1.237	0.536	5.435	-7.732
33835.846	NaN	2.500	6.848	-5.304	1509.890	1500.366	1498.901	-0.763	-0.962	1.115	0.383	5.435	-7.732
33836.823	NaN	2.500	6.848	-5.293	1509.890	1498.901	1501.099	-0.885	-0.977	1.069	0.459	5.589	-7.732
33837.799	NaN	2.489	6.848	-5.315	1510.623	1498.901	1501.099	-0.992	-0.992	1.145	0.383	5.359	-7.579
33838.776	NaN	2.489	6.848	-5.326	1509.890	1499.634	1500.366	-0.855	-1.160	1.176	0.459	5.589	-7.579
33839.752	NaN	2.511	6.859	-5.304	1510.623	1499.634	1499.634	-0.733	-1.130	1.206	0.383	5.435	-7.656
33840.729	NaN	2.522	6.859	-5.293	1509.890	1499.634	1498.901	-0.794	-0.962	1.237	0.383	5.282	-7.732
33841.705	NaN	2.522	6.848	-5.304	1509.158	1498.168	1498.168	-0.855	-0.992	1.221	0.383	5.282	-7.656
33842.682	NaN	2.522	6.848	-5.293	1510.623	1500.366	1499.634	-0.641	-1.099	1.053	0.383	5.359	-7.732
33843.658	NaN	2.511	6.848	-5.304	1510.623	1499.634	1501.099	-0.779	-1.160	0.977	0.459	5.512	-7.732
33844.635	NaN	2.522	6.859	-5.304	1510.623	1499.634	1501.832	-1.160	-1.023	1.053	0.230	5.512	-7.579
33845.612	NaN	2.522	6.848	-5.304	1510.623	1500.366	1498.901	-1.130	-1.023	1.130	0.383	5.435	-7.732
33846.588	NaN	2.522	6.837	-5.315	1509.890	1498.901	1499.634	-0.809	-1.069	1.069	0.459	5.435	-7.885
33847.565	NaN	2.522	6.848	-5.315	1511.355	1500.366	1500.366	-0.794	-1.176	1.145	0.306	5.282	-7.732
33848.541	NaN	2.511	6.837	-5.315	1511.355	1499.634	1500.366	-0.824	-0.916	1.221	0.383	5.512	-7.732
33849.518	NaN	2.511	6.848	-5.315	1511.355	1499.634	1499.634	-0.763	-0.809	1.206	0.459	5.512	-7.732
33850.494	NaN	2.511	6.837	-5.304	1509.890	1499.634	1500.366	-0.626	-0.916	1.191	0.459	5.512	-7.732
33851.471	NaN	2.500	6.848	-5.304	1510.623	1500.366	1501.099	-0.779	-0.931	1.130	0.459	5.512	-7.579
33852.448	NaN	2.500	6.837	-5.293	1510.623	1500.366	1501.099	-0.870	-1.008	1.160	0.459	5.435	-7.885
33853.424	NaN	2.500	6.848	-5.293	1510.623	1500.366	1501.099	-0.962	-0.962	1.191	0.459	5.359	-7.656
33854.401	NaN	2.500	6.848	-5.293	1510.623	1498.901	1500.366	-0.916	-1.023	1.160	0.536	5.435	-7.732
33855.377	NaN	2.500	6.848	-5.293	1511.355	1500.366	1500.366	-0.916	-1.160	1.053	0.459	5.435	-7.656
33856.354	NaN	2.500	6.848	-5.283	1510.623	1500.366	1499.634	-0.779	-1.176	1.053	0.306	5.512	-7.809
33857.330	NaN	2.500	6.837	-5.283	1509.890	1500.366	1499.634	-0.718	-1.038	1.237	0.383	5.435	-7.579
33858.307	NaN	2.511	6.837	-5.283	1510.623	1499.634	1501.099	-0.702	-0.840	1.237	0.230	5.512	-7.732
33859.283	NaN	2.511	6.848	-5.283	1509.890	1500.366	1501.099	-0.641	-0.962	0.977	0.306	5.512	-7.732
33860.260	NaN	2.511	6.837	-5.293	1510.623	1499.634	1501.832	-0.962	-1.053	0.763	0.383	5.435	-7.656
33861.237	NaN	2.511	6.848	-5.293	1511.355	1499.634	1501.832	-1.084	-0.977	0.947	0.306	5.512	-7.656
33862.213	NaN	2.511	6.837	-5.304	1510.623	1499.634	1501.099	-0.947	-0.809	0.992	0.306	5.589	-7.885
33863.190	NaN	2.511	6.848	-5.315	1510.623	1499.634	1501.099	-0.824	-0.840	0.992	0.536	5.512	-7.579
33864.166	NaN	2.511	6.848	-5.315	1510.623	1499.634	1501.099	-0.855	-1.038	0.977	0.459	5.589	-7.732
33865.143	NaN	2.511	6.859	-5.304	1510.623	1500.366	1499.634	-1.038	-1.099	1.053	0.459	5.512	-7.656
33866.119	NaN	2.511	6.859	-5.293	1509.890	1499.634	1500.366	-0.855	-0.992	0.901	0.383	5.512	-7.809
33867.096	NaN	2.522	6.870	-5.293	1513.553	1500.366	1498.901	-0.748	-0.824	0.916	0.230	5.512	-7.656
33868.073	3736843359.775	2.522	6.859	-5.293	1509.890	1499.634	1500.366	-0.901	-0.885	1.191	0.383	5.359	-7.732
33869.049	NaN	2.500	6.859	-5.304	1511.355	1499.634	1500.366	-0.992	-0.947	1.328	0.306	5.359	-7.656
33870.026	NaN	2.511	6.859	-5.304	1511.355	1500.366	1501.099	-1.084	-1.237	1.252	0.306	5.512	-7.656
33871.002	NaN	2.511	6.859	-5.304	1510.623	1500.366	1500.366	-1.008	-1.160	0.916	0.306	5.359	-7.656
33871.979	NaN	2.500	6.848	-5.304	1510.623	1499.634	1501.099	-0.870	-1.069	0.855	0.383	5.512	-7.579
33872.955	NaN	2.500	6.848	-5.304	1510.623	1499.634	1500.366	-0.855	-1.145	1.008	0.536	5.512	-7.809
33873.932	NaN	2.500	6.848	-5.304	1510.623	1500.366	1499.634	-0.947	-1.176	1.084	0.459	5.359	-7.656
33874.908	NaN	2.500	6.848	-5.304	1510.623	1499.634	1500.366	-1.069	-1.084	0.931	0.306	5.282	-7.656
33875.885	NaN	2.489	6.859	-5.304	1510.623	1499.634	1500.366	-0.885	-1.008	0.962	0.306	5.435	-7.656
33876.862	NaN	2.500	6.870	-5.293	1511.355	1499.634	1500.366	-0.901	-1.145	0.947	0.306	5.435	-7.656
33877.838	NaN	2.489	6.859	-5.304	1509.890	1499.634	1501.832	-0.885	-1.160	1.084	0.306	5.435	-7.579
33878.815	NaN	2.500	6.870	-5.304	1511.355	1499.634	1500.366	-0.931	-1.115	1.069	0.459	5.589	-7.579
33879.791	NaN	2.511	6.859	-5.304	1511.355	1500.366	1501.832	-0.962	-1.145	1.252	0.306	5.435	-7.809
33880.768	NaN	2.522	6.859	-5.293	1511.355	1499.634	1499.634	-1.115	-1.084	1.282	0.230	5.359	-7.809
33881.744	NaN	2.511	6.837	-5.293	1509.158	1500.366	1500.366	-1.038	-1.084	1.252	0.383	5.359	-7.656
33882.721	NaN	2.511	6.837	-5.304	1511.355	1500.366	1501.099	-1.084	-1.191	1.160	0.459	5.435	-7.656
33883.698	NaN	2.511	6.837	-5.283	1509.890	1501.099	1499.634	-0.824	-1.084	1.099	0.383	5.435	-7.579
33884.674	NaN	2.511	6.837	-5.283	1510.623	1499.634	1500.366	-0.779	-0.901	1.053	0.459	5.282	-7.732
33885.651	NaN	2.522	6.837	-5.293	1509.890	1499.634	1498.901	-0.962	-1.008	1.069	0.230	5.512	-7.656
33886.627	NaN	2.522	6.837	-5.293	1509.890	1499.634	1499.634	-0.947	-1.115	1.130	0.383	5.512	-7.656
33887.604	NaN	2.511	6.837	-5.304	1509.890	1499.634	1498.901	-0.992	-1.145	1.267	0.230	5.359	-7.809
33888.580	NaN	2.511	6.848	-5.293	1512.088	1498.901	1500.366	-0.931	-1.191	1.252	0.383	5.435	-7.732
33889.557	NaN	2.500	6.837	-5.293	1509.890	1500.366	1500.366	-0.855	-1.237	1.084	0.306	5.359	-7.579
33890.533	NaN	2.489	6.848	-5.293	1510.623	1499.634	1500.366	-0.824	-1.221	1.237	0.459	5.435	-7.656
33891.510	NaN	2.500	6.859	-5.293	1510.623	1499.634	1500.366	-0.962	-1.099	1.221	0.459	5.359	-7.502
33892.487	NaN	2.489	6.848	-5.293	1509.890	1499.634	1500.366	-0.962	-1.115	1.099	0.383	5.435	-7.656
33893.463	NaN	2.511	6.848	-5.272	1509.890	1499.634	1501.099	-1.145	-1.206	0.916	0.306	5.282	-7.732
33894.440	NaN	2.500	6.848	-5.293	1510.623	1499.634	1501.099	-0.962	-1.389	1.069	0.536	5.512	-7.656
33895.416	NaN	2.489	6.837	-5.293	1509.890	1499.634	1499.634	-0.947	-1.435	1.038	0.459	5.435	-7.579
33896.393	NaN	2.489	6.837	-5.272	1510.623	1501.099	1499.634	-0.977	-1.267	1.038	0.459	5.359	-7.656
33897.369	NaN	2.489	6.826	-5.283	1509.890	1499.634	1500.366	-0.733	-0.931	1.084	0.459	5.435	-7.809
33898.346	NaN	2.500	6.848	-5.250	1509.890	1498.901	1500.366	-0.840	-0.870	1.053	0.459	5.435	-7.656
33899.323	NaN	2.500	6.837	-5.261	1510.623	1498.901	1501.099	-0.962	-1.038	0.794	0.383	5.589	-7.656
33900.299	NaN	2.500	6.837	-5.283	1509.890	1498.901	1499.634	-1.008	-1.267	1.038	0.383	5.512	-7.732
33901.276	NaN	2.511	6.826	-5.272	1510.623	1500.366	1501.099	-1.008	-1.328	1.221	0.459	5.435	-7.732
33902.252	NaN	2.500	6.826	-5.293	1510.623	1499.634	1500.366	-0.885	-1.252	1.160	0.459	5.359	-7.732
33903.229	NaN	2.489	6.826	-5.293	1509.158	1498.901	1500.366	-0.977	-1.176	0.962	0.230	5.435	-7.579
33904.205	NaN	2.489	6.837	-5.293	1509.890	1498.901	1501.099	-1.221	-1.099	0.794	0.383	5.512	-7.656
33905.182	NaN	2.489	6.837	-5.283	1509.158	1498.168	1499.634	-1.160	-1.145	0.931	0.306	5.512	-7.656
33906.158	NaN	2.500	6.837	-5.272	1509.890	1500.366	1498.168	-0.947	-1.237	0.947	0.306	5.512	-7.656
33907.135	NaN	2.500	6.826	-5.261	1510.623	1499.634	1500.366	-0.931	-1.267	1.053	0.383	5.435	-7.732
33908.112	NaN	2.500	6.837	-5.261	1509.890	1498.901	1499.634	-1.069	-1.130	1.145	0.459	5.512	-7.656
33909.088	NaN	2.500	6.826	-5.261	1509.158	1499.634	1500.366	-1.084	-1.053	1.038	0.230	5.435	-7.809
33910.065	NaN	2.489	6.837	-5.283	1509.890	1499.634	1501.099	-1.099	-1.145	0.916	0.306	5.435	-7.732
33911.041	NaN	2.500	6.848	-5.272	1509.890	1499.634	1500.366	-1.115	-1.298	0.840	0.383	5.435	-7.579
33912.018	NaN	2.500	6.837	-5.272	1509.890	1500.366	1498.901	-1.160	-1.267	0.779	0.459	5.435	-7.656
33912.994	NaN	2.500	6.837	-5.250	1509.158	1499.634	1500.366	-1.069	-1.267	0.809	0.383	5.512	-7.656
33913.971	NaN	2.489	6.837	-5.261	1510.623	1500.366	1499.634	-0.916	-1.221	0.931	0.383	5.512	-7.579
33914.948	NaN	2.489	6.826	-5.261	1509.158	1499.634	1499.634	-0.931	-1.038	1.053	0.459	5.359	-7.732
33915.924	NaN	2.500	6.826	-5.261	1510.623	1499.634	1499.634	-0.962	-1.084	1.191	0.383	5.359	-7.656
33916.901	NaN	2.500	6.815	-5.283	1510.623	1498.901	1501.832	-1.038	-1.252	1.130	0.383	5.512	-7.656
33917.877	NaN	2.511	6.837	-5.283	1509.890	1499.634	1500.366	-1.084	-1.191	1.069	0.459	5.435	-7.809
33918.854	NaN	2.511	6.848	-5.283	1511.355	1499.634	1500.366	-1.084	-1.405	1.008	0.383	5.359	-7.579
33919.830	NaN	2.500	6.848	-5.293	1511.355	1498.901	1499.634	-1.191	-1.450	1.130	0.306	5.435	-7.579
33920.807	NaN	2.511	6.837	-5.293	1509.158	1498.901	1500.366	-1.053	-1.527	0.992	0.230	5.359	-7.656
33921.783	NaN	2.500	6.848	-5.293	1509.890	1499.634	1501.099	-1.130	-1.405	0.992	0.230	5.435	-7.656
33922.760	NaN	2.500	6.859	-5.304	1512.088	1499.634	1500.366	-0.962	-1.191	0.885	0.459	5.359	-7.732
33923.737	NaN	2.500	6.859	-5.293	1510.623	1500.366	1500.366	-0.763	-0.992	0.809	0.459	5.512	-7.579
33924.713	NaN	2.500	6.848	-5.304	1510.623	1499.634	1501.099	-0.794	-1.130	0.779	0.230	5.435	-7.656
33925.690	NaN	2.500	6.859	-5.283	1510.623	1499.634	1501.099	-0.840	-1.282	0.763	0.459	5.512	-7.656
33926.666	NaN	2.500	6.848	-5.283	1510.623	1499.634	1500.366	-1.099	-1.221	0.779	0.383	5.359	-7.809
33927.643	NaN	2.500	6.859	-5.283	1510.623	1501.099	1499.634	-1.344	-1.313	0.901	0.383	5.435	-7.656
33928.619	NaN	2.500	6.848	-5.283	1509.890	1499.634	1498.901	-1.252	-1.359	1.023	0.383	5.435	-7.579
33929.596	NaN	2.511	6.859	-5.272	1509.158	1499.634	1499.634	-0.977	-1.267	1.099	0.306	5.512	-7.656
33930.573	NaN	2.511	6.848	-5.272	1509.158	1499.634	1500.366	-0.916	-1.328	0.992	0.383	5.435	-7.656
33931.549	NaN	2.489	6.859	-5.304	1510.623	1500.366	1498.901	-1.069	-1.298	0.809	0.306	5.435	-7.732
33932.526	NaN	2.500	6.848	-5.293	1510.623	1500.366	1501.099	-1.328	-1.145	0.748	0.383	5.512	-7.656
33933.502	NaN	2.489	6.848	-5.293	1511.355	1500.366	1501.099	-1.252	-1.252	0.870	0.306	5.512	-7.502
33934.479	NaN	2.500	6.837	-5.293	1511.355	1500.366	1498.901	-1.359	-1.313	1.053	0.459	5.435	-7.732
33935.455	NaN	2.500	6.837	-5.304	1510.623	1500.366	1498.168	-1.221	-1.389	0.962	0.459	5.435	-7.579
33936.432	NaN	2.511	6.837	-5.293	1511.355	1499.634	1500.366	-1.130	-1.359	0.794	0.230	5.435	-7.579
33937.408	NaN	2.511	6.848	-5.293	1510.623	1500.366	1500.366	-0.992	-1.130	0.748	0.459	5.359	-7.732
33938.385	NaN	2.500	6.848	-5.293	1509.890	1499.634	1500.366	-1.099	-1.130	0.916	0.459	5.512	-7.656
33939.362	NaN	2.489	6.859	-5.315	1509.158	1499.634	1500.366	-1.298	-1.328	1.145	0.230	5.512	-7.732
33940.338	NaN	2.489	6.848	-5.315	1509.890	1498.168	1498.901	-1.298	-1.450	1.053	0.383	5.282	-7.656
33941.315	NaN	2.500	6.848	-5.304	1510.623	1499.634	1501.099	-1.053	-1.298	0.901	0.230	5.512	-7.885
33942.291	NaN	2.511	6.837	-5.304	1510.623	1499.634	1500.366	-0.718	-1.176	0.718	0.153	5.589	-7.656
33943.268	NaN	2.500	6.848	-5.304	1510.623	1500.366	1498.901	-0.870	-1.282	0.840	0.383	5.359	-7.732
33944.244	NaN	2.489	6.826	-5.304	1511.355	1499.634	1500.366	-1.282	-1.359	0.962	0.383	5.359	-7.885
33945.221	NaN	2.489	6.837	-5.304	1512.088	1500.366	1499.634	-1.466	-1.267	0.931	0.383	5.435	-7.579
33946.198	NaN	2.500	6.837	-5.304	1510.623	1501.099	1499.634	-1.313	-1.267	0.840	0.306	5.512	-7.809
33947.174	NaN	2.489	6.848	-5.304	1511.355	1499.634	1501.099	-1.053	-1.298	0.824	0.306	5.512	-7.809
33948.151	NaN	2.489	6.848	-5.326	1509.890	1499.634	1499.634	-1.084	-1.313	0.916	0.306	5.512	-7.656
33949.127	NaN	2.489	6.848	-5.326	1510.623	1501.099	1499.634	-1.145	-1.160	0.947	0.306	5.435	-7.732
33950.104	NaN	2.511	6.870	-5.315	1509.890	1501.099	1498.901	-1.206	-1.130	0.779	0.383	5.435	-7.656
33951.080	NaN	2.500	6.870	-5.326	1510.623	1500.366	1499.634	-1.038	-1.344	0.840	0.383	5.359	-7.809
33952.057	NaN	2.489	6.870	-5.337	1509.890	1499.634	1500.366	-1.053	-1.450	0.916	0.306	5.589	-7.732
33953.033	NaN	2.500	6.880	-5.337	1510.623	1500.366	1498.901	-1.084	-1.374	0.779	0.459	5.435	-7.809
33954.010	NaN	2.500	6.880	-5.337	1510.623	1500.366	1500.366	-1.023	-1.298	0.733	0.459	5.512	-7.809
33954.987	NaN	2.500	6.891	-5.326	1511.355	1500.366	1499.634	-1.008	-1.130	0.855	0.383	5.359	-7.656
33955.963	NaN	2.500	6.870	-5.326	1509.890	1499.634	1500.366	-1.252	-1.313	0.916	0.306	5.359	-7.579
33956.940	NaN	2.500	6.859	-5.337	1510.623	1499.634	1501.099	-1.191	-1.389	0.809	0.383	5.435	-7.579
33957.916	NaN	2.500	6.859	-5.348	1509.890	1498.901	1501.832	-1.206	-1.389	0.809	0.383	5.435	-7.656
33958.893	NaN	2.511	6.859	-5.348	1510.623	1499.634	1501.099	-1.237	-1.405	0.855	0.230	5.512	-7.579
33959.869	NaN	2.511	6.859	-5.337	1509.890	1499.634	1501.099	-1.130	-1.405	0.931	0.383	5.435	-7.809
33960.846	NaN	2.511	6.848	-5.326	1510.623	1499.634	1500.366	-1.145	-1.221	0.885	0.459	5.435	-7.579
33961.823	NaN	2.511	6.848	-5.337	1510.623	1500.366	1498.901	-1.176	-1.145	0.748	0.383	5.435	-7.502
33962.799	NaN	2.500	6.848	-5.337	1510.623	1500.366	1499.634	-1.374	-1.221	0.718	0.383	5.435	-7.809
33963.776	NaN	2.511	6.848	-5.326	1510.623	1500.366	1501.099	-1.206	-1.374	0.916	0.459	5.512	-7.656
33964.752	NaN	2.511	6.859	-5.315	1510.623	1499.634	1501.099	-1.008	-1.328	1.008	0.383	5.435	-7.656
33965.729	NaN	2.511	6.848	-5.315	1510.623	1500.366	1498.901	-1.008	-1.252	0.992	0.536	5.435	-7.809
33966.705	NaN	2.511	6.859	-5.304	1509.890	1498.901	1500.366	-0.962	-1.344	0.794	0.383	5.359	-7.579
33967.682	NaN	2.511	6.870	-5.304	1510.623	1499.634	1500.366	-1.053	-1.359	0.534	0.230	5.512	-7.732
33968.658	NaN	2.511	6.870	-5.283	1510.623	1499.634	1501.099	-1.160	-1.344	0.565	0.230	5.359	-7.809
33969.635	NaN	2.511	6.859	-5.293	1509.890	1499.634	1500.366	-1.237	-1.344	0.824	0.383	5.435	-7.579
33970.612	NaN	2.511	6.848	-5.315	1509.890	1499.634	1501.099	-1.389	-1.328	0.962	0.306	5.512	-7.732
33971.588	NaN	2.511	6.848	-5.315	1510.623	1499.634	1501.832	-1.542	-1.435	1.038	0.383	5.359	-7.732
33972.565	NaN	2.511	6.859	-5.304	1511.355	1499.634	1501.099	-1.160	-1.496	1.008	0.459	5.359	-7.579
33973.541	NaN	2.511	6.848	-5.293	1510.623	1499.634	1501.099	-1.023	-1.450	0.855	0.383	5.512	-7.656
33974.518	NaN	2.511	6.837	-5.315	1510.623	1499.634	1499.634	-0.962	-1.252	0.763	0.306	5.435	-7.732
33975.494	NaN	2.500	6.837	-5.315	1509.890	1499.634	1500.366	-1.084	-1.130	0.885	0.383	5.435	-7.656
33976.471	NaN	2.511	6.859	-5.326	1512.088	1498.901	1501.099	-1.069	-1.237	0.977	0.306	5.435	-7.732
33977.448	NaN	2.511	6.848	-5.315	1509.890	1500.366	1500.366	-1.221	-1.466	0.809	0.383	5.435	-7.732
33978.424	NaN	2.522	6.859	-5.293	1510.623	1500.366	1501.099	-1.221	-1.466	0.977	0.383	5.359	-7.579
33979.401	NaN	2.500	6.848	-5.304	1510.623	1499.634	1500.366	-1.221	-1.252	1.099	0.383	5.359	-7.732
33980.377	NaN	2.511	6.848	-5.304	1509.890	1499.634	1499.634	-1.130	-1.206	1.038	0.306	5.435	-7.656
33981.354	NaN	2.522	6.848	-5.283	1510.623	1500.366	1500.366	-1.130	-1.252	1.008	0.306	5.359	-7.809
33982.330	NaN	2.522	6.848	-5.293	1510.623	1500.366	1499.634	-1.160	-1.344	0.916	0.459	5.435	-7.732
33983.307	NaN	2.522	6.837	-5.283	1509.890	1500.366	1498.901	-1.160	-1.420	0.672	0.306	5.512	-7.502
33984.283	NaN	2.522	6.837	-5.283	1510.623	1500.366	1498.901	-1.191	-1.313	0.626	0.459	5.512	-7.732
33985.260	NaN	2.511	6.826	-5.293	1510.623	1501.099	1499.634	-1.252	-1.298	0.718	0.306	5.512	-7.809
33986.237	NaN	2.511	6.826	-5.283	1511.355	1499.634	1501.099	-1.206	-1.420	0.824	0.459	5.435	-7.809
33987.213	NaN	2.511	6.837	-5.283	1510.623	1499.634	1501.832	-1.191	-1.405	0.977	0.383	5.359	-7.579
33988.190	NaN	2.511	6.837	-5.283	1510.623	1500.366	1498.901	-1.328	-1.450	1.053	0.459	5.435	-7.809
33989.166	NaN	2.500	6.826	-5.283	1510.623	1499.634	1499.634	-1.359	-1.466	0.916	0.459	5.512	-7.656
33990.143	NaN	2.522	6.837	-5.272	1509.890	1501.099	1500.366	-1.252	-1.496	0.748	0.306	5.359	-7.656
33991.119	NaN	2.511	6.826	-5.272	1510.623	1500.366	1500.366	-1.435	-1.618	0.840	0.306	5.435	-7.732
33992.096	NaN	2.511	6.826	-5.293	1509.890	1499.634	1500.366	-1.557	-1.679	0.870	0.306	5.435	-7.579
33993.073	NaN	2.511	6.815	-5.293	1507.692	1499.634	1499.634	-1.206	-1.542	0.992	0.306	5.359	-7.732
33994.049	NaN	2.511	6.815	-5.293	1510.623	1499.634	1501.099	-1.084	-1.405	0.901	0.383	5.359	-7.732
33995.026	NaN	2.500	6.826	-5.283	1511.355	1499.634	1500.366	-1.160	-1.435	0.718	0.383	5.282	-7.656
33996.002	NaN	2.500	6.837	-5.283	1509.890	1500.366	1500.366	-1.237	-1.420	0.595	0.306	5.359	-7.579
33996.979	NaN	2.500	6.837	-5.293	1510.623	1499.634	1500.366	-1.328	-1.420	0.687	0.306	5.512	-7.732
33997.955	NaN	2.489	6.837	-5.283	1509.890	1500.366	1500.366	-1.237	-1.542	0.855	0.459	5.359	-7.732
33998.932	NaN	2.500	6.837	-5.283	1511.355	1500.366	1500.366	-1.145	-1.573	0.870	0.383	5.435	-7.579
33999.908	NaN	2.500	6.837	-5.272	1510.623	1499.634	1501.099	-1.176	-1.435	0.901	0.459	5.589	-7.732
34000.885	NaN	2.511	6.848	-5.272	1510.623	1500.366	1499.634	-1.130	-1.496	0.824	0.306	5.435	-7.809
34001.862	NaN	2.511	6.837	-5.293	1510.623	1499.634	1501.099	-1.160	-1.298	0.641	0.306	5.435	-7.579
34002.838	NaN	2.489	6.826	-5.283	1510.623	1499.634	1502.564	-1.069	-1.328	0.550	0.306	5.512	-7.732
34003.815	NaN	2.489	6.826	-5.272	1511.355	1499.634	1500.366	-1.145	-1.420	0.611	0.383	5.512	-7.732
34004.791	NaN	2.489	6.826	-5.261	1510.623	1499.634	1501.099	-1.221	-1.496	0.794	0.306	5.359	-7.579
34005.768	NaN	2.489	6.826	-5.261	1510.623	1499.634	1500.366	-1.374	-1.496	0.824	0.306	5.512	-7.656
34006.744	NaN	2.489	6.826	-5.261	1510.623	1499.634	1499.634	-1.359	-1.313	0.840	0.383	5.435	-7.656
34007.721	NaN	2.489	6.826	-5.272	1510.623	1499.634	1501.099	-1.511	-1.282	0.855	0.306	5.359	-7.656
34008.698	NaN	2.500	6.837	-5.261	1511.355	1499.634	1500.366	-1.298	-1.359	0.855	0.383	5.512	-7.656
34009.674	NaN	2.500	6.837	-5.272	1510.623	1499.634	1501.832	-1.130	-1.389	0.840	0.383	5.359	-7.732
34010.651	NaN	2.500	6.837	-5.272	1509.890	1499.634	1501.099	-1.145	-1.481	0.794	0.306	5.435	-7.809
34011.627	NaN	2.500	6.837	-5.272	1510.623	1499.634	1501.832	-1.313	-1.405	0.656	0.306	5.512	-7.579
34012.604	NaN	2.511	6.826	-5.283	1509.890	1498.901	1500.366	-1.466	-1.389	0.595	0.383	5.435	-7.656
34013.580	NaN	2.511	6.837	-5.261	1510.623	1499.634	1501.099	-1.511	-1.557	0.779	0.383	5.512	-7.732
34014.557	NaN	2.500	6.837	-5.272	1509.890	1499.634	1501.099	-1.496	-1.634	0.840	0.383	5.435	-7.656
