Timestamp	PC Timestamp	Low Noise Accelerometer X	Low Noise Accelerometer Y	Low Noise Accelerometer Z	Int A12	Int A13	Int A14	Gyroscope X	Gyroscope Y	Gyroscope Z	Wide Range Accelerometer X	Wide Range Accelerometer Y	Wide Range Accelerometer Z
432161.041	NaN	2.707	7.315	-4.957	1509.158	1499.634	1500.366	-1.191	-5.313	6.382	0.766	5.971	-7.273
432162.018	NaN	2.728	7.326	-4.935	1510.623	1500.366	1500.366	-1.237	-5.282	6.412	0.536	5.895	-7.273
432162.994	NaN	2.728	7.315	-4.935	1511.355	1499.634	1501.832	-1.069	-5.466	6.504	0.536	5.895	-7.273
432163.971	NaN	2.739	7.315	-4.935	1510.623	1500.366	1500.366	-1.084	-5.573	6.382	0.536	5.818	-7.349
432164.948	NaN	2.739	7.293	-4.924	1510.623	1498.901	1501.099	-1.221	-5.435	6.244	0.612	6.048	-7.273
432165.924	NaN	2.728	7.304	-4.935	1510.623	1500.366	1500.366	-1.405	-5.405	6.321	0.689	5.818	-7.349
432166.901	NaN	2.728	7.304	-4.935	1510.623	1499.634	1501.099	-1.328	-5.450	6.641	0.689	6.048	-7.196
432167.877	NaN	2.728	7.315	-4.935	1511.355	1499.634	1500.366	-1.053	-5.450	6.702	0.612	5.895	-7.273
432168.854	NaN	2.739	7.315	-4.935	1510.623	1499.634	1500.366	-0.718	-5.511	6.534	0.689	6.048	-7.426
432169.830	NaN	2.739	7.304	-4.935	1509.890	1499.634	1500.366	-0.687	-5.450	6.397	0.612	5.895	-7.196
432170.807	NaN	2.739	7.304	-4.924	1511.355	1500.366	1499.634	-1.069	-5.481	6.290	0.689	5.895	-7.349
432171.783	NaN	2.739	7.293	-4.924	1510.623	1499.634	1501.099	-1.282	-5.420	6.260	0.536	5.971	-7.196
432172.760	NaN	2.739	7.315	-4.913	1509.890	1499.634	1500.366	-1.099	-5.405	6.397	0.689	5.895	-7.273
432173.737	NaN	2.750	7.304	-4.913	1510.623	1498.901	1500.366	-1.130	-5.298	6.595	0.689	5.971	-7.273
432174.713	NaN	2.739	7.315	-4.935	1510.623	1498.901	1500.366	-1.053	-5.252	6.504	0.536	5.971	-7.426
432175.690	NaN	2.728	7.315	-4.924	1509.890	1498.901	1499.634	-1.069	-5.176	6.336	0.689	5.895	-7.196
432176.666	NaN	2.739	7.304	-4.935	1509.890	1499.634	1498.168	-0.824	-5.160	6.229	0.689	5.971	-7.273
432177.643	NaN	2.739	7.304	-4.924	1509.890	1498.901	1500.366	-0.870	-5.359	6.366	0.536	5.818	-7.273
432178.619	NaN	2.717	7.293	-4.946	1509.890	1498.901	1500.366	-1.023	-5.527	6.458	0.459	5.971	-7.196
432179.596	NaN	2.717	7.304	-4.946	1510.623	1500.366	1498.901	-1.053	-5.267	6.382	0.612	5.971	-7.502
432180.573	NaN	2.717	7.304	-4.935	1511.355	1499.634	1500.366	-1.115	-5.206	6.305	0.689	5.971	-7.349
432181.549	NaN	2.717	7.304	-4.946	1509.890	1499.634	1500.366	-1.130	-5.313	6.351	0.612	5.818	-7.273
432182.526	NaN	2.728	7.304	-4.957	1510.623	1499.634	1500.366	-1.115	-5.313	6.595	0.689	5.895	-7.349
432183.502	NaN	2.717	7.293	-4.967	1510.623	1500.366	1499.634	-0.870	-5.344	6.275	0.536	5.895	-7.273
432184.479	NaN	2.728	7.283	-4.957	1511.355	1500.366	1500.366	-0.962	-5.557	6.183	0.612	5.895	-7.273
432185.455	NaN	2.717	7.293	-4.967	1510.623	1499.634	1500.366	-1.115	-5.496	6.351	0.612	5.895	-7.273
432186.432	NaN	2.728	7.293	-4.946	1509.890	1498.901	1501.099	-1.252	-5.282	6.519	0.689	5.895	-7.349
432187.408	NaN	2.717	7.283	-4.946	1510.623	1498.901	1501.099	-0.977	-5.374	6.382	0.689	5.818	-7.426
432188.385	NaN	2.728	7.293	-4.924	1510.623	1499.634	1501.832	-0.901	-5.664	6.351	0.459	5.971	-7.120
432189.362	NaN	2.728	7.293	-4.935	1510.623	1498.901	1499.634	-1.237	-5.496	6.290	0.612	5.971	-7.349
432190.338	NaN	2.739	7.293	-4.924	1509.890	1499.634	1500.366	-1.069	-5.237	6.168	0.689	6.048	-7.349
432191.315	NaN	2.728	7.293	-4.935	1509.890	1500.366	1499.634	-1.053	-5.298	6.275	0.612	6.048	-7.349
432192.291	NaN	2.717	7.293	-4.946	1511.355	1499.634	1499.634	-1.023	-5.389	6.366	0.612	5.742	-7.273
432193.268	NaN	2.728	7.304	-4.946	1511.355	1499.634	1499.634	-1.023	-5.435	6.305	0.689	5.971	-7.426
432194.244	NaN	2.739	7.304	-4.935	1510.623	1500.366	1500.366	-1.038	-5.313	6.122	0.689	5.818	-7.273
432195.221	NaN	2.717	7.304	-4.935	1511.355	1500.366	1501.099	-1.282	-5.130	6.214	0.612	5.895	-7.273
432196.198	NaN	2.717	7.304	-4.935	1509.890	1500.366	1501.099	-1.328	-5.084	6.198	0.612	5.818	-7.273
432197.174	NaN	2.728	7.315	-4.935	1512.088	1499.634	1501.832	-1.237	-5.298	6.260	0.536	5.971	-7.196
432198.151	NaN	2.739	7.315	-4.913	1509.890	1499.634	1501.832	-1.099	-5.481	6.183	0.612	6.048	-7.273
432199.127	NaN	2.739	7.326	-4.935	1510.623	1500.366	1499.634	-1.176	-5.420	5.985	0.689	5.895	-7.426
432200.104	NaN	2.739	7.315	-4.946	1509.890	1499.634	1500.366	-1.176	-5.298	6.092	0.612	6.048	-7.349
432201.080	NaN	2.728	7.315	-4.957	1510.623	1499.634	1499.634	-1.176	-5.084	6.458	0.612	5.895	-7.426
432202.057	NaN	2.739	7.315	-4.935	1511.355	1499.634	1500.366	-0.992	-5.176	6.336	0.689	5.971	-7.273
432203.033	NaN	2.728	7.304	-4.946	1510.623	1499.634	1500.366	-1.053	-5.420	6.244	0.612	6.048	-7.196
432204.010	NaN	2.750	7.315	-4.946	1509.890	1498.901	1499.634	-1.084	-5.527	6.000	0.689	5.818	-7.273
432204.987	NaN	2.739	7.304	-4.935	1509.890	1499.634	1499.634	-1.145	-5.573	5.924	0.536	5.895	-7.273
432205.963	NaN	2.728	7.304	-4.935	1509.890	1498.168	1501.832	-0.931	-5.573	6.153	0.536	5.971	-7.273
432206.940	NaN	2.728	7.315	-4.924	1510.623	1499.634	1501.099	-1.069	-5.389	6.214	0.612	5.895	-7.273
432207.916	NaN	2.728	7.315	-4.935	1510.623	1499.634	1500.366	-1.176	-5.237	6.122	0.689	6.048	-7.273
432208.893	NaN	2.728	7.304	-4.946	1510.623	1500.366	1501.099	-1.160	-5.313	6.229	0.612	5.895	-8.498
432209.869	NaN	2.717	7.304	-4.957	1510.623	1498.901	1500.366	-1.206	-5.359	6.046	0.612	5.895	-7.196
432210.846	NaN	2.728	7.315	-4.957	1511.355	1499.634	1502.564	-1.206	-5.359	5.908	0.766	5.895	-7.349
432211.823	NaN	2.739	7.315	-4.957	1509.158	1499.634	1501.099	-0.962	-5.405	6.275	0.612	5.895	-7.349
432212.799	NaN	2.750	7.315	-4.967	1511.355	1500.366	1500.366	-1.023	-5.481	6.305	0.612	5.971	-7.196
432213.776	NaN	2.739	7.315	-4.957	1509.158	1499.634	1500.366	-1.267	-5.481	6.137	0.842	5.895	-7.273
432214.752	NaN	2.739	7.315	-4.957	1511.355	1499.634	1503.297	-1.282	-5.298	5.969	0.612	5.895	-7.349
432215.729	NaN	2.750	7.315	-4.946	1511.355	1500.366	1500.366	-1.115	-5.359	6.046	0.536	5.971	-7.273
432216.705	NaN	2.750	7.315	-4.946	1511.355	1500.366	1501.832	-1.221	-5.313	6.137	0.536	6.048	-7.273
432217.682	NaN	2.739	7.304	-4.946	1509.158	1499.634	1501.099	-1.176	-5.221	6.015	0.612	5.971	-7.349
432218.658	NaN	2.728	7.304	-4.935	1510.623	1499.634	1500.366	-1.176	-5.405	6.107	0.536	5.971	-7.196
432219.635	NaN	2.739	7.304	-4.924	1509.890	1499.634	1500.366	-1.267	-5.527	6.336	0.612	5.895	-7.349
432220.612	NaN	2.739	7.304	-4.913	1510.623	1500.366	1499.634	-1.374	-5.450	6.183	0.612	5.895	-7.273
432221.588	NaN	2.739	7.293	-4.924	1511.355	1499.634	1501.099	-1.237	-5.359	5.893	0.536	5.971	-7.273
432222.565	NaN	2.728	7.304	-4.924	1510.623	1499.634	1501.099	-0.992	-5.176	5.969	0.459	5.818	-7.273
432223.541	NaN	2.728	7.293	-4.935	1509.890	1498.901	1501.832	-0.901	-5.389	5.969	0.689	6.048	-7.273
432224.518	NaN	2.739	7.315	-4.924	1511.355	1501.099	1500.366	-1.130	-5.374	6.061	0.612	5.971	-7.349
432225.494	NaN	2.739	7.315	-4.935	1510.623	1500.366	1500.366	-1.252	-5.191	5.985	0.459	6.048	-7.273
432226.471	NaN	2.750	7.304	-4.946	1510.623	1499.634	1501.099	-1.313	-5.130	5.939	0.536	5.971	-7.196
432227.448	NaN	2.750	7.293	-4.946	1509.158	1499.634	1501.099	-1.191	-5.191	5.863	0.536	5.971	-7.426
432228.424	NaN	2.739	7.304	-4.967	1510.623	1498.901	1499.634	-1.176	-5.481	5.863	0.536	5.971	-7.273
432229.401	NaN	2.750	7.293	-4.946	1509.890	1501.099	1500.366	-1.084	-5.588	5.985	0.536	5.818	-7.426
432230.377	NaN	2.739	7.293	-4.946	1509.890	1500.366	1498.901	-1.130	-5.740	6.183	0.459	6.048	-7.196
432231.354	NaN	2.728	7.293	-4.935	1509.890	1498.901	1501.099	-1.282	-5.527	6.092	0.612	5.971	-7.273
432232.330	NaN	2.728	7.293	-4.946	1511.355	1498.901	1498.901	-1.206	-5.267	6.061	0.536	5.971	-7.349
432233.307	NaN	2.728	7.293	-4.935	1510.623	1498.901	1501.099	-1.191	-5.252	6.137	0.766	5.895	-7.196
432234.283	NaN	2.717	7.304	-4.924	1510.623	1499.634	1500.366	-1.282	-5.435	6.137	0.536	6.048	-7.196
432235.260	NaN	2.717	7.293	-4.924	1510.623	1498.901	1501.832	-1.053	-5.435	6.092	0.689	5.818	-7.273
432236.237	NaN	2.728	7.304	-4.913	1510.623	1501.099	1500.366	-0.992	-5.511	5.985	0.459	5.818	-7.273
432237.213	NaN	2.739	7.293	-4.924	1510.623	1500.366	1498.901	-1.038	-5.481	6.031	0.766	5.895	-7.273
432238.190	NaN	2.750	7.293	-4.924	1510.623	1500.366	1499.634	-1.145	-5.603	5.969	0.612	5.971	-7.196
432239.166	NaN	2.750	7.293	-4.924	1509.890	1499.634	1501.099	-1.008	-5.481	5.832	0.612	6.048	-7.273
432240.143	NaN	2.739	7.304	-4.924	1510.623	1499.634	1501.099	-1.191	-5.405	5.740	0.766	5.895	-7.196
432241.119	NaN	2.728	7.304	-4.924	1510.623	1499.634	1501.832	-1.221	-5.481	5.863	0.612	5.895	-7.196
432242.096	NaN	2.728	7.326	-4.924	1510.623	1500.366	1500.366	-1.069	-5.450	6.092	0.612	5.895	-7.120
432243.073	NaN	2.728	7.326	-4.902	1510.623	1500.366	1501.099	-1.053	-5.359	6.137	0.689	5.818	-7.273
432244.049	NaN	2.717	7.326	-4.902	1510.623	1499.634	1501.099	-1.206	-5.374	6.015	0.612	5.971	-7.273
432245.026	NaN	2.728	7.315	-4.902	1509.158	1499.634	1501.099	-1.237	-5.328	5.878	0.689	5.895	-7.349
432246.002	NaN	2.728	7.315	-4.913	1510.623	1500.366	1499.634	-1.176	-5.237	5.802	0.612	5.895	-7.273
432246.979	NaN	2.750	7.315	-4.924	1510.623	1500.366	1500.366	-1.115	-5.344	5.878	0.689	5.895	-7.349
432247.955	NaN	2.750	7.326	-4.935	1511.355	1499.634	1500.366	-0.931	-5.450	5.985	0.459	6.048	-8.498
432248.932	NaN	2.739	7.315	-4.935	1511.355	1499.634	1500.366	-1.008	-5.374	6.061	0.536	5.895	-7.196
432249.908	NaN	2.739	7.304	-4.924	1510.623	1499.634	1500.366	-1.099	-5.221	5.939	0.612	6.124	-7.349
432250.885	NaN	2.717	7.326	-4.924	1511.355	1499.634	1501.832	-0.840	-5.237	5.893	0.536	6.048	-7.120
432251.862	NaN	2.728	7.326	-4.913	1511.355	1500.366	1501.099	-1.038	-5.420	6.107	0.689	5.895	-7.273
432252.838	NaN	2.739	7.315	-4.913	1509.890	1499.634	1501.832	-1.359	-5.573	5.878	0.689	5.895	-7.273
432253.815	NaN	2.750	7.315	-4.924	1510.623	1499.634	1501.099	-1.206	-5.618	5.924	0.612	5.971	-7.273
432254.791	NaN	2.739	7.315	-4.935	1509.890	1498.901	1501.099	-1.191	-5.679	5.893	0.689	6.048	-7.273
432255.768	NaN	2.739	7.337	-4.924	1510.623	1501.099	1501.099	-1.191	-5.527	5.969	0.612	6.048	-7.273
432256.744	NaN	2.761	7.337	-4.924	1509.890	1500.366	1502.564	-1.160	-5.328	6.000	0.536	5.971	-7.349
432257.721	NaN	2.761	7.337	-4.924	1511.355	1499.634	1501.832	-1.359	-5.298	6.015	0.766	5.818	-7.349
432258.698	NaN	2.750	7.326	-4.924	1510.623	1499.634	1500.366	-1.191	-5.328	5.740	0.536	5.971	-7.426
432259.674	NaN	2.750	7.326	-4.935	1509.158	1498.901	1498.901	-1.176	-5.527	5.771	0.612	5.971	-7.120
432260.651	NaN	2.750	7.326	-4.924	1510.623	1499.634	1501.099	-1.298	-5.466	5.908	0.612	5.895	-7.502
432261.627	NaN	2.739	7.315	-4.935	1510.623	1499.634	1500.366	-1.160	-5.496	6.000	0.536	5.971	-7.273
432262.604	NaN	2.728	7.315	-4.946	1510.623	1500.366	1500.366	-1.008	-5.328	6.046	0.689	5.895	-7.349
432263.580	NaN	2.739	7.304	-4.946	1510.623	1499.634	1501.099	-1.084	-5.237	5.725	0.612	5.971	-7.273
432264.557	NaN	2.739	7.304	-4.946	1511.355	1499.634	1500.366	-1.115	-5.405	5.496	0.689	5.971	-7.120
432265.533	NaN	2.739	7.304	-4.946	1510.623	1499.634	1501.099	-1.038	-5.511	5.634	0.612	6.048	-7.196
432266.510	NaN	2.739	7.304	-4.946	1510.623	1498.901	1501.832	-1.115	-5.634	5.847	0.612	5.895	-7.349
432267.487	NaN	2.739	7.315	-4.935	1510.623	1499.634	1501.099	-1.084	-5.664	5.817	0.612	5.895	-7.502
432268.463	NaN	2.728	7.304	-4.924	1509.890	1499.634	1499.634	-1.053	-5.557	5.756	0.612	5.971	-7.426
432269.440	NaN	2.728	7.304	-4.924	1509.158	1499.634	1501.099	-1.130	-5.374	5.649	0.536	5.971	-7.349
432270.416	NaN	2.728	7.304	-4.924	1511.355	1500.366	1499.634	-1.420	-5.389	5.847	0.689	5.818	-7.349
432271.393	NaN	2.728	7.304	-4.913	1511.355	1499.634	1500.366	-1.328	-5.573	5.969	0.612	5.971	-7.196
432272.369	NaN	2.739	7.293	-4.924	1510.623	1498.901	1500.366	-1.344	-5.634	5.756	0.536	5.895	-7.273
432273.346	NaN	2.739	7.304	-4.935	1511.355	1500.366	1501.099	-1.221	-5.573	5.939	0.612	5.818	-7.273
432274.323	NaN	2.739	7.304	-4.935	1511.355	1499.634	1501.099	-0.962	-5.527	6.000	0.612	5.818	-7.349
432275.299	NaN	2.739	7.315	-4.935	1510.623	1499.634	1501.832	-1.069	-5.496	5.817	0.536	6.048	-7.273
432276.276	NaN	2.750	7.315	-4.946	1509.890	1499.634	1499.634	-1.435	-5.466	5.695	0.612	5.971	-7.273
432277.252	NaN	2.739	7.315	-4.957	1509.890	1500.366	1499.634	-1.511	-5.557	5.710	0.612	5.895	-7.196
432278.229	NaN	2.750	7.315	-4.946	1509.158	1500.366	1501.099	-1.313	-5.756	5.725	0.612	5.971	-7.426
432279.205	NaN	2.739	7.315	-4.946	1511.355	1499.634	1501.832	-1.115	-5.695	5.618	0.689	5.818	-7.273
432280.182	NaN	2.728	7.315	-4.946	1510.623	1499.634	1501.099	-1.420	-5.450	5.573	0.459	5.742	-7.273
432281.158	NaN	2.728	7.315	-4.957	1510.623	1499.634	1499.634	-1.725	-5.405	5.756	0.612	5.895	-7.273
432282.135	NaN	2.728	7.304	-4.967	1511.355	1501.099	1500.366	-1.542	-5.496	5.802	0.612	5.971	-7.273
432283.112	NaN	2.739	7.304	-4.957	1510.623	1499.634	1501.099	-1.359	-5.695	5.557	0.612	5.971	-7.349
432284.088	NaN	2.728	7.304	-4.946	1509.890	1499.634	1501.099	-1.084	-5.863	5.664	0.689	6.048	-7.196
432285.065	NaN	2.739	7.315	-4.957	1509.158	1499.634	1500.366	-1.176	-5.771	5.847	0.689	6.048	-7.273
432286.041	NaN	2.739	7.304	-4.946	1511.355	1499.634	1500.366	-1.221	-5.649	5.756	0.689	6.048	-7.273
432287.018	NaN	2.728	7.293	-4.935	1509.890	1499.634	1501.099	-1.252	-5.496	5.832	0.612	5.895	-7.196
432287.994	NaN	2.739	7.283	-4.924	1509.158	1498.901	1498.901	-1.344	-5.344	5.893	0.689	5.895	-7.273
432288.971	NaN	2.739	7.293	-4.913	1510.623	1500.366	1500.366	-1.527	-5.527	5.817	0.536	5.742	-7.349
432289.948	NaN	2.728	7.293	-4.913	1509.890	1499.634	1500.366	-1.557	-5.511	5.710	0.612	5.818	-7.273
432290.924	NaN	2.728	7.304	-4.935	1511.355	1499.634	1500.366	-1.466	-5.542	5.603	0.766	5.895	-7.273
432291.901	NaN	2.728	7.304	-4.913	1509.890	1499.634	1500.366	-1.313	-5.511	5.710	0.689	5.971	-7.196
432292.877	NaN	2.728	7.315	-4.924	1510.623	1500.366	1500.366	-1.374	-5.389	5.802	0.612	5.971	-7.273
432293.854	NaN	2.728	7.304	-4.935	1509.890	1499.634	1501.099	-1.511	-5.496	5.756	0.612	5.742	-7.349
432294.830	NaN	2.728	7.304	-4.935	1510.623	1499.634	1500.366	-1.511	-5.634	5.695	0.612	6.048	-7.196
432295.807	NaN	2.728	7.304	-4.913	1510.623	1501.099	1501.832	-1.527	-5.573	5.740	0.612	5.971	-7.349
432296.783	NaN	2.728	7.304	-4.924	1510.623	1499.634	1501.832	-1.481	-5.557	5.588	0.612	5.895	-7.349
432297.760	NaN	2.728	7.315	-4.913	1509.890	1499.634	1501.099	-1.374	-5.588	5.511	0.536	5.971	-7.196
432298.737	NaN	2.728	7.315	-4.924	1511.355	1501.099	1501.099	-1.191	-5.603	5.389	0.612	5.971	-7.273
432299.713	NaN	2.728	7.304	-4.924	1510.623	1499.634	1500.366	-1.069	-5.435	5.405	0.689	5.971	-7.426
432300.690	NaN	2.728	7.315	-4.924	1510.623	1499.634	1501.832	-1.313	-5.496	5.511	0.766	5.818	-7.273
432301.666	NaN	2.728	7.315	-4.924	1511.355	1500.366	1501.099	-1.542	-5.634	5.817	0.612	5.895	-7.349
432302.643	NaN	2.717	7.304	-4.935	1509.890	1499.634	1500.366	-1.328	-5.557	5.832	0.612	5.895	-7.349
432303.619	NaN	2.717	7.293	-4.957	1510.623	1498.168	1500.366	-1.252	-5.466	5.573	0.612	5.895	-7.196
432304.596	NaN	2.717	7.304	-4.957	1509.158	1498.901	1499.634	-1.267	-5.466	5.420	0.689	5.971	-7.196
432305.573	NaN	2.728	7.304	-4.935	1509.158	1499.634	1501.099	-1.237	-5.542	5.420	0.459	5.971	-7.120
432306.549	NaN	2.728	7.315	-4.946	1510.623	1499.634	1500.366	-1.298	-5.740	5.618	0.536	5.895	-7.349
432307.526	NaN	2.739	7.315	-4.935	1509.158	1500.366	1500.366	-1.282	-5.832	5.740	0.536	5.971	-7.120
432308.502	NaN	2.739	7.304	-4.935	1512.088	1499.634	1500.366	-1.298	-5.695	5.679	0.689	5.895	-7.273
432309.479	NaN	2.717	7.293	-4.924	1509.158	1499.634	1501.099	-1.099	-5.511	5.466	0.612	5.895	-7.426
432310.455	NaN	2.728	7.304	-4.924	1510.623	1499.634	1501.099	-1.298	-5.466	5.450	0.459	6.048	-7.502
432311.432	NaN	2.728	7.293	-4.924	1510.623	1498.901	1500.366	-1.435	-5.618	5.496	0.689	5.971	-7.349
432312.408	NaN	2.728	7.304	-4.924	1509.890	1498.901	1500.366	-1.679	-5.832	5.527	0.612	5.895	-7.196
432313.385	NaN	2.717	7.304	-4.935	1511.355	1499.634	1500.366	-1.634	-5.649	5.740	0.536	6.048	-7.426
432314.362	NaN	2.717	7.304	-4.946	1509.890	1498.901	1500.366	-1.267	-5.527	5.557	0.766	5.971	-7.120
432315.338	NaN	2.739	7.304	-4.935	1509.890	1498.901	1501.099	-1.328	-5.634	5.344	0.612	5.895	-7.273
432316.315	NaN	2.728	7.304	-4.946	1510.623	1499.634	1499.634	-1.359	-5.466	5.344	0.689	5.971	-7.196
432317.291	NaN	2.728	7.304	-4.946	1509.158	1498.168	1500.366	-1.359	-5.511	5.557	0.689	5.971	-7.349
432318.268	NaN	2.739	7.315	-4.935	1511.355	1500.366	1499.634	-1.496	-5.481	5.695	0.612	5.971	-7.349
432319.244	NaN	2.728	7.304	-4.957	1511.355	1498.901	1501.832	-1.481	-5.649	5.664	0.612	5.971	-7.273
432320.221	NaN	2.717	7.304	-4.935	1510.623	1498.168	1501.099	-1.405	-5.847	5.466	0.536	5.971	-7.349
432321.198	NaN	2.717	7.293	-4.946	1510.623	1499.634	1501.099	-1.481	-5.786	5.618	0.459	6.048	-7.273
432322.174	NaN	2.707	7.293	-4.957	1509.158	1498.901	1498.901	-1.374	-5.573	5.618	0.612	5.895	-7.273
432323.151	NaN	2.707	7.293	-4.935	1510.623	1499.634	1500.366	-1.466	-5.511	5.481	0.459	5.895	-7.273
432324.127	NaN	2.707	7.315	-4.957	1510.623	1499.634	1501.099	-1.679	-5.649	5.405	0.612	5.971	-7.349
432325.104	NaN	2.707	7.304	-4.924	1509.890	1498.901	1499.634	-1.740	-5.832	5.573	0.612	5.895	-7.349
432326.080	NaN	2.696	7.293	-4.935	1510.623	1498.901	1500.366	-1.588	-5.847	5.740	0.689	5.895	-7.349
432327.057	NaN	2.707	7.293	-4.935	1509.158	1498.901	1500.366	-1.618	-5.710	5.679	0.612	5.971	-7.196
432328.033	NaN	2.717	7.304	-4.913	1510.623	1498.901	1501.832	-1.405	-5.634	5.679	0.689	5.971	-7.349
432329.010	NaN	2.728	7.293	-4.913	1510.623	1498.901	1501.099	-1.374	-5.542	5.710	0.536	5.818	-7.349
432329.987	NaN	2.728	7.304	-4.913	1511.355	1499.634	1501.832	-1.313	-5.603	5.481	0.536	5.818	-7.349
432330.963	NaN	2.717	7.293	-4.935	1511.355	1500.366	1501.099	-1.359	-5.618	5.588	0.689	5.895	-7.349
432331.940	NaN	2.717	7.283	-4.946	1511.355	1498.901	1501.099	-1.695	-5.679	5.481	0.536	5.895	-7.273
432332.916	NaN	2.739	7.293	-4.924	1509.158	1498.901	1501.099	-1.618	-5.786	5.389	0.612	6.048	-7.043
432333.893	NaN	2.728	7.293	-4.946	1510.623	1499.634	1499.634	-1.420	-5.710	5.542	0.536	5.971	-7.349
432334.869	NaN	2.739	7.283	-4.924	1510.623	1498.901	1501.832	-1.267	-5.573	5.542	0.612	5.895	-7.196
432335.846	NaN	2.739	7.293	-4.935	1512.088	1498.901	1500.366	-1.252	-5.649	5.496	0.459	5.895	-7.273
432336.823	NaN	2.739	7.293	-4.935	1510.623	1500.366	1498.901	-1.466	-5.771	5.405	0.612	5.971	-7.273
432337.799	NaN	2.750	7.304	-4.913	1509.890	1500.366	1500.366	-1.542	-5.710	5.450	0.459	5.895	-7.273
432338.776	NaN	2.750	7.293	-4.913	1510.623	1499.634	1500.366	-1.557	-5.618	5.328	0.612	5.971	-7.273
432339.752	NaN	2.728	7.304	-4.924	1509.158	1498.901	1500.366	-1.588	-5.634	5.115	0.612	5.971	-7.426
432340.729	NaN	2.728	7.315	-4.924	1510.623	1499.634	1501.832	-1.542	-5.634	5.069	0.612	5.971	-7.273
432341.705	NaN	2.728	7.315	-4.924	1511.355	1498.901	1500.366	-1.450	-5.634	5.389	0.612	5.895	-7.273
432342.682	NaN	2.728	7.315	-4.924	1510.623	1498.901	1500.366	-1.725	-5.557	5.450	0.536	6.048	-7.349
432343.658	NaN	2.739	7.326	-4.913	1510.623	1499.634	1499.634	-1.710	-5.573	5.389	0.612	6.048	-7.273
432344.635	NaN	2.728	7.315	-4.902	1511.355	1500.366	1498.901	-1.588	-5.649	5.481	0.689	6.048	-7.349
432345.612	NaN	2.728	7.315	-4.902	1511.355	1498.901	1499.634	-1.664	-5.740	5.786	0.536	6.048	-7.349
432346.588	NaN	2.750	7.315	-4.891	1510.623	1499.634	1502.564	-1.771	-5.664	5.954	0.459	5.895	-7.273
432347.565	NaN	2.750	7.315	-4.902	1510.623	1498.901	1501.099	-1.679	-5.649	5.802	0.536	5.895	-7.273
432348.541	NaN	2.750	7.304	-4.913	1508.425	1498.901	1500.366	-1.527	-5.710	5.420	0.612	5.895	-7.196
432349.518	NaN	2.739	7.304	-4.902	1511.355	1499.634	1501.099	-1.313	-5.679	5.267	0.689	5.895	-7.349
432350.494	NaN	2.728	7.283	-4.913	1510.623	1499.634	1499.634	-1.374	-5.634	5.237	0.689	5.895	-7.273
432351.471	NaN	2.728	7.293	-4.902	1510.623	1499.634	1501.099	-1.542	-5.618	5.099	0.689	5.971	-7.273
432352.448	NaN	2.728	7.283	-4.891	1509.890	1498.901	1501.099	-1.527	-5.542	5.115	0.612	5.818	-7.426
432353.424	NaN	2.728	7.293	-4.902	1509.890	1498.901	1501.099	-1.420	-5.481	5.237	0.612	5.895	-7.349
432354.401	NaN	2.728	7.283	-4.902	1509.890	1499.634	1501.099	-1.679	-5.435	5.573	0.689	5.971	-7.273
432355.377	NaN	2.717	7.283	-4.902	1509.158	1499.634	1501.099	-1.802	-5.496	5.527	0.612	5.818	-7.349
432356.354	NaN	2.728	7.283	-4.902	1509.890	1498.901	1500.366	-2.046	-5.618	5.603	0.766	5.895	-7.273
432357.330	NaN	2.717	7.283	-4.913	1510.623	1500.366	1498.901	-1.954	-5.588	5.511	0.689	5.895	-7.273
432358.307	NaN	2.717	7.293	-4.902	1510.623	1500.366	1500.366	-1.649	-5.573	5.435	0.689	5.971	-7.349
432359.283	NaN	2.707	7.293	-4.924	1509.158	1499.634	1499.634	-1.481	-5.496	5.481	0.612	5.971	-7.349
432360.260	NaN	2.696	7.293	-4.913	1510.623	1499.634	1500.366	-1.527	-5.634	5.359	0.536	5.971	-7.273
432361.237	NaN	2.707	7.293	-4.924	1510.623	1500.366	1500.366	-1.557	-5.725	5.588	0.536	5.971	-7.273
432362.213	NaN	2.707	7.293	-4.924	1509.890	1499.634	1498.901	-1.481	-5.588	5.450	0.612	5.971	-7.273
432363.190	NaN	2.717	7.293	-4.913	1508.425	1500.366	1500.366	-1.405	-5.450	5.344	0.689	5.971	-7.349
432364.166	NaN	2.707	7.293	-4.935	1510.623	1500.366	1500.366	-1.420	-5.420	5.359	0.766	5.971	-7.349
432365.143	NaN	2.728	7.315	-4.924	1509.890	1498.901	1500.366	-1.405	-5.420	5.405	0.612	5.971	-7.196
432366.119	NaN	2.717	7.293	-4.924	1510.623	1499.634	1500.366	-1.527	-5.420	5.405	0.536	5.895	-7.196
432367.096	NaN	2.717	7.304	-4.913	1509.158	1499.634	1498.901	-1.511	-5.557	5.573	0.536	5.818	-7.349
432368.073	NaN	2.728	7.304	-4.891	1509.890	1499.634	1501.832	-1.664	-5.542	5.695	0.536	5.895	-7.273
432369.049	NaN	2.739	7.315	-4.913	1509.158	1500.366	1499.634	-1.740	-5.557	5.664	0.536	5.818	-7.349
432370.026	NaN	2.739	7.304	-4.924	1509.890	1499.634	1501.099	-1.634	-5.511	5.389	0.612	6.048	-7.273
432371.002	NaN	2.717	7.304	-4.935	1511.355	1500.366	1499.634	-1.573	-5.588	5.359	0.689	5.971	-7.349
432371.979	NaN	2.717	7.293	-4.935	1509.890	1499.634	1501.832	-1.466	-5.481	5.511	0.536	5.742	-7.349
432372.955	NaN	2.717	7.293	-4.935	1511.355	1500.366	1500.366	-1.557	-5.527	5.618	0.612	5.895	-7.120
432373.932	NaN	2.717	7.293	-4.924	1511.355	1498.901	1501.099	-1.496	-5.496	5.420	0.536	5.895	-7.196
432374.908	NaN	2.717	7.304	-4.924	1509.890	1499.634	1501.099	-1.588	-5.405	5.374	0.612	5.971	-7.349
432375.885	NaN	2.717	7.293	-4.935	1511.355	1500.366	1498.901	-1.710	-5.328	5.405	0.612	5.895	-7.349
432376.862	NaN	2.728	7.293	-4.946	1510.623	1499.634	1500.366	-1.740	-5.435	5.450	0.766	5.895	-8.344
432377.838	NaN	2.717	7.293	-4.957	1509.890	1499.634	1500.366	-1.710	-5.588	5.298	0.536	5.971	-7.273
432378.815	NaN	2.717	7.304	-4.946	1510.623	1499.634	1500.366	-1.802	-5.374	5.313	0.459	5.818	-7.349
432379.791	NaN	2.696	7.293	-4.946	1511.355	1498.901	1499.634	-1.740	-5.313	5.466	0.383	6.048	-7.273
432380.768	NaN	2.707	7.304	-4.935	1511.355	1499.634	1501.099	-1.603	-5.481	5.328	0.689	5.971	-7.273
432381.744	NaN	2.717	7.304	-4.935	1510.623	1500.366	1500.366	-1.573	-5.511	5.435	0.536	5.895	-7.349
432382.721	NaN	2.717	7.304	-4.935	1509.890	1499.634	1500.366	-1.695	-5.374	5.618	0.612	5.971	-7.196
432383.698	NaN	2.717	7.304	-4.935	1510.623	1499.634	1500.366	-1.588	-5.344	5.527	0.612	5.818	-7.196
432384.674	NaN	2.717	7.304	-4.957	1510.623	1500.366	1499.634	-1.634	-5.435	5.374	0.689	5.971	-7.349
432385.651	NaN	2.717	7.304	-4.957	1510.623	1499.634	1501.832	-1.863	-5.221	5.527	0.612	5.895	-7.349
432386.627	NaN	2.717	7.304	-4.978	1510.623	1498.901	1500.366	-1.878	-5.282	5.359	0.536	5.971	-7.349
432387.604	NaN	2.728	7.293	-4.967	1509.890	1498.901	1499.634	-1.924	-5.344	5.069	0.536	5.818	-7.043
432388.580	NaN	2.717	7.304	-4.957	1510.623	1499.634	1501.099	-1.740	-5.298	5.237	0.689	5.895	-7.273
432389.557	NaN	2.717	7.304	-4.946	1511.355	1499.634	1500.366	-1.603	-5.252	5.496	0.689	5.895	-7.273
432390.533	NaN	2.717	7.304	-4.946	1510.623	1500.366	1499.634	-1.893	-5.511	5.649	0.612	5.971	-7.273
432391.510	NaN	2.717	7.304	-4.967	1511.355	1499.634	1501.832	-1.649	-5.557	5.450	0.612	5.895	-7.273
432392.487	NaN	2.707	7.304	-4.957	1509.158	1498.901	1498.901	-1.511	-5.511	5.344	0.536	5.971	-7.196
432393.463	NaN	2.707	7.293	-4.957	1510.623	1499.634	1501.099	-1.496	-5.420	5.359	0.536	5.971	-7.273
432394.440	NaN	2.707	7.304	-4.957	1510.623	1499.634	1501.099	-1.664	-5.374	5.374	0.536	6.048	-7.349
432395.416	NaN	2.717	7.293	-4.957	1510.623	1499.634	1501.099	-1.725	-5.450	5.573	0.689	5.895	-7.196
432396.393	NaN	2.717	7.293	-4.946	1510.623	1500.366	1500.366	-1.664	-5.374	5.344	0.536	5.971	-7.349
432397.369	NaN	2.717	7.283	-4.946	1510.623	1498.901	1501.099	-1.542	-5.435	5.221	0.689	5.895	-7.349
432398.346	NaN	2.717	7.293	-4.946	1510.623	1499.634	1501.099	-1.679	-5.405	5.496	0.459	5.742	-7.273
432399.323	NaN	2.717	7.293	-4.935	1510.623	1499.634	1501.099	-1.893	-5.450	5.237	0.612	5.818	-7.426
432400.299	NaN	2.717	7.304	-4.924	1511.355	1499.634	1501.099	-2.046	-5.405	5.206	0.459	5.895	-7.349
432401.276	NaN	2.717	7.304	-4.924	1509.890	1499.634	1500.366	-1.756	-5.374	5.405	0.689	5.971	-7.196
432402.252	NaN	2.717	7.293	-4.935	1511.355	1500.366	1502.564	-1.679	-5.405	5.496	0.612	5.895	-7.273
432403.229	NaN	2.739	7.293	-4.924	1512.088	1500.366	1501.099	-1.832	-5.420	5.405	0.612	6.048	-7.120
432404.205	NaN	2.739	7.293	-4.935	1510.623	1499.634	1500.366	-1.847	-5.389	5.221	0.536	5.895	-7.349
432405.182	NaN	2.728	7.293	-4.924	1510.623	1499.634	1501.832	-1.878	-5.328	5.191	0.536	5.971	-7.349
432406.158	NaN	2.728	7.293	-4.924	1510.623	1498.901	1500.366	-1.695	-5.252	5.573	0.689	5.818	-7.273
432407.135	NaN	2.728	7.304	-4.935	1511.355	1500.366	1500.366	-1.511	-5.267	5.496	0.612	5.971	-7.349
432408.112	NaN	2.739	7.304	-4.924	1511.355	1500.366	1500.366	-1.588	-5.206	5.206	0.536	5.818	-7.196
432409.088	NaN	2.728	7.304	-4.935	1510.623	1500.366	1500.366	-1.786	-5.145	5.130	0.612	5.818	-7.120
432410.065	NaN	2.717	7.315	-4.946	1510.623	1499.634	1500.366	-2.122	-5.130	5.130	0.536	5.895	-7.273
432411.041	NaN	2.707	7.304	-4.946	1510.623	1498.901	1500.366	-2.092	-5.115	5.237	0.536	5.895	-7.273
432412.018	NaN	2.728	7.304	-4.946	1509.890	1500.366	1500.366	-1.878	-5.221	5.237	0.689	5.895	-7.273
432412.994	NaN	2.739	7.293	-4.957	1511.355	1498.901	1500.366	-1.573	-5.252	5.176	0.536	5.818	-7.426
432413.971	NaN	2.728	7.293	-4.946	1510.623	1500.366	1500.366	-1.603	-5.099	5.221	0.612	5.971	-7.349
432414.948	NaN	2.717	7.283	-4.957	1510.623	1499.634	1500.366	-1.649	-5.008	5.374	0.612	5.895	-7.273
432415.924	NaN	2.717	7.293	-4.978	1510.623	1501.099	1500.366	-1.695	-5.130	5.542	0.612	5.971	-8.421
432416.901	NaN	2.717	7.293	-4.957	1510.623	1500.366	1500.366	-1.740	-5.099	5.511	0.689	5.971	-7.349
432417.877	NaN	2.728	7.293	-4.946	1510.623	1500.366	1500.366	-2.031	-5.130	5.481	0.689	5.971	-7.196
432418.854	NaN	2.739	7.293	-4.946	1509.890	1499.634	1500.366	-1.939	-5.282	5.374	0.536	5.895	-7.273
432419.830	NaN	2.728	7.293	-4.935	1510.623	1499.634	1501.832	-1.695	-5.328	5.450	0.612	5.895	-7.196
432420.807	NaN	2.739	7.304	-4.935	1511.355	1500.366	1500.366	-1.786	-5.405	5.267	0.612	5.971	-7.273
432421.783	NaN	2.739	7.304	-4.935	1511.355	1499.634	1501.099	-1.847	-5.359	5.313	0.612	6.048	-7.426
432422.760	NaN	2.750	7.293	-4.935	1511.355	1499.634	1500.366	-1.847	-5.328	5.313	0.689	5.818	-7.273
432423.737	NaN	2.728	7.293	-4.924	1510.623	1499.634	1500.366	-1.893	-5.237	5.160	0.536	5.971	-7.426
432424.713	NaN	2.717	7.283	-4.924	1509.890	1499.634	1500.366	-1.908	-5.160	5.221	0.536	5.971	-7.273
432425.690	NaN	2.728	7.293	-4.924	1510.623	1500.366	1500.366	-1.817	-5.099	5.420	0.612	5.971	-7.273
432426.666	NaN	2.728	7.293	-4.924	1511.355	1500.366	1500.366	-1.786	-5.191	5.420	0.689	5.895	-7.273
432427.643	NaN	2.717	7.293	-4.913	1509.158	1499.634	1501.099	-1.954	-5.160	5.573	0.612	5.971	-7.273
432428.619	NaN	2.717	7.293	-4.924	1510.623	1499.634	1500.366	-2.015	-5.099	5.557	0.612	5.971	-7.273
432429.596	NaN	2.717	7.304	-4.924	1510.623	1500.366	1499.634	-2.061	-5.160	5.496	0.536	5.895	-7.120
432430.573	NaN	2.717	7.293	-4.913	1510.623	1500.366	1499.634	-2.076	-5.084	5.298	0.689	5.895	-7.273
432431.549	NaN	2.717	7.283	-4.924	1509.890	1498.901	1500.366	-2.122	-5.084	5.405	0.536	6.048	-7.349
432432.526	NaN	2.728	7.293	-4.935	1510.623	1498.901	1498.901	-2.031	-5.191	5.466	0.612	5.895	-7.349
432433.502	NaN	2.717	7.283	-4.935	1511.355	1499.634	1499.634	-1.786	-5.084	5.603	0.612	5.971	-7.273
432434.479	NaN	2.717	7.283	-4.946	1510.623	1498.901	1500.366	-1.771	-4.992	5.542	0.612	6.048	-7.273
432435.455	NaN	2.717	7.293	-4.946	1509.890	1498.901	1500.366	-1.664	-5.053	5.435	0.689	5.895	-7.349
432436.432	NaN	2.707	7.293	-4.946	1510.623	1500.366	1498.901	-1.832	-5.069	5.328	0.689	5.895	-7.426
432437.408	NaN	2.707	7.283	-4.957	1509.890	1498.901	1498.901	-2.153	-5.038	5.389	0.536	5.971	-7.196
432438.385	NaN	2.717	7.283	-4.946	1511.355	1500.366	1500.366	-2.107	-4.992	5.313	0.612	5.895	-7.196
432439.362	NaN	2.707	7.283	-4.946	1510.623	1499.634	1499.634	-1.878	-5.023	5.389	0.612	5.971	-7.273
432440.338	NaN	2.728	7.293	-4.924	1510.623	1500.366	1500.366	-1.725	-5.084	5.374	0.536	5.971	-7.349
432441.315	3736842734.382	2.728	7.293	-4.935	1510.623	1499.634	1500.366	-2.092	-5.023	5.176	0.459	5.895	-7.273
432442.291	NaN	2.728	7.293	-4.935	1509.158	1498.901	1499.634	-2.214	-5.023	5.344	0.612	6.048	-7.349
432443.268	NaN	2.728	7.293	-4.946	1510.623	1499.634	1501.099	-2.000	-5.252	5.481	0.459	5.895	-7.349
432444.244	NaN	2.728	7.293	-4.957	1510.623	1498.901	1499.634	-1.740	-5.160	5.344	0.766	5.895	-7.273
432445.221	NaN	2.750	7.304	-4.946	1509.158	1498.901	1499.634	-1.802	-4.962	5.374	0.536	5.818	-7.273
432446.198	NaN	2.728	7.304	-4.924	1511.355	1499.634	1501.832	-1.908	-4.931	5.450	0.612	5.971	-7.120
432447.174	NaN	2.717	7.304	-4.935	1509.890	1498.901	1499.634	-1.985	-5.038	5.435	0.536	5.971	-7.349
432448.151	NaN	2.717	7.304	-4.935	1510.623	1498.901	1501.099	-2.076	-5.038	5.511	0.612	6.048	-7.196
432449.127	NaN	2.717	7.315	-4.946	1509.890	1499.634	1501.099	-1.985	-5.038	5.496	0.536	5.971	-7.273
432450.104	NaN	2.707	7.304	-4.957	1510.623	1498.901	1498.901	-1.832	-4.962	5.450	0.536	5.971	-7.349
432451.080	NaN	2.717	7.304	-4.946	1510.623	1499.634	1499.634	-2.015	-5.008	5.450	0.612	5.895	-7.273
432452.057	NaN	2.717	7.293	-4.946	1510.623	1499.634	1499.634	-2.107	-4.962	5.496	0.689	5.971	-7.273
432453.033	NaN	2.728	7.293	-4.946	1509.890	1498.901	1498.901	-1.985	-4.947	5.435	0.689	5.818	-7.273
432454.010	NaN	2.728	7.293	-4.924	1510.623	1499.634	1500.366	-1.985	-4.885	5.313	0.612	6.048	-7.273
432454.987	NaN	2.717	7.304	-4.924	1510.623	1499.634	1500.366	-1.863	-4.855	5.328	0.536	5.971	-7.349
432455.963	NaN	2.728	7.315	-4.924	1509.890	1499.634	1499.634	-1.908	-4.901	5.420	0.612	5.818	-7.196
432456.940	NaN	2.728	7.315	-4.935	1509.890	1498.901	1498.901	-1.725	-5.145	5.313	0.536	5.971	-7.426
432457.916	NaN	2.728	7.315	-4.935	1511.355	1499.634	1500.366	-1.863	-5.160	5.389	0.612	5.971	-7.426
432458.893	NaN	2.717	7.315	-4.946	1512.088	1500.366	1498.901	-1.679	-4.840	5.359	0.612	6.048	-7.196
432459.869	NaN	2.707	7.304	-4.957	1509.158	1498.901	1500.366	-1.664	-4.763	5.496	0.766	5.895	-7.273
432460.846	NaN	2.728	7.304	-4.946	1510.623	1500.366	1500.366	-1.802	-4.809	5.450	0.536	5.895	-7.349
432461.823	NaN	2.728	7.304	-4.946	1509.890	1499.634	1500.366	-2.000	-4.947	5.298	0.766	6.048	-7.426
432462.799	NaN	2.728	7.304	-4.935	1510.623	1499.634	1500.366	-2.061	-5.115	5.160	0.612	6.048	-7.426
432463.776	NaN	2.728	7.293	-4.935	1511.355	1499.634	1501.832	-2.107	-5.130	5.099	0.689	5.895	-7.196
432464.752	NaN	2.728	7.304	-4.946	1508.425	1498.901	1498.901	-1.969	-5.130	5.145	0.536	6.048	-7.349
432465.729	NaN	2.739	7.293	-4.935	1509.890	1500.366	1500.366	-1.908	-5.008	5.389	0.612	6.048	-7.273
432466.705	NaN	2.728	7.304	-4.946	1510.623	1499.634	1500.366	-2.000	-4.870	5.450	0.612	5.971	-7.273
432467.682	NaN	2.728	7.293	-4.946	1509.890	1498.901	1499.634	-1.740	-5.053	5.252	0.612	5.895	-7.196
432468.658	NaN	2.717	7.293	-4.957	1509.890	1500.366	1501.832	-1.634	-5.115	5.267	0.536	5.895	-7.120
432469.635	NaN	2.717	7.293	-4.967	1509.890	1498.901	1499.634	-1.939	-5.221	5.420	0.536	5.971	-7.196
432470.612	NaN	2.707	7.304	-4.957	1509.158	1498.901	1500.366	-2.229	-5.008	5.664	0.536	5.895	-7.349
432471.588	NaN	2.717	7.315	-4.957	1510.623	1499.634	1501.099	-2.198	-4.641	5.481	0.612	5.971	-7.196
432472.565	NaN	2.717	7.293	-4.957	1509.890	1499.634	1498.901	-1.908	-4.626	5.267	0.536	5.971	-7.273
432473.541	NaN	2.717	7.293	-4.946	1509.158	1499.634	1498.901	-1.954	-4.916	5.328	0.612	5.818	-7.273
432474.518	NaN	2.707	7.293	-4.935	1509.158	1500.366	1498.901	-2.015	-5.023	5.313	0.612	5.971	-7.349
432475.494	NaN	2.707	7.304	-4.924	1509.890	1499.634	1500.366	-1.969	-5.069	5.450	0.689	5.971	-7.426
432476.471	NaN	2.707	7.304	-4.924	1510.623	1499.634	1500.366	-2.015	-4.962	5.481	0.536	5.895	-7.349
432477.448	NaN	2.707	7.293	-4.935	1510.623	1498.168	1501.099	-1.969	-4.916	5.450	0.689	5.818	-7.043
432478.424	NaN	2.707	7.293	-4.946	1510.623	1499.634	1501.099	-2.122	-4.977	5.298	0.536	5.895	-7.273
432479.401	NaN	2.717	7.283	-4.946	1509.158	1499.634	1500.366	-2.122	-4.947	5.221	0.612	5.818	-7.273
432480.377	NaN	2.728	7.293	-4.935	1511.355	1499.634	1501.832	-2.076	-4.870	5.252	0.536	5.971	-8.498
432481.354	NaN	2.717	7.283	-4.935	1511.355	1499.634	1502.564	-2.046	-4.870	5.313	0.612	5.895	-7.196
432482.330	NaN	2.707	7.293	-4.935	1509.890	1498.901	1498.901	-2.076	-4.794	5.496	0.689	5.971	-7.349
432483.307	NaN	2.707	7.293	-4.935	1509.158	1500.366	1500.366	-1.878	-4.962	5.542	0.612	5.895	-7.273
432484.283	NaN	2.707	7.304	-4.935	1510.623	1498.901	1499.634	-1.786	-4.855	5.435	0.766	5.971	-7.349
432485.260	NaN	2.717	7.315	-4.924	1509.890	1499.634	1500.366	-1.756	-4.977	5.282	0.612	5.971	-7.273
432486.237	NaN	2.717	7.315	-4.924	1510.623	1499.634	1501.832	-1.878	-4.885	5.359	0.536	5.971	-7.273
432487.213	NaN	2.717	7.326	-4.935	1510.623	1499.634	1503.297	-1.954	-4.885	5.466	0.612	5.971	-8.498
432488.190	NaN	2.717	7.326	-4.935	1510.623	1499.634	1501.099	-1.954	-4.794	5.420	0.536	5.818	-7.273
432489.166	NaN	2.728	7.315	-4.935	1510.623	1499.634	1500.366	-2.122	-4.702	5.405	0.536	5.971	-7.273
432490.143	NaN	2.717	7.315	-4.924	1510.623	1500.366	1499.634	-2.015	-4.840	5.435	0.536	5.971	-7.196
432491.119	NaN	2.717	7.293	-4.935	1511.355	1499.634	1500.366	-2.076	-4.855	5.420	0.689	5.971	-7.273
432492.096	NaN	2.717	7.293	-4.935	1510.623	1500.366	1500.366	-2.153	-4.687	5.359	0.612	5.895	-7.196
432493.073	NaN	2.717	7.283	-4.924	1510.623	1500.366	1501.099	-2.000	-4.702	5.344	0.612	5.895	-7.273
432494.049	NaN	2.717	7.293	-4.913	1510.623	1500.366	1501.099	-1.939	-4.885	5.344	0.536	5.971	-7.273
432495.026	NaN	2.717	7.293	-4.913	1510.623	1499.634	1501.099	-1.954	-4.901	5.405	0.536	5.895	-7.196
432496.002	NaN	2.717	7.283	-4.935	1510.623	1499.634	1501.099	-2.168	-4.916	5.389	0.766	5.895	-7.120
432496.979	NaN	2.728	7.293	-4.924	1511.355	1500.366	1501.099	-2.107	-4.794	5.527	0.689	5.895	-7.196
432497.955	NaN	2.728	7.293	-4.924	1511.355	1499.634	1500.366	-2.031	-4.809	5.389	0.689	5.971	-7.273
432498.932	NaN	2.728	7.293	-4.924	1509.890	1500.366	1498.901	-1.878	-4.595	5.435	0.536	5.971	-7.273
432499.908	NaN	2.728	7.293	-4.924	1509.890	1500.366	1499.634	-1.985	-4.458	5.435	0.612	5.895	-7.502
432500.885	NaN	2.717	7.293	-4.924	1511.355	1499.634	1501.099	-1.710	-4.412	5.374	0.689	5.971	-7.273
432501.862	NaN	2.717	7.293	-4.946	1510.623	1498.901	1500.366	-1.847	-4.504	5.481	0.383	5.971	-7.426
432502.838	NaN	2.717	7.293	-4.935	1509.890	1499.634	1498.901	-2.153	-4.718	5.466	0.536	5.895	-7.426
432503.815	NaN	2.728	7.315	-4.924	1509.890	1499.634	1501.099	-2.290	-4.870	5.435	0.612	5.895	-7.349
432504.791	NaN	2.728	7.304	-4.935	1510.623	1500.366	1500.366	-2.153	-4.748	5.389	0.612	5.818	-7.273
432505.768	NaN	2.717	7.304	-4.935	1509.890	1499.634	1501.099	-2.153	-4.611	5.344	0.612	5.895	-7.349
432506.744	NaN	2.728	7.315	-4.924	1509.890	1499.634	1502.564	-2.000	-4.748	5.374	0.612	5.895	-7.273
432507.721	NaN	2.717	7.315	-4.935	1510.623	1499.634	1501.832	-1.939	-4.840	5.298	0.612	5.971	-7.273
432508.698	NaN	2.707	7.304	-4.935	1510.623	1498.901	1500.366	-1.878	-4.840	5.359	0.536	5.895	-7.349
432509.674	NaN	2.717	7.315	-4.935	1510.623	1501.099	1499.634	-1.924	-4.931	5.221	0.612	5.971	-7.349
432510.651	NaN	2.717	7.293	-4.946	1510.623	1499.634	1498.901	-1.939	-4.824	5.130	0.689	5.818	-7.349
432511.627	NaN	2.728	7.304	-4.924	1509.890	1500.366	1498.901	-1.832	-4.794	5.221	0.459	5.895	-7.273
432512.604	NaN	2.728	7.304	-4.924	1509.890	1500.366	1500.366	-1.908	-4.763	5.420	0.689	5.971	-7.196
432513.580	NaN	2.717	7.315	-4.935	1509.890	1498.168	1499.634	-1.786	-4.687	5.374	0.536	5.895	-7.273
432514.557	NaN	2.717	7.326	-4.935	1510.623	1499.634	1501.099	-1.756	-4.565	5.389	0.612	5.895	-7.273
432515.533	NaN	2.717	7.326	-4.967	1510.623	1499.634	1500.366	-2.000	-4.580	5.466	0.536	5.971	-7.273
432516.510	NaN	2.728	7.326	-4.946	1508.425	1498.901	1502.564	-2.046	-4.641	5.450	0.612	5.971	-7.349
432517.487	NaN	2.707	7.315	-4.946	1510.623	1499.634	1501.832	-1.985	-4.626	5.298	0.689	5.895	-7.426
432518.463	NaN	2.707	7.315	-4.957	1511.355	1499.634	1500.366	-1.969	-4.626	5.359	0.689	5.818	-7.349
432519.440	NaN	2.707	7.315	-4.946	1511.355	1499.634	1501.099	-2.000	-4.702	5.267	0.536	5.895	-8.421
432520.416	NaN	2.707	7.315	-4.946	1510.623	1499.634	1501.099	-2.061	-4.855	5.237	0.536	6.048	-7.196
432521.393	NaN	2.696	7.304	-4.957	1511.355	1499.634	1500.366	-1.985	-4.718	5.282	0.689	5.971	-7.196
432522.369	NaN	2.696	7.293	-4.957	1509.158	1499.634	1501.832	-1.954	-4.763	5.267	0.536	5.971	-7.196
432523.346	NaN	2.707	7.304	-4.957	1509.890	1500.366	1499.634	-2.076	-4.947	5.344	0.766	5.742	-7.120
432524.323	NaN	2.707	7.304	-4.957	1510.623	1499.634	1502.564	-2.046	-4.855	5.328	0.689	5.895	-7.273
432525.299	NaN	2.717	7.304	-4.946	1511.355	1499.634	1501.832	-1.939	-4.687	5.420	0.612	5.895	-7.196
432526.276	NaN	2.707	7.293	-4.935	1510.623	1499.634	1500.366	-1.924	-4.672	5.420	0.612	5.818	-7.349
432527.252	NaN	2.717	7.304	-4.946	1509.890	1498.901	1501.099	-1.969	-4.656	5.481	0.536	5.895	-7.349
432528.229	NaN	2.717	7.315	-4.946	1510.623	1499.634	1502.564	-2.046	-4.779	5.695	0.612	5.971	-7.349
432529.205	NaN	2.717	7.315	-4.946	1511.355	1499.634	1500.366	-2.076	-4.855	5.679	0.612	5.971	-7.349
432530.182	NaN	2.717	7.315	-4.946	1510.623	1499.634	1501.099	-2.183	-4.718	5.405	0.612	5.895	-7.196
432531.158	NaN	2.717	7.304	-4.946	1511.355	1499.634	1500.366	-2.397	-4.672	5.328	0.383	5.971	-7.273
432532.135	NaN	2.728	7.304	-4.946	1512.821	1499.634	1501.099	-2.198	-4.595	5.328	0.612	6.048	-7.349
432533.112	NaN	2.728	7.315	-4.935	1509.890	1499.634	1501.099	-1.969	-4.580	5.191	0.689	5.818	-7.426
432534.088	NaN	2.717	7.315	-4.935	1510.623	1499.634	1501.099	-2.061	-4.595	5.099	0.459	5.971	-7.273
432535.065	NaN	2.717	7.315	-4.935	1511.355	1498.901	1501.099	-2.214	-4.550	5.344	0.689	5.971	-7.426
432536.041	NaN	2.717	7.315	-4.946	1511.355	1499.634	1499.634	-2.107	-4.595	5.664	0.612	5.818	-7.273
432537.018	NaN	2.728	7.315	-4.924	1509.158	1498.901	1501.832	-2.015	-4.733	5.634	0.459	5.971	-7.426
432537.994	NaN	2.728	7.315	-4.924	1511.355	1498.901	1501.099	-1.878	-4.763	5.374	0.689	5.895	-7.273
432538.971	NaN	2.739	7.315	-4.913	1510.623	1499.634	1501.099	-1.924	-4.672	5.237	0.536	5.895	-7.196
432539.948	NaN	2.728	7.293	-4.924	1509.890	1499.634	1500.366	-1.969	-4.519	5.374	0.612	5.971	-7.273
432540.924	NaN	2.728	7.304	-4.946	1510.623	1500.366	1500.366	-1.924	-4.687	5.664	0.536	5.895	-7.349
432541.901	NaN	2.717	7.304	-4.946	1510.623	1498.901	1501.099	-1.954	-4.855	5.634	0.689	5.818	-7.349
432542.877	NaN	2.717	7.304	-4.935	1509.890	1498.901	1500.366	-1.985	-4.763	5.695	0.612	5.971	-7.196
432543.854	NaN	2.728	7.304	-4.935	1511.355	1499.634	1501.099	-2.076	-4.702	5.481	0.612	5.895	-7.273
432544.830	NaN	2.717	7.304	-4.946	1509.890	1498.168	1500.366	-2.229	-4.565	5.282	0.536	5.895	-6.124
432545.807	NaN	2.717	7.304	-4.924	1510.623	1500.366	1501.099	-2.321	-4.504	5.420	0.612	6.124	-7.349
432546.783	NaN	2.717	7.293	-4.946	1509.890	1499.634	1501.099	-2.092	-4.641	5.405	0.612	5.895	-7.273
432547.760	NaN	2.717	7.293	-4.935	1509.158	1499.634	1501.832	-1.786	-4.641	5.298	0.612	6.124	-7.349
432548.737	NaN	2.717	7.293	-4.935	1509.890	1500.366	1500.366	-1.664	-4.641	5.344	0.689	6.048	-7.273
432549.713	NaN	2.707	7.293	-4.946	1510.623	1499.634	1500.366	-1.695	-4.626	5.267	0.689	5.971	-7.273
432550.690	NaN	2.707	7.293	-4.946	1509.890	1499.634	1499.634	-1.954	-4.733	5.344	0.612	6.048	-7.273
432551.666	NaN	2.707	7.293	-4.935	1509.158	1498.901	1501.099	-1.817	-4.733	5.435	0.612	5.895	-7.349
432552.643	NaN	2.717	7.304	-4.935	1510.623	1499.634	1499.634	-1.634	-4.763	5.496	0.459	5.895	-7.273
432553.619	NaN	2.717	7.293	-4.957	1510.623	1498.901	1499.634	-1.863	-4.672	5.496	0.689	5.818	-7.196
432554.596	NaN	2.717	7.304	-4.957	1510.623	1500.366	1499.634	-2.107	-4.458	5.405	0.689	5.895	-7.196
432555.573	NaN	2.717	7.293	-4.957	1509.890	1500.366	1500.366	-2.061	-4.504	5.420	0.536	5.895	-7.196
432556.549	NaN	2.717	7.293	-4.957	1509.890	1498.901	1501.099	-2.031	-4.412	5.405	0.536	6.048	-7.273
432557.526	NaN	2.707	7.283	-4.946	1511.355	1500.366	1500.366	-1.908	-4.656	5.374	0.459	5.895	-7.349
432558.502	NaN	2.707	7.293	-4.935	1509.158	1498.901	1499.634	-1.740	-4.763	5.435	0.612	5.895	-7.273
432559.479	NaN	2.717	7.304	-4.902	1510.623	1500.366	1500.366	-1.817	-4.656	5.420	0.612	5.818	-7.502
432560.455	NaN	2.717	7.304	-4.902	1511.355	1500.366	1499.634	-1.985	-4.519	5.466	0.689	5.971	-7.120
432561.432	NaN	2.717	7.304	-4.913	1509.890	1500.366	1498.901	-2.183	-4.412	5.557	0.612	5.895	-7.273
432562.408	NaN	2.717	7.293	-4.924	1509.890	1499.634	1501.099	-2.076	-4.550	5.389	0.536	6.048	-7.196
432563.385	NaN	2.717	7.304	-4.935	1510.623	1499.634	1501.099	-2.031	-4.626	5.191	0.612	5.895	-7.273
432564.362	NaN	2.717	7.304	-4.924	1511.355	1499.634	1500.366	-1.985	-4.733	5.099	0.612	5.971	-7.349
432565.338	NaN	2.717	7.315	-4.935	1511.355	1498.901	1500.366	-2.092	-4.672	5.130	0.612	5.895	-7.273
432566.315	NaN	2.717	7.315	-4.935	1510.623	1500.366	1499.634	-2.137	-4.504	5.053	0.536	5.971	-7.273
432567.291	NaN	2.717	7.293	-4.946	1510.623	1499.634	1499.634	-2.214	-4.489	5.374	0.689	6.124	-7.273
432568.268	NaN	2.717	7.304	-4.935	1510.623	1501.099	1500.366	-2.137	-4.382	5.420	0.459	5.895	-7.196
432569.244	NaN	2.717	7.315	-4.946	1510.623	1500.366	1498.901	-1.908	-4.427	5.527	0.689	5.971	-7.426
432570.221	NaN	2.728	7.304	-4.935	1509.890	1500.366	1500.366	-1.817	-4.626	5.435	0.536	5.971	-7.273
432571.198	NaN	2.728	7.293	-4.924	1511.355	1499.634	1499.634	-1.725	-4.534	5.252	0.612	5.971	-7.273
432572.174	NaN	2.717	7.283	-4.935	1511.355	1500.366	1498.901	-1.649	-4.534	5.237	0.536	5.895	-7.196
432573.151	NaN	2.707	7.283	-4.935	1510.623	1498.901	1499.634	-1.802	-4.458	5.389	0.689	5.818	-7.349
432574.127	NaN	2.728	7.293	-4.913	1510.623	1499.634	1501.099	-1.878	-4.305	5.527	0.689	5.895	-7.349
432575.104	NaN	2.728	7.293	-4.924	1511.355	1500.366	1499.634	-2.076	-4.321	5.557	0.536	5.971	-7.120
432576.080	NaN	2.728	7.293	-4.935	1510.623	1498.168	1499.634	-2.061	-4.336	5.511	0.766	5.895	-7.273
432577.057	NaN	2.739	7.304	-4.924	1511.355	1500.366	1500.366	-1.908	-4.336	5.344	0.612	5.971	-7.273
432578.033	NaN	2.739	7.293	-4.924	1509.890	1500.366	1501.099	-1.908	-4.214	5.191	0.536	5.895	-7.349
432579.010	NaN	2.739	7.293	-4.924	1511.355	1500.366	1498.901	-2.061	-4.275	5.099	0.612	5.895	-7.349
432579.987	NaN	2.717	7.283	-4.935	1509.890	1498.901	1499.634	-1.893	-4.305	5.313	0.612	6.124	-7.273
432580.963	NaN	2.717	7.283	-4.935	1509.890	1499.634	1499.634	-1.893	-4.321	5.542	0.612	5.971	-7.349
432581.940	NaN	2.717	7.283	-4.946	1509.890	1499.634	1500.366	-1.847	-4.397	5.420	0.536	5.971	-7.426
432582.916	NaN	2.717	7.293	-4.935	1509.890	1498.901	1498.901	-1.878	-4.611	5.206	0.536	5.895	-7.196
432583.893	NaN	2.717	7.293	-4.924	1510.623	1500.366	1500.366	-2.092	-4.458	5.298	0.612	5.971	-8.498
432584.869	NaN	2.707	7.304	-4.946	1509.158	1498.901	1499.634	-2.015	-4.443	5.237	0.689	5.895	-7.273
432585.846	NaN	2.717	7.293	-4.935	1510.623	1500.366	1498.168	-1.740	-4.473	5.160	0.612	5.818	-7.426
432586.823	NaN	2.717	7.293	-4.935	1509.890	1499.634	1501.099	-1.695	-4.458	5.160	0.689	5.971	-7.196
432587.799	NaN	2.728	7.293	-4.924	1509.890	1499.634	1501.832	-1.740	-4.443	5.282	0.612	5.895	-7.273
432588.776	NaN	2.728	7.293	-4.924	1509.890	1498.901	1500.366	-2.260	-4.427	5.313	0.612	5.895	-7.349
432589.752	NaN	2.717	7.283	-4.913	1510.623	1499.634	1501.099	-2.351	-4.336	5.298	0.612	5.971	-7.273
432590.729	NaN	2.728	7.293	-4.913	1510.623	1500.366	1500.366	-1.817	-4.336	5.252	0.689	5.971	-7.273
432591.705	NaN	2.717	7.304	-4.913	1511.355	1498.901	1501.099	-1.740	-4.427	5.252	0.689	5.971	-7.349
432592.682	NaN	2.728	7.315	-4.924	1510.623	1500.366	1498.901	-1.679	-4.397	5.344	0.612	5.895	-7.426
432593.658	NaN	2.728	7.315	-4.935	1509.890	1499.634	1501.099	-1.893	-4.275	5.237	0.536	5.895	-7.273
432594.635	NaN	2.728	7.315	-4.935	1509.890	1500.366	1500.366	-1.725	-4.397	5.084	0.689	5.971	-7.426
432595.612	NaN	2.717	7.315	-4.935	1510.623	1499.634	1500.366	-1.664	-4.595	5.023	0.536	6.048	-7.273
432596.588	NaN	2.728	7.315	-4.935	1511.355	1500.366	1500.366	-1.679	-4.550	5.344	0.612	5.818	-7.196
432597.565	NaN	2.717	7.315	-4.946	1510.623	1498.901	1501.832	-1.817	-4.504	5.557	0.612	5.895	-7.196
432598.541	NaN	2.717	7.315	-4.957	1510.623	1499.634	1500.366	-1.924	-4.382	5.389	0.612	5.971	-7.273
432599.518	NaN	2.707	7.304	-4.946	1510.623	1498.901	1500.366	-2.031	-4.427	5.237	0.689	5.971	-7.502
432600.494	NaN	2.707	7.304	-4.935	1509.158	1499.634	1500.366	-2.031	-4.611	5.328	0.689	5.895	-7.273
432601.471	NaN	2.707	7.293	-4.935	1509.890	1500.366	1499.634	-2.122	-4.427	5.405	0.536	5.895	-7.273
432602.448	NaN	2.717	7.293	-4.935	1510.623	1500.366	1499.634	-1.664	-4.336	5.191	0.536	5.895	-7.273
432603.424	NaN	2.707	7.293	-4.946	1511.355	1500.366	1500.366	-1.634	-4.458	5.099	0.612	5.971	-7.196
432604.401	NaN	2.707	7.304	-4.946	1511.355	1499.634	1501.099	-1.847	-4.443	5.145	0.612	5.895	-7.349
432605.377	NaN	2.717	7.315	-4.935	1510.623	1500.366	1499.634	-2.046	-4.397	5.145	0.689	5.895	-7.273
432606.354	NaN	2.717	7.304	-4.935	1511.355	1499.634	1501.099	-1.908	-4.427	5.084	0.689	5.895	-7.273
432607.330	NaN	2.717	7.293	-4.946	1510.623	1499.634	1502.564	-1.511	-4.305	5.252	0.766	5.971	-7.273
432608.307	NaN	2.717	7.315	-4.946	1511.355	1500.366	1500.366	-1.710	-4.260	5.313	0.536	5.971	-7.273
432609.283	NaN	2.717	7.315	-4.935	1511.355	1499.634	1500.366	-2.031	-4.305	5.313	0.612	5.971	-7.273
432610.260	NaN	2.717	7.326	-4.935	1509.890	1499.634	1501.099	-1.817	-4.366	5.099	0.459	6.048	-7.349
432611.237	3736842734.541	2.717	7.315	-4.935	1509.890	1500.366	1500.366	-1.847	-4.504	5.237	0.612	5.971	-7.426
432612.213	NaN	2.717	7.304	-4.935	1511.355	1500.366	1500.366	-2.000	-4.534	5.313	0.689	5.742	-7.120
432613.190	NaN	2.717	7.293	-4.935	1509.890	1499.634	1501.099	-1.954	-4.550	5.237	0.689	5.971	-7.120
432614.166	NaN	2.717	7.293	-4.946	1511.355	1499.634	1501.099	-2.031	-4.366	5.282	0.689	5.971	-7.349
432615.143	NaN	2.728	7.304	-4.946	1509.890	1499.634	1498.901	-2.031	-4.321	5.145	0.612	5.895	-7.196
432616.119	NaN	2.728	7.283	-4.946	1510.623	1499.634	1500.366	-1.924	-4.534	5.160	0.612	5.971	-6.124
432617.096	NaN	2.728	7.293	-4.946	1509.890	1500.366	1500.366	-2.137	-4.504	5.374	0.459	5.895	-7.426
432618.073	NaN	2.717	7.293	-4.935	1510.623	1499.634	1499.634	-2.046	-4.412	5.496	0.612	6.048	-7.273
432619.049	NaN	2.728	7.293	-4.946	1509.890	1499.634	1500.366	-1.878	-4.473	5.450	0.766	5.971	-7.196
432620.026	NaN	2.728	7.304	-4.946	1511.355	1498.901	1500.366	-1.969	-4.458	5.252	0.536	5.818	-7.349
432621.002	NaN	2.728	7.304	-4.946	1510.623	1499.634	1500.366	-2.031	-4.458	5.160	0.689	5.895	-7.196
432621.979	NaN	2.728	7.304	-4.924	1511.355	1499.634	1500.366	-1.725	-4.412	5.160	0.612	5.895	-7.273
432622.955	NaN	2.728	7.304	-4.924	1509.890	1499.634	1500.366	-1.573	-4.382	5.344	0.612	5.895	-8.498
432623.932	NaN	2.728	7.304	-4.924	1510.623	1499.634	1501.099	-1.618	-4.443	5.435	0.612	6.048	-7.349
432624.908	NaN	2.717	7.304	-4.935	1510.623	1498.901	1498.168	-1.878	-4.443	5.389	0.612	5.971	-7.349
432625.885	NaN	2.728	7.293	-4.935	1511.355	1500.366	1501.099	-2.015	-4.443	5.221	0.689	5.971	-7.120
432626.862	NaN	2.728	7.283	-4.924	1510.623	1500.366	1498.901	-2.031	-4.641	5.038	0.612	5.818	-7.196
432627.838	NaN	2.739	7.283	-4.924	1509.890	1499.634	1500.366	-2.107	-4.626	5.099	0.536	5.971	-7.273
432628.815	NaN	2.739	7.293	-4.913	1509.890	1500.366	1498.901	-1.908	-4.473	5.298	0.612	5.971	-7.120
432629.791	NaN	2.739	7.293	-4.924	1511.355	1498.901	1499.634	-1.924	-4.336	5.389	0.536	6.048	-7.196
432630.768	NaN	2.739	7.283	-4.913	1510.623	1499.634	1501.832	-1.847	-4.336	5.298	0.536	5.895	-7.273
432631.744	NaN	2.739	7.293	-4.924	1510.623	1500.366	1500.366	-1.832	-4.214	5.267	0.689	5.895	-7.273
432632.721	NaN	2.739	7.293	-4.946	1509.890	1500.366	1500.366	-1.832	-4.198	5.282	0.689	5.971	-7.349
432633.698	NaN	2.739	7.293	-4.946	1509.890	1499.634	1501.099	-1.878	-4.061	5.069	0.612	5.971	-7.349
432634.674	NaN	2.717	7.304	-4.946	1511.355	1499.634	1500.366	-2.107	-4.260	4.992	0.689	5.971	-7.196
432635.651	NaN	2.717	7.315	-4.946	1510.623	1500.366	1499.634	-2.046	-4.458	5.313	0.536	5.895	-7.349
432636.627	NaN	2.717	7.315	-4.935	1510.623	1500.366	1500.366	-1.908	-4.427	5.359	0.536	5.818	-7.120
432637.604	NaN	2.707	7.315	-4.935	1510.623	1499.634	1501.099	-1.893	-4.275	5.160	0.612	5.971	-7.120
432638.580	NaN	2.696	7.315	-4.935	1510.623	1499.634	1500.366	-2.061	-4.321	5.084	0.612	5.895	-7.273
432639.557	NaN	2.707	7.315	-4.924	1512.088	1500.366	1499.634	-1.939	-4.489	4.977	0.612	5.895	-7.273
432640.533	NaN	2.707	7.315	-4.913	1510.623	1499.634	1501.832	-1.954	-4.427	5.038	0.612	5.895	-7.349
432641.510	NaN	2.707	7.326	-4.913	1511.355	1499.634	1500.366	-1.908	-4.275	5.053	0.689	5.895	-7.273
432642.487	NaN	2.707	7.304	-4.913	1511.355	1499.634	1500.366	-2.000	-4.351	5.130	0.689	5.895	-7.273
432643.463	NaN	2.707	7.315	-4.935	1510.623	1499.634	1500.366	-1.740	-4.153	5.191	0.612	5.895	-7.349
432644.440	NaN	2.717	7.304	-4.924	1510.623	1501.099	1500.366	-1.511	-4.107	5.252	0.459	5.895	-7.349
432645.416	NaN	2.717	7.315	-4.946	1510.623	1499.634	1498.901	-1.649	-4.305	5.053	0.612	5.971	-7.196
432646.393	NaN	2.717	7.293	-4.935	1511.355	1498.901	1499.634	-1.863	-4.519	4.870	0.612	5.818	-7.273
432647.369	NaN	2.717	7.293	-4.935	1509.890	1498.901	1501.099	-2.137	-4.382	4.794	0.536	6.048	-7.273
432648.346	NaN	2.707	7.293	-4.935	1509.158	1498.901	1500.366	-2.015	-4.244	4.885	0.536	5.895	-6.124
432649.323	NaN	2.717	7.304	-4.924	1509.890	1498.901	1500.366	-1.939	-4.397	5.053	0.612	5.971	-7.273
432650.299	NaN	2.728	7.293	-4.935	1509.890	1499.634	1501.832	-1.939	-4.504	5.069	0.689	5.971	-7.426
432651.276	NaN	2.739	7.293	-4.913	1509.890	1498.901	1501.099	-1.878	-4.412	5.221	0.612	5.818	-7.196
432652.252	NaN	2.728	7.293	-4.935	1511.355	1499.634	1500.366	-1.924	-4.305	5.267	0.612	5.971	-7.349
432653.229	NaN	2.728	7.293	-4.946	1509.158	1499.634	1498.901	-1.802	-4.336	5.130	0.612	5.971	-7.196
432654.205	NaN	2.728	7.293	-4.935	1509.890	1499.634	1500.366	-2.183	-4.351	4.962	0.766	5.971	-7.349
432655.182	NaN	2.717	7.293	-4.946	1509.890	1499.634	1499.634	-2.397	-4.305	4.779	0.536	5.895	-7.273
432656.158	NaN	2.717	7.283	-4.935	1509.890	1498.168	1500.366	-1.969	-4.321	4.824	0.689	5.971	-7.196
432657.135	NaN	2.717	7.293	-4.946	1510.623	1499.634	1501.832	-1.817	-4.229	4.931	0.536	5.971	-7.349
432658.112	NaN	2.717	7.283	-4.957	1508.425	1498.901	1500.366	-1.802	-4.244	5.115	0.612	5.818	-7.196
432659.088	NaN	2.728	7.293	-4.946	1510.623	1499.634	1500.366	-1.985	-4.092	5.160	0.612	5.895	-7.426
432660.065	NaN	2.717	7.293	-4.946	1509.890	1499.634	1500.366	-1.878	-4.351	5.069	0.612	5.895	-7.349
432661.041	NaN	2.707	7.283	-4.957	1510.623	1499.634	1499.634	-1.710	-4.748	4.992	0.536	6.048	-7.120
432662.018	NaN	2.717	7.283	-4.946	1511.355	1499.634	1500.366	-1.527	-4.687	4.748	0.536	5.895	-7.273
432662.994	NaN	2.717	7.283	-4.957	1510.623	1499.634	1501.099	-1.573	-4.473	4.779	0.689	5.895	-7.426
432663.971	NaN	2.717	7.304	-4.946	1508.425	1498.901	1501.099	-1.710	-4.336	4.916	0.536	6.048	-7.349
432664.948	NaN	2.707	7.304	-4.946	1509.890	1499.634	1499.634	-1.802	-4.366	5.084	0.689	6.124	-7.196
432665.924	NaN	2.717	7.304	-4.946	1509.890	1498.901	1501.099	-1.817	-4.458	4.992	0.689	5.895	-7.120
432666.901	NaN	2.728	7.315	-4.935	1510.623	1500.366	1500.366	-1.847	-4.458	4.931	0.612	5.971	-7.349
432667.877	NaN	2.728	7.304	-4.946	1511.355	1498.901	1501.099	-1.847	-4.412	5.130	0.689	5.818	-7.273
432668.854	NaN	2.728	7.315	-4.957	1509.890	1499.634	1498.901	-1.893	-4.565	5.252	0.459	5.818	-7.273
432669.830	NaN	2.728	7.315	-4.946	1509.890	1498.901	1498.901	-2.000	-4.366	5.191	0.459	5.971	-7.273
432670.807	NaN	2.728	7.315	-4.946	1509.890	1498.901	1499.634	-2.107	-4.336	5.023	0.612	5.971	-7.349
432671.783	NaN	2.739	7.315	-4.935	1512.088	1499.634	1500.366	-1.863	-4.519	4.962	0.612	5.818	-7.273
432672.760	NaN	2.728	7.326	-4.924	1510.623	1500.366	1500.366	-1.756	-4.397	4.794	0.612	5.895	-7.273
432673.737	NaN	2.728	7.304	-4.935	1511.355	1498.901	1501.099	-1.771	-4.397	4.901	0.612	5.818	-7.196
432674.713	NaN	2.717	7.315	-4.935	1509.890	1500.366	1499.634	-1.939	-4.305	4.947	0.536	5.971	-7.196
432675.690	NaN	2.728	7.304	-4.913	1510.623	1499.634	1501.832	-2.122	-4.412	4.809	0.612	5.971	-7.426
432676.666	NaN	2.739	7.304	-4.913	1509.890	1500.366	1499.634	-1.893	-4.458	4.733	0.536	6.124	-7.196
432677.643	NaN	2.728	7.293	-4.924	1510.623	1499.634	1501.099	-1.527	-4.397	4.916	0.612	6.048	-7.196
432678.619	NaN	2.717	7.293	-4.924	1509.890	1499.634	1500.366	-1.313	-4.305	5.023	0.689	5.971	-7.196
432679.596	NaN	2.717	7.315	-4.913	1511.355	1500.366	1500.366	-1.679	-4.412	5.099	0.612	5.818	-7.196
432680.573	NaN	2.707	7.326	-4.924	1509.890	1498.901	1500.366	-2.015	-4.473	5.084	0.689	6.124	-7.196
432681.549	NaN	2.728	7.315	-4.902	1509.158	1499.634	1501.099	-2.183	-4.412	5.130	0.536	5.818	-7.120
432682.526	NaN	2.728	7.315	-4.913	1510.623	1499.634	1501.099	-2.076	-4.504	4.947	0.536	5.971	-7.196
432683.502	NaN	2.739	7.315	-4.924	1510.623	1499.634	1501.099	-1.847	-4.565	4.702	0.536	5.971	-7.120
432684.479	NaN	2.739	7.326	-4.913	1510.623	1498.901	1500.366	-1.725	-4.702	4.626	0.766	6.048	-7.196
432685.455	NaN	2.739	7.326	-4.924	1510.623	1500.366	1500.366	-1.893	-4.626	4.947	0.689	5.895	-7.273
432686.432	NaN	2.739	7.326	-4.935	1511.355	1499.634	1501.099	-2.015	-4.427	5.221	0.766	5.971	-7.349
432687.408	NaN	2.728	7.304	-4.946	1509.890	1499.634	1500.366	-1.832	-4.397	4.977	0.612	6.124	-7.196
432688.385	NaN	2.728	7.293	-4.935	1510.623	1499.634	1500.366	-1.695	-4.397	4.626	0.612	6.048	-7.273
432689.362	NaN	2.717	7.293	-4.924	1510.623	1500.366	1501.099	-1.710	-4.382	4.534	0.689	5.818	-7.273
432690.338	NaN	2.717	7.293	-4.924	1509.890	1500.366	1500.366	-1.908	-4.550	4.748	0.612	5.971	-7.196
432691.315	NaN	2.728	7.304	-4.913	1509.890	1499.634	1501.099	-2.107	-4.443	4.947	0.612	5.971	-7.349
432692.291	NaN	2.728	7.293	-4.924	1510.623	1498.901	1501.832	-2.153	-4.412	4.763	0.689	5.971	-7.273
432693.268	NaN	2.739	7.304	-4.924	1511.355	1499.634	1500.366	-2.107	-4.275	4.702	0.689	5.895	-7.349
432694.244	NaN	2.728	7.315	-4.924	1511.355	1499.634	1499.634	-2.046	-4.397	4.824	0.612	6.048	-7.349
432695.221	NaN	2.728	7.304	-4.935	1509.890	1499.634	1499.634	-2.168	-4.458	4.931	0.612	5.895	-7.349
432696.198	NaN	2.728	7.304	-4.935	1509.890	1499.634	1500.366	-1.954	-4.382	4.962	0.536	5.895	-7.273
432697.174	NaN	2.717	7.315	-4.935	1509.890	1500.366	1500.366	-1.817	-4.290	4.870	0.689	5.895	-7.273
432698.151	NaN	2.717	7.315	-4.924	1510.623	1499.634	1500.366	-1.695	-4.458	4.824	0.689	5.818	-7.349
432699.127	NaN	2.728	7.304	-4.924	1509.890	1499.634	1500.366	-1.725	-4.519	4.763	0.536	5.818	-7.196
432700.104	NaN	2.728	7.304	-4.913	1510.623	1499.634	1500.366	-1.817	-4.626	4.901	0.612	5.818	-7.196
432701.080	NaN	2.717	7.283	-4.946	1511.355	1498.901	1501.099	-1.771	-4.550	4.916	0.536	5.971	-7.273
432704.010	NaN	2.728	7.293	-4.935	1511.355	1499.634	1501.099	-2.107	-4.565	4.534	0.536	5.895	-7.349
432704.987	NaN	2.739	7.293	-4.924	1509.890	1499.634	1499.634	-2.092	-4.366	4.794	0.612	5.971	-7.349
432705.963	NaN	2.739	7.283	-4.935	1509.890	1499.634	1500.366	-2.000	-4.351	4.855	0.689	6.048	-7.196
432706.940	NaN	2.739	7.304	-4.935	1509.890	1500.366	1501.832	-2.000	-4.489	4.748	0.612	6.048	-7.349
432707.916	NaN	2.739	7.315	-4.935	1509.890	1499.634	1500.366	-1.832	-4.656	4.763	0.612	5.895	-7.349
432708.893	NaN	2.739	7.315	-4.935	1509.158	1499.634	1501.099	-1.664	-4.687	4.641	0.536	5.971	-7.426
432709.869	NaN	2.728	7.304	-4.935	1511.355	1499.634	1500.366	-1.710	-4.580	4.519	0.689	5.818	-7.196
432710.846	NaN	2.739	7.315	-4.935	1512.088	1500.366	1500.366	-1.786	-4.366	4.534	0.766	5.895	-7.196
432711.823	NaN	2.739	7.315	-4.935	1510.623	1499.634	1500.366	-1.664	-4.305	4.611	0.689	5.971	-7.196
432712.799	NaN	2.728	7.315	-4.924	1509.890	1501.099	1500.366	-1.695	-4.580	4.473	0.612	5.971	-7.196
432713.776	NaN	2.728	7.304	-4.924	1510.623	1498.901	1499.634	-1.817	-4.687	4.550	0.766	5.895	-7.349
432714.752	NaN	2.707	7.304	-4.935	1510.623	1499.634	1499.634	-1.954	-4.580	4.718	0.612	5.895	-7.273
432715.729	NaN	2.717	7.304	-4.935	1510.623	1501.099	1500.366	-1.969	-4.366	4.641	0.766	5.895	-7.273
432716.705	NaN	2.717	7.315	-4.924	1509.890	1500.366	1498.901	-1.954	-4.351	4.489	0.383	5.895	-7.120
432717.682	NaN	2.707	7.304	-4.946	1510.623	1499.634	1501.099	-1.847	-4.336	4.626	0.766	5.971	-7.426
432718.658	NaN	2.707	7.304	-4.924	1509.890	1498.901	1500.366	-1.863	-4.382	4.534	0.536	5.895	-7.349
432719.635	NaN	2.717	7.326	-4.935	1509.158	1500.366	1500.366	-1.908	-4.443	4.580	0.612	5.971	-7.196
432720.612	NaN	2.728	7.315	-4.924	1509.890	1500.366	1500.366	-1.878	-4.565	4.534	0.689	5.895	-7.273
432721.588	NaN	2.728	7.304	-4.924	1512.088	1499.634	1502.564	-2.031	-4.550	4.626	0.689	5.895	-7.273
432722.565	NaN	2.728	7.293	-4.935	1509.890	1500.366	1499.634	-2.076	-4.366	4.550	0.612	5.818	-7.273
432723.541	NaN	2.728	7.293	-4.935	1510.623	1500.366	1500.366	-2.031	-4.504	4.534	0.536	5.895	-7.196
432725.494	NaN	2.728	7.304	-4.902	1509.890	1499.634	1500.366	-2.183	-4.565	4.855	0.612	5.895	-7.426
432726.471	NaN	2.728	7.304	-4.913	1510.623	1501.099	1499.634	-2.031	-4.489	4.779	0.612	5.895	-7.273
432727.448	NaN	2.707	7.293	-4.924	1510.623	1499.634	1500.366	-1.969	-4.473	4.641	0.536	5.971	-7.273
432728.424	NaN	2.707	7.304	-4.935	1509.890	1498.901	1499.634	-1.924	-4.580	4.473	0.689	5.895	-7.349
432729.401	NaN	2.717	7.304	-4.935	1511.355	1498.901	1500.366	-1.893	-4.626	4.351	0.612	5.971	-7.273
432730.377	NaN	2.717	7.304	-4.946	1510.623	1499.634	1501.832	-2.092	-4.534	4.336	0.536	5.895	-7.196
432731.354	NaN	2.717	7.304	-4.946	1510.623	1499.634	1500.366	-2.229	-4.443	4.427	0.536	5.818	-7.273
432732.330	NaN	2.707	7.304	-4.946	1510.623	1498.901	1501.832	-1.969	-4.397	4.656	0.612	5.895	-7.426
432733.307	NaN	2.728	7.304	-4.935	1508.425	1499.634	1501.832	-1.939	-4.351	4.824	0.612	5.971	-7.273
432734.283	NaN	2.728	7.293	-4.935	1511.355	1499.634	1498.901	-1.893	-4.290	4.824	0.536	5.895	-7.426
432735.260	NaN	2.728	7.293	-4.935	1511.355	1498.168	1501.832	-1.832	-4.366	4.519	0.612	6.048	-7.196
432736.237	3736842734.693	2.717	7.304	-4.946	1509.890	1499.634	1501.832	-1.939	-4.656	4.611	0.536	5.895	-7.426
432737.213	NaN	2.728	7.304	-4.935	1510.623	1500.366	1500.366	-1.985	-4.794	4.687	0.689	5.895	-7.273
432738.190	NaN	2.717	7.315	-4.935	1509.890	1498.901	1500.366	-1.969	-4.824	4.519	0.612	5.818	-7.273
432739.166	NaN	2.728	7.315	-4.924	1509.158	1499.634	1500.366	-1.908	-4.733	4.336	0.689	5.971	-7.426
432740.143	NaN	2.728	7.315	-4.924	1509.890	1499.634	1499.634	-1.908	-4.656	4.290	0.612	5.895	-7.273
432741.119	NaN	2.717	7.304	-4.924	1510.623	1498.901	1501.832	-2.107	-4.687	4.336	0.612	5.895	-7.273
432742.096	NaN	2.728	7.304	-4.924	1510.623	1499.634	1500.366	-2.183	-4.641	4.427	0.536	6.048	-7.273
432743.073	NaN	2.728	7.304	-4.924	1511.355	1499.634	1500.366	-2.214	-4.595	4.382	0.612	5.895	-7.196
432744.049	NaN	2.717	7.293	-4.913	1509.890	1499.634	1501.099	-2.153	-4.733	4.504	0.612	5.971	-7.273
432745.026	NaN	2.717	7.304	-4.902	1509.890	1499.634	1501.099	-1.878	-4.779	4.580	0.612	5.818	-7.196
432746.002	NaN	2.717	7.293	-4.913	1510.623	1500.366	1500.366	-1.802	-4.702	4.534	0.612	5.818	-7.273
432746.979	NaN	2.717	7.293	-4.913	1510.623	1498.901	1499.634	-2.061	-4.779	4.489	0.766	5.742	-7.426
432747.955	NaN	2.728	7.304	-4.902	1511.355	1499.634	1501.832	-2.275	-4.611	4.321	0.689	6.048	-7.196
432748.932	NaN	2.728	7.304	-4.902	1510.623	1500.366	1500.366	-2.031	-4.458	4.443	0.459	5.971	-7.196
432749.908	NaN	2.717	7.293	-4.902	1510.623	1499.634	1500.366	-1.908	-4.473	4.382	0.612	5.895	-7.273
432750.885	NaN	2.717	7.293	-4.913	1511.355	1500.366	1501.099	-1.939	-4.565	4.458	0.689	5.971	-7.273
432751.862	NaN	2.717	7.304	-4.913	1510.623	1499.634	1500.366	-2.076	-4.641	4.550	0.612	5.971	-8.498
432752.838	NaN	2.717	7.304	-4.913	1510.623	1499.634	1501.099	-2.046	-4.840	4.550	0.536	5.895	-7.196
432753.815	NaN	2.728	7.315	-4.913	1509.890	1499.634	1501.099	-1.740	-4.840	4.260	0.612	5.971	-7.196
432754.791	NaN	2.717	7.304	-4.913	1510.623	1498.901	1499.634	-1.710	-4.534	4.260	0.689	5.895	-7.273
432755.768	NaN	2.728	7.315	-4.902	1509.890	1499.634	1501.099	-2.107	-4.565	4.412	0.536	5.895	-7.273
432756.744	NaN	2.728	7.304	-4.913	1511.355	1499.634	1500.366	-2.229	-4.641	4.565	0.536	5.742	-7.349
432757.721	NaN	2.717	7.304	-4.924	1510.623	1498.168	1500.366	-2.107	-4.687	4.595	0.689	5.971	-7.273
432758.698	NaN	2.728	7.293	-4.935	1510.623	1499.634	1501.099	-1.939	-4.718	4.534	0.612	5.895	-7.349
432759.674	NaN	2.717	7.293	-4.935	1509.890	1500.366	1500.366	-1.908	-4.565	4.443	0.689	5.895	-7.273
432760.651	NaN	2.707	7.293	-4.924	1511.355	1499.634	1501.099	-1.771	-4.550	4.397	0.612	6.048	-7.196
432761.627	NaN	2.707	7.304	-4.946	1510.623	1498.901	1500.366	-1.802	-4.550	4.336	0.612	5.895	-7.273
432762.604	NaN	2.707	7.293	-4.935	1508.425	1499.634	1499.634	-2.229	-4.458	4.443	0.612	5.971	-7.196
432763.580	NaN	2.717	7.304	-4.946	1509.890	1498.901	1500.366	-2.168	-4.580	4.519	0.689	6.048	-7.273
432764.557	NaN	2.717	7.315	-4.924	1511.355	1499.634	1501.099	-2.031	-4.550	4.565	0.536	5.895	-7.349
432765.533	NaN	2.707	7.315	-4.924	1510.623	1500.366	1500.366	-2.168	-4.519	4.656	0.536	5.895	-7.349
432766.510	NaN	2.707	7.315	-4.935	1510.623	1499.634	1501.099	-2.275	-4.595	4.336	0.689	5.971	-7.196
432767.487	NaN	2.717	7.304	-4.935	1510.623	1498.901	1499.634	-2.229	-4.763	4.137	0.536	5.971	-7.273
432768.463	NaN	2.717	7.304	-4.946	1510.623	1499.634	1501.099	-2.107	-4.641	4.214	0.459	5.895	-7.426
432769.440	NaN	2.717	7.293	-4.946	1509.890	1498.901	1498.901	-2.061	-4.611	4.275	0.689	5.895	-7.349
432770.416	NaN	2.739	7.283	-4.935	1510.623	1500.366	1500.366	-2.046	-4.611	4.229	0.612	5.971	-7.273
432771.393	NaN	2.728	7.293	-4.924	1509.890	1500.366	1499.634	-2.031	-4.626	4.260	0.536	6.048	-7.273
432772.369	NaN	2.728	7.283	-4.946	1509.890	1499.634	1500.366	-2.000	-4.489	4.229	0.536	5.895	-7.349
432773.346	NaN	2.728	7.304	-4.935	1511.355	1500.366	1499.634	-2.137	-4.626	4.275	0.459	5.895	-7.349
432774.323	NaN	2.728	7.304	-4.913	1510.623	1499.634	1500.366	-2.046	-4.687	4.214	0.766	5.895	-7.120
432775.299	NaN	2.717	7.315	-4.913	1511.355	1499.634	1501.099	-2.092	-4.626	4.260	0.536	5.971	-7.273
432776.276	NaN	2.717	7.315	-4.913	1510.623	1498.168	1501.099	-2.198	-4.672	4.321	0.689	5.895	-7.196
432777.252	NaN	2.717	7.315	-4.924	1511.355	1499.634	1501.099	-2.107	-4.565	4.076	0.612	5.895	-7.196
432778.229	NaN	2.739	7.315	-4.924	1511.355	1499.634	1502.564	-2.122	-4.611	4.031	0.612	6.048	-7.426
432779.205	NaN	2.739	7.315	-4.924	1510.623	1499.634	1500.366	-2.000	-4.580	4.061	0.612	5.818	-7.273
432780.182	NaN	2.728	7.315	-4.913	1509.890	1498.901	1500.366	-2.275	-4.580	4.336	0.612	5.895	-7.273
432781.158	NaN	2.717	7.304	-4.924	1508.425	1498.901	1499.634	-2.198	-4.534	4.443	0.689	5.971	-7.273
432782.135	NaN	2.728	7.293	-4.924	1511.355	1500.366	1500.366	-1.985	-4.489	4.504	0.689	5.895	-7.273
432783.112	NaN	2.717	7.293	-4.924	1510.623	1498.901	1500.366	-1.878	-4.595	4.473	0.612	5.742	-7.349
432784.088	NaN	2.728	7.293	-4.913	1510.623	1499.634	1499.634	-1.924	-4.748	4.382	0.536	5.895	-7.273
432785.065	NaN	2.728	7.283	-4.935	1509.890	1500.366	1500.366	-2.092	-4.672	4.015	0.612	5.971	-7.349
432786.041	NaN	2.717	7.283	-4.946	1509.890	1498.901	1499.634	-2.214	-4.580	3.985	0.612	5.895	-7.273
432787.018	NaN	2.728	7.293	-4.924	1510.623	1500.366	1498.901	-1.847	-4.656	4.137	0.536	5.971	-7.273
432787.994	NaN	2.728	7.283	-4.935	1509.890	1500.366	1499.634	-1.878	-4.519	4.275	0.689	5.971	-7.273
432788.971	NaN	2.717	7.293	-4.935	1510.623	1498.901	1501.099	-2.183	-4.565	4.458	0.612	5.818	-7.426
432789.948	NaN	2.717	7.293	-4.935	1509.890	1498.168	1499.634	-2.260	-4.748	4.198	0.459	5.971	-7.196
432790.924	NaN	2.717	7.293	-4.935	1510.623	1499.634	1501.099	-2.260	-4.794	4.275	0.536	5.971	-7.196
432791.901	NaN	2.728	7.293	-4.924	1510.623	1499.634	1501.832	-2.183	-4.656	4.412	0.766	5.818	-7.273
432792.877	NaN	2.717	7.293	-4.924	1510.623	1499.634	1502.564	-2.168	-4.656	4.473	0.612	5.971	-7.196
432793.854	NaN	2.728	7.293	-4.924	1510.623	1498.901	1501.099	-2.061	-4.519	4.122	0.536	5.895	-7.196
432794.830	NaN	2.728	7.293	-4.935	1510.623	1498.901	1500.366	-1.908	-4.550	3.969	0.689	5.971	-7.273
432795.807	NaN	2.717	7.293	-4.935	1509.890	1498.901	1501.099	-2.229	-4.504	4.046	0.689	5.971	-7.273
432796.783	NaN	2.728	7.283	-4.935	1510.623	1500.366	1500.366	-2.321	-4.702	4.168	0.459	5.971	-7.273
432797.760	NaN	2.717	7.272	-4.935	1509.890	1500.366	1499.634	-2.122	-4.641	4.198	0.689	5.818	-7.502
432798.737	NaN	2.728	7.283	-4.946	1508.425	1499.634	1500.366	-2.244	-4.504	4.153	0.689	5.742	-7.273
432799.713	NaN	2.717	7.283	-4.946	1509.890	1500.366	1500.366	-2.122	-4.489	4.183	0.536	5.971	-7.196
432800.690	NaN	2.717	7.293	-4.946	1510.623	1499.634	1501.832	-2.015	-4.565	4.137	0.536	5.895	-7.349
432801.666	NaN	2.717	7.293	-4.946	1509.890	1499.634	1501.099	-2.107	-4.473	3.924	0.536	5.895	-7.196
432802.643	NaN	2.707	7.283	-4.946	1509.890	1498.901	1500.366	-2.275	-4.626	3.893	0.536	5.895	-7.349
432803.619	NaN	2.707	7.283	-4.935	1509.890	1499.634	1500.366	-2.260	-4.718	4.183	0.689	5.971	-7.349
432804.596	NaN	2.717	7.293	-4.946	1511.355	1500.366	1500.366	-2.290	-4.641	4.382	0.689	6.124	-7.349
432805.573	NaN	2.717	7.293	-4.946	1510.623	1498.901	1501.099	-2.076	-4.458	4.153	0.612	5.971	-7.120
432806.549	NaN	2.717	7.293	-4.946	1510.623	1499.634	1500.366	-2.000	-4.565	4.092	0.612	5.895	-7.273
432807.526	NaN	2.728	7.293	-4.957	1510.623	1499.634	1500.366	-2.153	-4.504	4.260	0.459	5.895	-7.196
432808.502	NaN	2.728	7.293	-4.957	1509.890	1499.634	1500.366	-2.137	-4.534	4.336	0.612	6.124	-7.273
432809.479	NaN	2.739	7.293	-4.957	1512.088	1500.366	1500.366	-2.076	-4.626	4.229	0.612	5.895	-7.273
432810.455	NaN	2.739	7.304	-4.957	1511.355	1501.099	1499.634	-2.183	-4.580	3.878	0.689	5.895	-7.273
432811.432	NaN	2.728	7.293	-4.946	1510.623	1499.634	1501.099	-2.244	-4.412	3.969	0.689	5.818	-7.349
432812.408	NaN	2.717	7.293	-4.946	1510.623	1499.634	1500.366	-2.305	-4.504	4.153	0.536	5.742	-7.273
432813.385	NaN	2.728	7.293	-4.946	1511.355	1500.366	1500.366	-2.107	-4.672	4.290	0.612	5.895	-7.349
432814.362	NaN	2.717	7.304	-4.946	1509.158	1499.634	1499.634	-1.924	-4.595	4.092	0.536	5.971	-7.273
432815.338	NaN	2.717	7.315	-4.946	1509.158	1498.901	1499.634	-1.985	-4.443	3.969	0.689	6.048	-7.426
432816.315	NaN	2.728	7.315	-4.935	1509.890	1499.634	1500.366	-2.107	-4.336	4.061	0.689	5.971	-7.120
432817.291	NaN	2.717	7.315	-4.935	1509.890	1498.901	1499.634	-2.443	-4.504	4.061	0.536	5.895	-7.196
432818.268	NaN	2.717	7.315	-4.924	1509.890	1498.901	1499.634	-2.458	-4.718	4.092	0.612	5.895	-7.349
432819.244	NaN	2.717	7.304	-4.924	1510.623	1499.634	1500.366	-2.366	-4.672	4.092	0.612	5.971	-7.273
432820.221	NaN	2.717	7.304	-4.924	1510.623	1498.168	1500.366	-2.244	-4.641	4.076	0.612	5.971	-7.426
432821.198	NaN	2.717	7.304	-4.913	1509.890	1498.168	1500.366	-2.137	-4.748	3.863	0.612	5.895	-7.273
432822.174	NaN	2.717	7.315	-4.924	1511.355	1500.366	1501.099	-2.244	-4.656	3.817	0.536	6.048	-7.349
432823.151	NaN	2.717	7.304	-4.924	1510.623	1498.901	1500.366	-2.107	-4.321	4.061	0.536	5.895	-7.120
432824.127	NaN	2.717	7.315	-4.924	1509.158	1498.901	1499.634	-2.260	-4.412	4.198	0.612	5.895	-7.196
432825.104	NaN	2.728	7.315	-4.924	1509.158	1499.634	1500.366	-2.397	-4.641	4.214	0.536	5.895	-7.120
432826.080	NaN	2.717	7.304	-4.935	1510.623	1498.901	1501.099	-2.473	-4.687	4.092	0.612	5.895	-7.196
432827.057	NaN	2.717	7.315	-4.924	1510.623	1500.366	1500.366	-2.214	-4.565	4.031	0.689	6.048	-7.273
432828.033	NaN	2.717	7.304	-4.935	1510.623	1499.634	1501.832	-2.092	-4.504	4.153	0.383	5.895	-7.273
432829.010	NaN	2.728	7.304	-4.946	1511.355	1499.634	1501.099	-2.321	-4.351	4.168	0.536	5.895	-7.120
432829.987	NaN	2.717	7.293	-4.946	1510.623	1499.634	1501.832	-2.366	-4.290	4.198	0.536	6.048	-7.349
432830.963	NaN	2.717	7.293	-4.957	1509.158	1498.901	1500.366	-2.244	-4.382	4.092	0.536	5.895	-7.196
432831.940	NaN	2.717	7.315	-4.957	1511.355	1499.634	1501.832	-2.061	-4.397	4.229	0.536	5.818	-7.196
432832.916	NaN	2.717	7.304	-4.967	1510.623	1499.634	1501.099	-2.168	-4.504	4.107	0.612	5.971	-7.196
432833.893	NaN	2.717	7.315	-4.957	1510.623	1499.634	1500.366	-2.061	-4.443	3.893	0.612	5.971	-7.196
432834.869	NaN	2.707	7.304	-4.967	1509.158	1499.634	1501.099	-2.107	-4.427	3.969	0.612	5.971	-7.273
432835.846	NaN	2.717	7.293	-4.957	1511.355	1500.366	1501.832	-2.260	-4.473	4.137	0.383	5.971	-7.349
432836.823	NaN	2.717	7.283	-4.935	1511.355	1499.634	1501.099	-1.985	-4.473	4.275	0.612	5.971	-7.273
432837.799	NaN	2.717	7.293	-4.935	1509.890	1499.634	1501.099	-1.756	-4.489	4.244	0.612	5.818	-7.349
432838.776	NaN	2.717	7.293	-4.935	1510.623	1499.634	1501.099	-2.214	-4.443	4.305	0.536	5.971	-7.426
432839.752	NaN	2.717	7.293	-4.957	1509.890	1499.634	1498.168	-2.427	-4.489	4.000	0.612	5.895	-7.273
432840.729	NaN	2.717	7.283	-4.957	1508.425	1498.901	1499.634	-2.443	-4.550	4.076	0.536	5.742	-7.273
432841.705	NaN	2.728	7.293	-4.946	1509.158	1499.634	1500.366	-2.550	-4.611	4.015	0.612	5.895	-7.273
432842.682	NaN	2.717	7.304	-4.935	1510.623	1499.634	1501.099	-2.321	-4.702	3.893	0.536	6.048	-7.349
432843.658	NaN	2.707	7.293	-4.946	1509.158	1499.634	1501.832	-2.412	-4.702	3.786	0.612	5.971	-7.349
432844.635	NaN	2.717	7.304	-4.957	1510.623	1499.634	1501.099	-2.443	-4.534	4.092	0.459	5.895	-7.426
432845.612	NaN	2.717	7.304	-4.935	1509.890	1500.366	1500.366	-2.534	-4.534	4.229	0.689	5.895	-7.349
432846.588	NaN	2.717	7.293	-4.935	1510.623	1498.901	1499.634	-2.443	-4.412	4.000	0.536	5.895	-7.273
432847.565	NaN	2.717	7.304	-4.924	1511.355	1499.634	1500.366	-2.290	-4.229	3.939	0.459	5.895	-7.349
432848.541	NaN	2.717	7.304	-4.946	1510.623	1499.634	1501.099	-2.260	-4.153	3.908	0.536	5.895	-7.273
432849.518	NaN	2.717	7.315	-4.946	1510.623	1500.366	1501.099	-2.489	-4.382	3.924	0.689	5.895	-7.349
432850.494	NaN	2.728	7.315	-4.946	1511.355	1499.634	1501.099	-2.687	-4.489	3.939	0.612	5.971	-7.273
432851.471	NaN	2.717	7.304	-4.946	1510.623	1499.634	1501.099	-2.550	-4.412	3.908	0.612	5.818	-7.426
432852.448	NaN	2.728	7.293	-4.935	1509.158	1500.366	1501.832	-2.427	-4.580	3.985	0.689	5.971	-7.349
432853.424	NaN	2.707	7.293	-4.935	1511.355	1499.634	1501.099	-2.366	-4.595	4.092	0.689	5.742	-7.196
432854.401	NaN	2.717	7.304	-4.913	1511.355	1500.366	1500.366	-2.412	-4.550	4.214	0.612	5.971	-7.196
432855.377	NaN	2.707	7.304	-4.913	1511.355	1500.366	1499.634	-2.198	-4.443	4.031	0.689	5.971	-6.124
432856.354	NaN	2.707	7.293	-4.913	1509.158	1499.634	1499.634	-2.443	-4.397	3.893	0.612	5.971	-7.196
432857.330	NaN	2.707	7.304	-4.913	1509.890	1498.901	1498.168	-2.473	-4.397	4.031	0.612	5.971	-7.196
432858.307	NaN	2.717	7.304	-4.924	1510.623	1500.366	1498.901	-2.260	-4.321	3.985	0.612	5.971	-7.196
432859.283	NaN	2.717	7.293	-4.935	1509.890	1499.634	1501.099	-2.183	-4.260	3.939	0.689	5.971	-7.349
432860.260	NaN	2.707	7.304	-4.946	1509.890	1499.634	1500.366	-2.366	-4.443	4.076	0.536	6.048	-7.349
432861.237	NaN	2.717	7.315	-4.946	1510.623	1497.436	1499.634	-2.489	-4.519	3.985	0.536	5.971	-7.120
432862.213	NaN	2.717	7.315	-4.924	1511.355	1500.366	1500.366	-2.351	-4.351	3.939	0.612	5.971	-8.421
432863.190	NaN	2.717	7.304	-4.924	1510.623	1499.634	1501.832	-2.366	-4.351	3.847	0.536	5.971	-7.273
432864.166	NaN	2.728	7.293	-4.935	1511.355	1500.366	1499.634	-2.565	-4.489	4.092	0.612	5.971	-7.120
432865.143	NaN	2.717	7.283	-4.935	1510.623	1498.901	1501.099	-2.351	-4.489	4.122	0.536	5.818	-7.273
432866.119	NaN	2.717	7.283	-4.935	1510.623	1499.634	1501.099	-2.214	-4.458	4.290	0.536	6.048	-7.196
432867.096	NaN	2.717	7.304	-4.935	1511.355	1500.366	1501.099	-2.137	-4.427	4.137	0.612	5.818	-7.273
432868.073	NaN	2.717	7.293	-4.935	1510.623	1498.168	1499.634	-2.305	-4.290	4.092	0.612	5.895	-7.196
432869.049	NaN	2.728	7.293	-4.913	1510.623	1499.634	1501.099	-2.397	-4.351	4.107	0.459	5.971	-7.349
432870.026	NaN	2.717	7.293	-4.924	1510.623	1499.634	1500.366	-2.412	-4.427	3.985	0.612	6.048	-7.196
432871.002	NaN	2.707	7.293	-4.935	1509.890	1497.436	1500.366	-2.656	-4.473	4.046	0.536	5.971	-7.426
432871.979	NaN	2.707	7.304	-4.924	1511.355	1501.099	1500.366	-2.580	-4.443	4.122	0.536	5.971	-7.349
432872.955	NaN	2.707	7.293	-4.935	1509.158	1499.634	1501.099	-2.397	-4.305	4.122	0.612	6.048	-7.349
432873.932	NaN	2.707	7.293	-4.935	1510.623	1498.168	1500.366	-2.519	-4.321	4.229	0.536	6.048	-7.273
432874.908	NaN	2.707	7.293	-4.935	1509.158	1498.901	1501.099	-2.458	-4.275	4.153	0.612	5.971	-7.426
432875.885	NaN	2.717	7.304	-4.935	1511.355	1500.366	1499.634	-2.504	-4.153	4.122	0.612	5.971	-7.273
432876.862	NaN	2.717	7.304	-4.935	1510.623	1500.366	1500.366	-2.412	-4.321	4.031	0.536	5.971	-7.120
432877.838	NaN	2.717	7.315	-4.935	1510.623	1499.634	1501.099	-2.336	-4.366	4.092	0.536	6.048	-7.196
432878.815	NaN	2.717	7.315	-4.935	1509.890	1499.634	1501.099	-2.397	-4.458	4.031	0.612	6.048	-7.196
432879.791	NaN	2.717	7.315	-4.957	1510.623	1499.634	1501.832	-2.427	-4.534	3.924	0.536	5.895	-7.349
432880.768	NaN	2.728	7.315	-4.935	1509.890	1499.634	1501.832	-2.366	-4.351	3.878	0.612	5.971	-7.349
432881.744	NaN	2.739	7.315	-4.935	1509.158	1499.634	1501.099	-2.504	-4.198	3.969	0.612	6.124	-7.273
432882.721	NaN	2.728	7.315	-4.935	1510.623	1499.634	1500.366	-2.504	-4.168	3.878	0.689	6.048	-7.273
432883.698	NaN	2.717	7.304	-4.935	1510.623	1499.634	1499.634	-2.351	-4.244	3.878	0.689	5.971	-7.273
432884.674	NaN	2.707	7.304	-4.946	1512.088	1500.366	1499.634	-2.183	-4.366	3.863	0.536	5.971	-7.273
432885.651	NaN	2.707	7.293	-4.935	1510.623	1498.901	1499.634	-2.321	-4.336	3.969	0.536	5.971	-7.426
432886.627	NaN	2.717	7.293	-4.913	1510.623	1498.168	1499.634	-2.321	-4.336	3.939	0.536	5.818	-7.273
432887.604	NaN	2.707	7.293	-4.924	1511.355	1498.901	1501.099	-2.260	-4.214	3.863	0.536	5.971	-7.196
432888.580	NaN	2.717	7.293	-4.935	1510.623	1498.901	1500.366	-2.260	-4.076	3.908	0.612	5.971	-7.120
432889.557	NaN	2.728	7.304	-4.924	1511.355	1500.366	1500.366	-2.275	-4.107	3.893	0.689	5.818	-7.196
432890.533	NaN	2.739	7.304	-4.924	1510.623	1499.634	1501.099	-2.366	-4.244	3.969	0.536	5.895	-7.196
432891.510	NaN	2.728	7.315	-4.913	1510.623	1500.366	1500.366	-2.626	-4.244	3.939	0.689	5.818	-7.273
432892.487	NaN	2.728	7.304	-4.913	1510.623	1499.634	1500.366	-2.366	-4.198	3.924	0.689	6.048	-7.349
432893.463	NaN	2.717	7.304	-4.913	1511.355	1498.901	1501.832	-2.214	-4.061	3.939	0.689	5.895	-7.426
432894.440	NaN	2.717	7.293	-4.913	1510.623	1500.366	1500.366	-2.473	-4.137	4.031	0.536	5.895	-7.273
432895.416	NaN	2.717	7.293	-4.924	1510.623	1499.634	1501.099	-2.550	-4.168	3.985	0.612	6.048	-7.273
432896.393	NaN	2.707	7.293	-4.924	1509.890	1498.901	1500.366	-2.443	-4.153	4.015	0.766	5.971	-7.349
432897.369	NaN	2.696	7.293	-4.935	1509.890	1499.634	1499.634	-2.504	-4.031	4.107	0.689	5.971	-7.273
432898.346	NaN	2.707	7.304	-4.924	1509.890	1501.099	1500.366	-2.595	-4.061	4.122	0.536	5.895	-7.349
432899.323	NaN	2.707	7.304	-4.924	1510.623	1500.366	1500.366	-2.626	-4.198	4.046	0.689	5.971	-7.196
432900.299	NaN	2.707	7.304	-4.924	1511.355	1498.901	1501.832	-2.641	-4.198	4.061	0.612	5.895	-7.349
432901.276	NaN	2.707	7.304	-4.935	1509.158	1498.901	1499.634	-2.656	-4.153	4.092	0.612	5.971	-7.196
432902.252	NaN	2.707	7.304	-4.935	1509.890	1498.901	1501.099	-2.458	-4.076	4.214	0.612	5.971	-7.349
432903.229	NaN	2.717	7.304	-4.935	1509.890	1498.901	1499.634	-2.336	-4.168	4.107	0.536	5.818	-7.196
432904.205	NaN	2.728	7.315	-4.913	1510.623	1500.366	1498.901	-2.336	-4.107	4.229	0.612	5.971	-7.196
432905.182	NaN	2.717	7.293	-4.924	1511.355	1499.634	1501.099	-2.366	-4.000	4.153	0.536	5.971	-7.196
432906.158	NaN	2.717	7.293	-4.946	1509.158	1498.901	1499.634	-2.382	-3.908	3.954	0.459	5.971	-7.273
432907.135	NaN	2.728	7.293	-4.946	1510.623	1500.366	1500.366	-2.412	-4.031	3.863	0.536	5.971	-7.349
432908.112	NaN	2.717	7.293	-4.967	1510.623	1498.901	1501.099	-2.229	-4.137	3.924	0.689	5.971	-7.196
432909.088	NaN	2.728	7.304	-4.957	1509.158	1498.901	1498.901	-2.412	-4.137	4.061	0.689	5.971	-7.349
432910.065	3736842734.859	2.728	7.304	-4.957	1509.890	1499.634	1500.366	-2.473	-4.092	4.107	0.766	5.971	-7.273
432911.041	NaN	2.728	7.293	-4.967	1511.355	1499.634	1499.634	-2.458	-4.183	4.168	0.612	5.895	-7.273
432912.018	NaN	2.728	7.293	-4.957	1511.355	1500.366	1500.366	-2.656	-4.198	4.214	0.689	5.895	-7.349
432912.994	NaN	2.717	7.293	-4.957	1509.890	1498.901	1499.634	-2.718	-4.244	4.153	0.612	5.895	-7.273
432913.971	NaN	2.739	7.293	-4.935	1509.158	1498.901	1501.099	-2.366	-4.229	4.015	0.612	5.895	-7.273
432914.948	NaN	2.728	7.293	-4.935	1509.158	1500.366	1498.168	-2.382	-4.244	3.863	0.689	6.048	-7.349
432915.924	NaN	2.728	7.304	-4.946	1511.355	1499.634	1501.832	-2.336	-4.214	3.847	0.612	5.971	-7.196
432916.901	NaN	2.728	7.315	-4.935	1513.553	1499.634	1499.634	-2.382	-4.092	4.061	0.612	5.971	-7.273
432917.877	NaN	2.728	7.293	-4.935	1511.355	1499.634	1501.099	-2.519	-4.046	4.153	0.612	5.895	-7.273
432918.854	NaN	2.728	7.304	-4.946	1509.890	1500.366	1501.099	-2.473	-3.863	4.122	0.689	6.048	-7.196
432919.830	NaN	2.739	7.304	-4.946	1511.355	1498.901	1501.832	-2.473	-3.771	4.000	0.689	5.971	-7.349
432920.807	NaN	2.728	7.304	-4.946	1509.890	1500.366	1498.901	-2.565	-3.893	3.954	0.612	5.971	-7.426
432921.783	NaN	2.728	7.304	-4.935	1507.692	1498.901	1500.366	-2.473	-4.076	3.954	0.612	5.895	-7.273
432922.760	NaN	2.728	7.304	-4.946	1511.355	1499.634	1501.099	-2.611	-4.168	3.832	0.612	5.818	-7.273
432923.737	NaN	2.728	7.304	-4.946	1510.623	1498.168	1501.099	-2.565	-4.260	3.740	0.612	5.971	-7.273
432924.713	NaN	2.728	7.304	-4.957	1510.623	1500.366	1498.901	-2.198	-4.214	3.878	0.612	5.895	-7.273
432925.690	NaN	2.728	7.293	-4.935	1510.623	1500.366	1500.366	-2.198	-4.107	4.092	0.536	5.895	-7.273
432926.666	NaN	2.728	7.304	-4.924	1511.355	1499.634	1501.832	-2.550	-4.153	4.107	0.612	5.971	-7.120
432927.643	NaN	2.728	7.315	-4.935	1509.890	1499.634	1501.832	-2.427	-4.198	3.985	0.612	5.818	-7.273
432928.619	NaN	2.728	7.315	-4.946	1509.890	1498.901	1498.901	-2.382	-4.183	3.939	0.766	5.895	-7.196
432929.596	NaN	2.728	7.315	-4.946	1509.890	1498.901	1500.366	-2.611	-4.153	3.969	0.536	6.048	-7.349
432930.573	NaN	2.717	7.315	-4.935	1510.623	1500.366	1500.366	-2.809	-4.061	4.015	0.689	5.971	-7.349
432931.549	NaN	2.717	7.315	-4.924	1510.623	1499.634	1500.366	-2.672	-3.863	3.969	0.612	5.971	-7.273
432932.526	NaN	2.728	7.304	-4.935	1510.623	1499.634	1500.366	-2.641	-3.863	4.000	0.612	5.895	-7.196
432933.502	NaN	2.717	7.304	-4.935	1511.355	1499.634	1500.366	-2.580	-4.046	4.015	0.459	5.971	-7.273
432934.479	NaN	2.717	7.315	-4.924	1511.355	1499.634	1501.832	-2.718	-4.092	4.061	0.536	5.895	-7.349
432935.455	NaN	2.728	7.304	-4.924	1509.158	1498.901	1501.099	-2.641	-3.985	4.107	0.536	5.971	-7.273
432936.432	NaN	2.717	7.304	-4.924	1511.355	1498.901	1500.366	-2.458	-4.015	3.893	0.612	5.895	-7.196
432937.408	NaN	2.717	7.304	-4.935	1509.890	1499.634	1500.366	-2.275	-4.000	3.954	0.612	5.895	-7.196
432938.385	NaN	2.728	7.315	-4.935	1510.623	1499.634	1501.099	-2.473	-4.000	4.031	0.536	5.971	-7.273
432939.362	NaN	2.739	7.315	-4.935	1510.623	1500.366	1499.634	-2.748	-3.817	4.046	0.536	5.895	-7.196
432940.338	NaN	2.728	7.315	-4.935	1511.355	1500.366	1499.634	-2.779	-3.832	3.939	0.612	5.971	-7.349
432941.315	NaN	2.728	7.304	-4.924	1509.890	1499.634	1500.366	-2.656	-4.046	3.908	0.612	6.124	-7.349
432942.291	NaN	2.707	7.293	-4.924	1511.355	1498.901	1499.634	-2.366	-4.046	4.092	0.612	5.895	-7.349
432943.268	NaN	2.717	7.283	-4.924	1509.890	1498.901	1499.634	-2.397	-3.847	4.137	0.536	5.742	-7.273
432944.244	NaN	2.717	7.293	-4.902	1510.623	1500.366	1500.366	-2.534	-3.832	4.168	0.612	5.895	-7.273
432945.221	NaN	2.707	7.293	-4.913	1508.425	1499.634	1501.832	-2.458	-3.893	4.031	0.536	5.971	-7.273
432946.198	NaN	2.696	7.293	-4.913	1509.890	1498.901	1499.634	-2.351	-3.878	3.756	0.612	5.895	-7.349
432947.174	NaN	2.707	7.293	-4.913	1510.623	1499.634	1501.099	-2.321	-3.908	3.710	0.536	5.971	-7.273
432948.151	NaN	2.707	7.293	-4.924	1509.890	1499.634	1499.634	-2.290	-3.908	3.863	0.536	5.971	-7.349
432949.127	NaN	2.707	7.293	-4.913	1509.158	1499.634	1500.366	-2.458	-3.740	4.046	0.536	5.971	-7.273
432950.104	NaN	2.717	7.304	-4.924	1510.623	1500.366	1499.634	-2.489	-3.786	3.954	0.612	5.818	-7.273
432951.080	NaN	2.717	7.304	-4.946	1510.623	1498.168	1500.366	-2.351	-3.939	3.832	0.536	5.971	-7.273
432952.057	NaN	2.717	7.315	-4.924	1509.890	1500.366	1498.901	-2.412	-3.985	3.908	0.536	5.895	-7.273
432953.033	NaN	2.728	7.315	-4.924	1510.623	1499.634	1500.366	-2.366	-3.786	3.908	0.689	5.895	-7.273
432954.010	NaN	2.728	7.315	-4.935	1511.355	1500.366	1501.099	-2.489	-3.664	4.015	0.612	5.971	-7.349
432954.987	NaN	2.717	7.304	-4.935	1510.623	1499.634	1500.366	-2.519	-3.679	4.031	0.612	5.895	-7.196
432955.963	NaN	2.717	7.315	-4.935	1511.355	1498.901	1501.832	-2.473	-3.740	4.000	0.612	5.971	-7.196
432956.940	NaN	2.707	7.304	-4.924	1510.623	1498.901	1500.366	-2.183	-3.924	4.076	0.536	5.971	-7.196
432957.916	NaN	2.707	7.326	-4.913	1509.890	1499.634	1500.366	-2.214	-3.878	4.046	0.612	5.895	-7.349
432958.893	NaN	2.707	7.315	-4.913	1509.890	1498.901	1501.099	-2.534	-3.786	3.985	0.612	5.971	-7.196
432959.869	NaN	2.707	7.315	-4.935	1509.158	1499.634	1501.099	-2.550	-3.985	3.908	0.612	6.048	-7.349
432960.846	NaN	2.696	7.315	-4.935	1510.623	1500.366	1500.366	-2.504	-3.939	3.847	0.689	5.971	-7.502
432961.823	NaN	2.696	7.326	-4.924	1511.355	1499.634	1500.366	-2.519	-3.939	3.878	0.689	5.971	-7.273
432962.799	NaN	2.696	7.326	-4.935	1509.890	1499.634	1501.099	-2.534	-3.832	4.031	0.536	6.048	-7.196
432963.776	NaN	2.696	7.326	-4.946	1510.623	1499.634	1501.099	-2.702	-3.649	4.107	0.612	5.895	-7.349
432964.752	NaN	2.696	7.315	-4.935	1510.623	1499.634	1500.366	-2.611	-3.511	4.061	0.536	5.971	-7.273
432965.729	NaN	2.707	7.315	-4.913	1511.355	1500.366	1500.366	-2.672	-3.542	4.015	0.536	5.971	-8.498
432966.705	NaN	2.707	7.304	-4.913	1510.623	1500.366	1501.099	-2.626	-3.481	4.000	0.536	5.895	-7.273
432967.682	NaN	2.707	7.304	-4.913	1510.623	1500.366	1499.634	-2.580	-3.527	3.985	0.612	5.971	-7.196
432968.658	NaN	2.696	7.293	-4.924	1511.355	1498.901	1501.099	-2.519	-3.527	3.908	0.689	5.971	-7.349
432969.635	NaN	2.707	7.304	-4.924	1510.623	1500.366	1500.366	-2.733	-3.618	3.954	0.459	5.895	-7.349
432970.612	NaN	2.707	7.304	-4.924	1511.355	1500.366	1500.366	-2.779	-3.679	4.092	0.536	5.971	-7.196
432971.588	NaN	2.717	7.304	-4.913	1510.623	1499.634	1501.832	-2.641	-3.710	4.107	0.612	5.971	-7.273
432972.565	NaN	2.728	7.304	-4.924	1511.355	1499.634	1501.099	-2.565	-3.679	4.061	0.689	6.048	-7.349
432973.541	NaN	2.717	7.293	-4.935	1511.355	1498.901	1500.366	-2.458	-3.573	3.954	0.689	5.895	-7.273
432974.518	NaN	2.728	7.304	-4.924	1510.623	1500.366	1500.366	-2.641	-3.725	3.908	0.536	6.048	-7.196
432975.494	NaN	2.728	7.304	-4.935	1511.355	1498.901	1501.099	-2.611	-3.802	4.015	0.536	6.048	-7.196
432976.471	NaN	2.728	7.304	-4.935	1510.623	1499.634	1501.099	-2.489	-3.786	3.954	0.536	5.971	-7.426
432977.448	NaN	2.717	7.304	-4.935	1509.890	1499.634	1501.099	-2.595	-3.802	3.817	0.612	5.895	-7.349
432978.424	NaN	2.728	7.315	-4.946	1510.623	1499.634	1501.832	-2.519	-3.985	3.725	0.536	5.895	-7.120
432979.401	NaN	2.728	7.315	-4.946	1510.623	1499.634	1501.832	-2.336	-3.771	4.153	0.612	6.048	-7.349
432980.377	NaN	2.728	7.326	-4.946	1511.355	1499.634	1500.366	-2.214	-3.450	4.260	0.536	5.818	-7.273
432981.354	NaN	2.717	7.315	-4.957	1510.623	1500.366	1500.366	-2.290	-3.481	4.000	0.612	5.971	-7.120
432982.330	NaN	2.717	7.315	-4.957	1509.158	1498.901	1499.634	-2.534	-3.649	4.031	0.612	6.124	-7.196
432983.307	NaN	2.728	7.315	-4.935	1508.425	1500.366	1499.634	-2.489	-3.725	4.015	0.612	5.971	-7.502
432984.283	NaN	2.728	7.315	-4.924	1511.355	1499.634	1500.366	-2.641	-3.847	4.061	0.689	5.971	-7.273
432985.260	NaN	2.728	7.304	-4.935	1509.890	1500.366	1500.366	-2.550	-3.817	4.046	0.766	6.048	-7.273
432986.237	NaN	2.728	7.304	-4.924	1509.890	1499.634	1500.366	-2.382	-3.710	4.031	0.536	5.971	-7.273
432987.213	NaN	2.717	7.304	-4.935	1510.623	1500.366	1500.366	-2.382	-3.710	3.893	0.612	5.971	-7.196
432988.190	NaN	2.717	7.304	-4.913	1510.623	1499.634	1502.564	-2.580	-3.649	3.985	0.536	5.895	-7.196
432989.166	NaN	2.717	7.304	-4.913	1510.623	1498.901	1501.832	-2.534	-3.527	3.954	0.536	5.971	-7.196
432990.143	NaN	2.728	7.293	-4.913	1509.890	1499.634	1500.366	-2.473	-3.588	4.092	0.459	5.818	-7.349
432991.119	NaN	2.728	7.293	-4.913	1510.623	1499.634	1500.366	-2.336	-3.374	4.137	0.383	6.048	-7.349
432992.096	NaN	2.739	7.315	-4.924	1511.355	1500.366	1501.099	-2.321	-3.450	4.061	0.536	5.971	-7.273
432993.073	NaN	2.739	7.304	-4.924	1510.623	1499.634	1499.634	-2.672	-3.832	3.939	0.689	6.048	-7.120
432994.049	NaN	2.728	7.315	-4.924	1510.623	1500.366	1499.634	-2.809	-4.000	3.939	0.536	5.971	-7.349
432995.026	NaN	2.728	7.315	-4.924	1509.890	1499.634	1499.634	-2.702	-3.908	3.985	0.689	5.971	-7.273
432996.002	NaN	2.728	7.315	-4.935	1510.623	1499.634	1500.366	-2.702	-3.817	4.076	0.612	5.742	-7.349
432996.979	NaN	2.728	7.326	-4.935	1510.623	1500.366	1500.366	-2.641	-3.649	4.015	0.612	5.895	-7.273
432997.955	NaN	2.717	7.337	-4.935	1510.623	1499.634	1501.099	-2.641	-3.557	3.969	0.536	5.818	-7.196
432998.932	NaN	2.717	7.315	-4.935	1511.355	1498.901	1501.099	-2.519	-3.466	4.183	0.612	5.895	-7.196
432999.908	NaN	2.717	7.315	-4.924	1510.623	1498.901	1501.832	-2.321	-3.573	4.168	0.612	6.048	-7.196
433000.885	NaN	2.728	7.315	-4.935	1512.088	1499.634	1500.366	-2.214	-3.649	4.031	0.536	6.048	-7.426
433001.862	NaN	2.728	7.326	-4.935	1509.890	1499.634	1501.099	-2.336	-3.618	3.847	0.612	5.895	-7.349
433002.838	NaN	2.728	7.315	-4.946	1509.158	1498.901	1501.099	-2.458	-3.542	3.908	0.459	5.818	-7.349
433003.815	NaN	2.728	7.315	-4.946	1509.890	1499.634	1500.366	-2.382	-3.573	4.046	0.459	5.971	-7.273
433004.791	NaN	2.739	7.315	-4.957	1510.623	1499.634	1501.099	-2.427	-3.664	4.015	0.536	5.971	-8.421
433010.651	NaN	2.728	7.304	-4.913	1509.890	1499.634	1500.366	-2.366	-3.695	3.863	0.612	5.895	-7.273
433011.627	NaN	2.739	7.304	-4.913	1510.623	1499.634	1500.366	-2.473	-3.725	3.969	0.536	5.895	-7.273
433012.604	NaN	2.728	7.304	-4.913	1509.890	1499.634	1500.366	-2.641	-3.603	3.985	0.536	5.971	-7.196
433013.580	NaN	2.717	7.304	-4.913	1509.890	1499.634	1501.099	-2.504	-3.527	4.183	0.459	5.971	-7.273
433014.557	NaN	2.717	7.304	-4.924	1509.890	1500.366	1501.099	-2.290	-3.466	4.107	0.689	6.124	-7.273
433015.533	NaN	2.707	7.304	-4.924	1512.088	1499.634	1500.366	-2.427	-3.573	3.863	0.689	5.895	-7.273
433016.510	NaN	2.717	7.315	-4.913	1509.890	1499.634	1500.366	-2.443	-3.511	3.908	0.612	5.971	-7.196
433017.487	NaN	2.717	7.315	-4.935	1510.623	1499.634	1501.099	-2.519	-3.344	4.000	0.612	5.971	-7.426
433018.463	NaN	2.707	7.304	-4.946	1510.623	1499.634	1501.099	-2.550	-3.389	4.061	0.383	6.124	-7.196
433019.440	NaN	2.707	7.293	-4.935	1509.890	1498.901	1500.366	-2.412	-3.374	4.122	0.612	5.971	-7.349
433020.416	NaN	2.717	7.293	-4.935	1508.425	1497.436	1501.099	-2.412	-3.466	4.046	0.612	5.971	-7.273
433021.393	NaN	2.717	7.304	-4.935	1510.623	1499.634	1500.366	-2.611	-3.511	4.153	0.766	5.895	-7.196
433022.369	NaN	2.717	7.304	-4.946	1510.623	1498.168	1500.366	-2.809	-3.389	4.137	0.689	6.048	-7.273
433023.346	NaN	2.728	7.304	-4.935	1510.623	1498.901	1501.099	-2.611	-3.344	4.122	0.536	6.048	-7.426
433024.323	NaN	2.717	7.304	-4.935	1509.890	1499.634	1498.901	-2.550	-3.496	4.137	0.689	5.971	-7.349
433025.299	NaN	2.717	7.304	-4.924	1509.158	1498.168	1498.901	-2.580	-3.527	4.153	0.612	5.895	-7.273
433026.276	NaN	2.728	7.304	-4.913	1509.890	1500.366	1500.366	-2.397	-3.450	4.153	0.612	5.971	-7.349
433027.252	NaN	2.717	7.304	-4.924	1509.158	1498.901	1500.366	-2.382	-3.206	4.076	0.536	6.048	-7.273
433028.229	NaN	2.728	7.304	-4.913	1510.623	1499.634	1501.099	-2.397	-3.237	3.985	0.612	5.971	-7.426
433029.205	NaN	2.717	7.304	-4.935	1510.623	1498.901	1500.366	-2.412	-3.435	4.000	0.536	5.895	-7.273
433030.182	NaN	2.739	7.304	-4.924	1509.158	1498.901	1500.366	-2.336	-3.481	3.985	0.689	5.895	-7.349
433031.158	NaN	2.728	7.293	-4.946	1509.890	1500.366	1499.634	-2.427	-3.389	4.031	0.536	5.895	-7.349
433032.135	NaN	2.728	7.283	-4.946	1510.623	1498.901	1500.366	-2.473	-3.313	3.863	0.612	5.971	-7.426
433033.112	NaN	2.728	7.293	-4.924	1509.890	1499.634	1501.099	-2.412	-3.420	3.893	0.689	5.895	-7.273
433034.088	NaN	2.728	7.293	-4.924	1510.623	1499.634	1501.832	-2.412	-3.435	4.107	0.536	5.971	-7.273
433035.065	NaN	2.739	7.283	-4.946	1510.623	1498.901	1499.634	-2.382	-3.206	4.198	0.689	6.124	-7.273
433036.041	NaN	2.739	7.293	-4.946	1510.623	1500.366	1500.366	-2.427	-3.359	4.122	0.612	5.818	-7.196
433037.018	NaN	2.739	7.304	-4.935	1509.890	1499.634	1501.099	-2.366	-3.634	4.107	0.612	5.895	-8.421
433037.994	NaN	2.739	7.304	-4.924	1510.623	1499.634	1500.366	-2.366	-3.466	4.198	0.536	5.895	-7.273
433038.971	NaN	2.728	7.304	-4.935	1510.623	1499.634	1500.366	-2.473	-3.359	3.985	0.612	5.895	-7.273
433039.948	NaN	2.717	7.293	-4.935	1510.623	1500.366	1500.366	-2.733	-3.267	3.695	0.612	5.895	-7.120
433040.924	NaN	2.717	7.315	-4.946	1511.355	1500.366	1500.366	-2.718	-3.389	3.710	0.766	5.971	-7.349
433041.901	NaN	2.717	7.304	-4.946	1509.890	1500.366	1500.366	-2.489	-3.481	4.046	0.612	5.895	-7.196
433042.877	NaN	2.717	7.315	-4.946	1510.623	1499.634	1500.366	-2.260	-3.298	4.122	0.536	5.895	-7.273
433043.854	NaN	2.707	7.304	-4.957	1509.890	1498.901	1500.366	-2.489	-3.069	4.076	0.536	5.971	-7.349
433044.830	NaN	2.696	7.304	-4.957	1510.623	1499.634	1500.366	-2.473	-3.237	3.985	0.536	6.048	-7.196
433045.807	NaN	2.717	7.304	-4.946	1511.355	1500.366	1500.366	-2.153	-3.252	3.954	0.612	5.895	-7.349
433046.783	NaN	2.728	7.315	-4.935	1510.623	1500.366	1499.634	-2.275	-3.191	3.863	0.612	5.971	-7.196
433047.760	NaN	2.728	7.304	-4.935	1510.623	1500.366	1499.634	-2.351	-3.145	3.863	0.612	5.818	-7.273
433048.737	NaN	2.717	7.315	-4.935	1510.623	1499.634	1500.366	-2.321	-3.313	4.015	0.612	5.971	-7.120
433049.713	NaN	2.717	7.304	-4.957	1510.623	1499.634	1500.366	-2.321	-3.405	3.908	0.612	5.895	-7.120
433050.690	NaN	2.717	7.304	-4.946	1510.623	1499.634	1501.099	-2.504	-3.344	3.863	0.689	5.971	-7.273
433051.666	NaN	2.707	7.304	-4.957	1510.623	1499.634	1501.099	-2.443	-3.313	3.924	0.536	5.895	-7.349
433052.643	NaN	2.717	7.315	-4.967	1510.623	1499.634	1500.366	-2.397	-3.496	4.061	0.536	5.971	-7.196
433053.619	NaN	2.728	7.315	-4.957	1510.623	1500.366	1500.366	-2.397	-3.527	3.893	0.689	5.895	-7.273
433054.596	NaN	2.728	7.315	-4.967	1511.355	1500.366	1501.099	-2.336	-3.374	3.985	0.536	5.971	-7.349
433055.573	NaN	2.728	7.315	-4.957	1510.623	1499.634	1501.832	-2.214	-3.237	4.137	0.689	6.048	-7.196
433056.549	NaN	2.717	7.315	-4.946	1510.623	1499.634	1499.634	-2.443	-3.298	4.031	0.689	5.971	-7.196
433057.526	NaN	2.728	7.304	-4.946	1510.623	1499.634	1501.099	-2.580	-3.481	3.863	0.766	5.971	-7.196
433058.502	NaN	2.717	7.304	-4.957	1511.355	1499.634	1501.099	-2.305	-3.435	3.878	0.689	5.971	-7.196
433059.479	NaN	2.728	7.315	-4.946	1511.355	1499.634	1501.832	-2.092	-3.298	3.863	0.536	5.895	-7.273
433060.455	NaN	2.717	7.315	-4.946	1509.890	1500.366	1498.901	-2.366	-3.405	4.000	0.536	5.895	-7.273
433061.432	NaN	2.728	7.304	-4.935	1509.890	1498.168	1499.634	-2.550	-3.481	4.031	0.612	5.971	-7.273
433062.408	NaN	2.728	7.304	-4.924	1510.623	1499.634	1499.634	-2.382	-3.511	4.046	0.689	5.971	-7.426
433063.385	NaN	2.728	7.293	-4.924	1510.623	1498.901	1499.634	-2.321	-3.313	3.939	0.689	5.895	-7.273
433064.362	NaN	2.739	7.304	-4.924	1511.355	1499.634	1501.099	-2.275	-3.359	3.802	0.612	5.971	-7.426
433065.338	NaN	2.717	7.315	-4.924	1510.623	1499.634	1500.366	-2.198	-3.237	3.863	0.536	5.971	-7.273
433066.315	NaN	2.717	7.304	-4.935	1509.158	1498.901	1500.366	-2.229	-3.313	3.939	0.689	5.895	-7.349
433067.291	NaN	2.717	7.304	-4.935	1511.355	1499.634	1500.366	-2.397	-3.298	3.939	0.536	5.895	-7.273
433068.268	NaN	2.717	7.304	-4.924	1509.890	1498.901	1499.634	-2.321	-3.282	4.015	0.536	5.971	-7.273
433069.244	NaN	2.717	7.293	-4.913	1511.355	1498.901	1500.366	-2.183	-3.221	4.198	0.536	5.895	-7.196
433070.221	NaN	2.717	7.304	-4.913	1509.890	1498.901	1499.634	-2.122	-3.176	4.000	0.536	5.818	-7.273
433071.198	NaN	2.707	7.293	-4.924	1510.623	1499.634	1501.099	-2.168	-3.038	4.031	0.536	6.048	-7.273
433072.174	NaN	2.707	7.304	-4.935	1511.355	1498.168	1499.634	-2.336	-3.130	4.092	0.612	5.971	-7.426
433073.151	NaN	2.707	7.293	-4.924	1509.158	1499.634	1500.366	-2.427	-3.267	3.969	0.536	5.971	-7.349
433074.127	NaN	2.717	7.315	-4.913	1510.623	1499.634	1501.099	-2.595	-3.252	4.000	0.536	5.971	-7.349
433075.104	NaN	2.717	7.304	-4.913	1511.355	1498.901	1500.366	-2.427	-3.252	4.061	0.612	5.895	-7.349
433076.080	NaN	2.707	7.326	-4.924	1510.623	1499.634	1501.099	-2.275	-3.282	3.985	0.689	5.971	-7.196
433077.057	NaN	2.707	7.315	-4.924	1511.355	1499.634	1501.099	-2.198	-3.374	3.847	0.612	5.895	-7.273
433078.033	NaN	2.696	7.304	-4.935	1511.355	1498.901	1500.366	-2.260	-3.237	3.863	0.689	5.971	-7.349
433079.010	NaN	2.707	7.304	-4.913	1509.890	1500.366	1498.901	-2.458	-3.115	4.000	0.459	5.971	-7.273
433079.987	NaN	2.707	7.304	-4.913	1510.623	1499.634	1501.832	-2.473	-3.374	4.061	0.689	5.742	-7.273
433080.963	NaN	2.707	7.304	-4.913	1509.158	1499.634	1500.366	-2.336	-3.359	3.908	0.612	5.971	-7.273
433081.940	NaN	2.707	7.315	-4.913	1508.425	1498.901	1501.099	-2.351	-3.191	3.847	0.536	5.971	-7.273
433082.916	NaN	2.707	7.315	-4.902	1511.355	1498.901	1501.099	-2.382	-3.313	3.756	0.612	5.895	-7.349
433083.893	NaN	2.707	7.326	-4.891	1509.890	1498.901	1499.634	-2.382	-3.145	3.771	0.612	5.971	-7.349
433084.869	NaN	2.717	7.326	-4.880	1510.623	1498.901	1501.099	-2.305	-2.977	4.000	0.612	5.895	-7.426
433085.846	NaN	2.707	7.315	-4.891	1511.355	1499.634	1501.099	-2.290	-3.160	3.908	0.612	6.124	-7.426
433086.823	NaN	2.717	7.304	-4.891	1511.355	1499.634	1500.366	-2.443	-3.374	3.924	0.689	5.971	-7.273
433087.799	NaN	2.717	7.315	-4.913	1511.355	1498.901	1501.099	-2.473	-3.267	3.924	0.689	5.895	-7.196
433088.776	NaN	2.728	7.304	-4.913	1509.890	1499.634	1500.366	-2.305	-3.252	3.908	0.612	6.048	-7.349
433089.752	NaN	2.717	7.304	-4.924	1510.623	1499.634	1500.366	-2.275	-3.374	3.924	0.536	5.971	-7.349
433090.729	NaN	2.717	7.304	-4.924	1510.623	1498.901	1500.366	-2.244	-3.389	3.786	0.612	5.971	-7.349
433091.705	NaN	2.728	7.315	-4.913	1510.623	1498.901	1499.634	-2.198	-3.221	3.893	0.536	5.971	-7.426
433092.682	NaN	2.728	7.304	-4.913	1511.355	1500.366	1501.099	-2.305	-3.023	4.015	0.689	5.971	-7.349
433093.658	3736842735.026	2.717	7.315	-4.924	1509.890	1499.634	1498.901	-2.397	-2.947	3.893	0.689	5.971	-7.273
433094.635	NaN	2.728	7.315	-4.913	1509.890	1499.634	1501.099	-2.168	-2.992	3.725	0.766	5.818	-7.273
433095.612	NaN	2.728	7.304	-4.913	1509.890	1500.366	1500.366	-2.427	-3.176	3.740	0.612	5.971	-7.502
433096.588	NaN	2.728	7.293	-4.913	1510.623	1498.901	1499.634	-2.412	-3.191	3.878	0.536	5.895	-7.273
433097.565	NaN	2.717	7.304	-4.913	1509.158	1499.634	1499.634	-2.366	-3.099	3.832	0.536	6.048	-7.426
433098.541	NaN	2.717	7.293	-4.924	1510.623	1498.901	1500.366	-2.244	-3.176	3.664	0.689	6.048	-7.273
433099.518	NaN	2.728	7.304	-4.913	1511.355	1500.366	1500.366	-2.214	-3.267	3.649	0.612	5.895	-7.273
433100.494	NaN	2.739	7.315	-4.913	1510.623	1500.366	1500.366	-2.153	-3.359	3.786	0.689	5.971	-7.273
433101.471	NaN	2.750	7.315	-4.913	1510.623	1498.901	1499.634	-2.137	-3.313	4.000	0.689	5.971	-7.349
433102.448	NaN	2.739	7.315	-4.924	1510.623	1499.634	1500.366	-1.969	-3.282	3.924	0.459	5.895	-7.273
433103.424	NaN	2.739	7.326	-4.935	1510.623	1500.366	1499.634	-2.122	-3.252	3.710	0.612	5.818	-7.426
433104.401	NaN	2.739	7.315	-4.924	1510.623	1500.366	1499.634	-2.504	-3.252	3.863	0.612	5.971	-7.349
433105.377	NaN	2.728	7.315	-4.935	1510.623	1499.634	1500.366	-2.641	-3.160	3.893	0.612	5.818	-7.273
433106.354	NaN	2.717	7.304	-4.946	1509.158	1498.901	1500.366	-2.275	-3.053	3.847	0.612	5.971	-7.349
433107.330	NaN	2.717	7.304	-4.946	1510.623	1499.634	1501.099	-2.061	-3.145	3.786	0.612	5.895	-7.349
433108.307	NaN	2.717	7.315	-4.935	1511.355	1500.366	1500.366	-2.336	-3.206	3.954	0.536	6.048	-7.196
433109.283	NaN	2.717	7.315	-4.946	1511.355	1499.634	1499.634	-2.550	-3.053	4.015	0.459	5.895	-7.273
433110.260	NaN	2.728	7.304	-4.946	1509.890	1499.634	1500.366	-2.412	-3.053	3.969	0.536	5.971	-7.426
433111.237	NaN	2.728	7.315	-4.946	1509.890	1499.634	1500.366	-2.046	-3.176	3.954	0.612	5.971	-7.273
433112.213	NaN	2.717	7.304	-4.967	1511.355	1499.634	1500.366	-2.198	-3.176	3.847	0.536	5.971	-7.196
433113.190	NaN	2.728	7.315	-4.957	1510.623	1500.366	1500.366	-2.260	-3.053	3.802	0.459	5.895	-7.349
433114.166	NaN	2.728	7.315	-4.967	1510.623	1498.901	1500.366	-2.168	-3.145	3.863	0.536	5.971	-7.349
433115.143	NaN	2.717	7.315	-4.967	1510.623	1499.634	1501.099	-2.244	-3.221	3.786	0.612	5.971	-7.273
433116.119	NaN	2.717	7.304	-4.957	1509.890	1498.901	1500.366	-2.427	-3.221	3.786	0.689	5.895	-7.196
433117.096	NaN	2.717	7.315	-4.957	1512.088	1500.366	1501.099	-2.397	-3.115	3.603	0.536	5.971	-7.273
433118.073	NaN	2.717	7.326	-4.946	1511.355	1500.366	1499.634	-2.397	-3.237	3.573	0.612	5.971	-7.273
433119.049	NaN	2.717	7.326	-4.957	1511.355	1499.634	1499.634	-2.290	-3.298	3.771	0.766	5.895	-7.349
433120.026	NaN	2.717	7.315	-4.957	1510.623	1500.366	1499.634	-2.305	-3.298	3.832	0.459	5.895	-7.273
433121.002	NaN	2.717	7.315	-4.957	1510.623	1500.366	1498.901	-2.366	-3.130	3.740	0.689	6.048	-7.196
433121.979	NaN	2.728	7.304	-4.946	1511.355	1500.366	1500.366	-2.275	-3.145	3.802	0.612	5.971	-7.273
433122.955	NaN	2.728	7.315	-4.924	1511.355	1499.634	1501.099	-2.275	-3.298	3.756	0.842	6.048	-7.273
433123.932	NaN	2.728	7.304	-4.924	1511.355	1499.634	1501.099	-2.046	-3.282	3.878	0.536	5.818	-7.273
433124.908	NaN	2.717	7.315	-4.924	1509.158	1499.634	1500.366	-2.122	-3.206	3.878	0.689	5.971	-7.120
433125.885	NaN	2.728	7.315	-4.924	1510.623	1499.634	1500.366	-2.046	-3.237	3.649	0.612	5.971	-7.273
433126.862	NaN	2.739	7.326	-4.913	1509.890	1498.901	1501.099	-2.046	-3.221	3.573	0.689	5.895	-7.273
433127.838	NaN	2.717	7.326	-4.935	1510.623	1499.634	1501.099	-2.137	-3.145	3.542	0.612	5.971	-7.196
433128.815	NaN	2.717	7.326	-4.935	1509.158	1498.168	1497.436	-2.534	-3.191	3.603	0.536	5.971	-7.273
433129.791	NaN	2.717	7.315	-4.935	1510.623	1499.634	1500.366	-2.718	-3.344	3.634	0.612	5.971	-7.273
433130.768	NaN	2.717	7.326	-4.946	1510.623	1499.634	1500.366	-2.595	-3.344	3.878	0.612	5.895	-7.426
433131.744	NaN	2.728	7.326	-4.946	1510.623	1499.634	1500.366	-2.275	-3.023	4.122	0.612	6.048	-7.273
433132.721	NaN	2.717	7.326	-4.946	1511.355	1498.901	1501.832	-1.939	-3.008	3.878	0.536	5.895	-7.273
433133.698	NaN	2.717	7.315	-4.935	1509.890	1498.901	1501.832	-2.000	-3.099	3.771	0.689	5.971	-7.349
433134.674	NaN	2.717	7.315	-4.957	1509.890	1499.634	1500.366	-2.214	-3.252	3.740	0.766	5.895	-7.349
433135.651	NaN	2.717	7.315	-4.935	1510.623	1500.366	1499.634	-2.275	-3.176	3.573	0.536	5.971	-7.349
433136.627	NaN	2.717	7.315	-4.935	1510.623	1498.901	1499.634	-2.305	-3.069	3.573	0.689	5.971	-7.349
433137.604	NaN	2.728	7.315	-4.924	1509.890	1498.901	1500.366	-2.290	-3.038	3.740	0.536	5.895	-7.120
433138.580	NaN	2.707	7.304	-4.935	1510.623	1499.634	1499.634	-2.260	-3.084	3.817	0.689	5.895	-7.196
433139.557	NaN	2.728	7.293	-4.935	1510.623	1498.901	1501.832	-2.168	-3.023	3.679	0.612	5.818	-7.426
433140.533	NaN	2.739	7.304	-4.935	1509.890	1498.901	1499.634	-2.290	-3.038	3.771	0.612	5.895	-7.273
433141.510	NaN	2.739	7.304	-4.913	1509.890	1498.901	1501.099	-2.137	-3.359	3.924	0.536	5.895	-7.349
433142.487	NaN	2.750	7.304	-4.935	1511.355	1498.901	1500.366	-2.061	-3.542	4.000	0.689	6.048	-7.273
433143.463	NaN	2.739	7.293	-4.935	1509.890	1500.366	1499.634	-2.214	-3.313	3.893	0.689	5.895	-7.349
433144.440	NaN	2.750	7.304	-4.935	1510.623	1499.634	1500.366	-2.244	-2.855	3.710	0.612	5.818	-7.349
433145.416	NaN	2.739	7.293	-4.924	1509.890	1499.634	1501.832	-2.214	-2.977	3.557	0.536	5.971	-7.273
433146.393	NaN	2.739	7.293	-4.935	1511.355	1499.634	1501.099	-2.137	-3.313	3.618	0.536	5.971	-7.349
433147.369	NaN	2.728	7.293	-4.924	1508.425	1499.634	1501.832	-2.214	-3.405	3.679	0.612	5.971	-7.273
433148.346	NaN	2.739	7.304	-4.924	1511.355	1499.634	1501.099	-2.198	-3.298	3.710	0.612	5.818	-7.349
433149.323	NaN	2.728	7.304	-4.913	1511.355	1499.634	1500.366	-2.260	-3.252	3.710	0.689	5.818	-7.196
433150.299	NaN	2.739	7.304	-4.924	1511.355	1499.634	1501.099	-2.260	-3.206	3.756	0.612	5.895	-7.273
433151.276	NaN	2.728	7.304	-4.924	1508.425	1499.634	1501.832	-2.473	-3.221	3.710	0.536	6.048	-7.273
433152.252	NaN	2.728	7.304	-4.935	1510.623	1499.634	1501.099	-2.290	-3.237	3.786	0.689	5.895	-7.349
433153.229	NaN	2.739	7.304	-4.924	1510.623	1499.634	1502.564	-2.351	-3.267	3.679	0.536	6.048	-7.349
433154.205	NaN	2.739	7.304	-4.913	1509.890	1499.634	1501.099	-2.305	-3.267	3.450	0.612	5.971	-7.349
433155.182	NaN	2.739	7.304	-4.924	1511.355	1500.366	1500.366	-2.183	-3.008	3.481	0.612	5.895	-7.196
433156.158	NaN	2.717	7.304	-4.946	1509.890	1499.634	1500.366	-2.122	-2.977	3.664	0.612	5.971	-7.426
433157.135	NaN	2.728	7.304	-4.946	1509.890	1498.168	1500.366	-2.229	-3.069	3.573	0.536	5.971	-7.349
433158.112	NaN	2.728	7.315	-4.935	1509.890	1500.366	1501.099	-2.214	-2.947	3.832	0.689	5.895	-7.349
433159.088	NaN	2.717	7.304	-4.946	1511.355	1499.634	1501.099	-2.107	-2.992	3.679	0.612	6.048	-7.120
433160.065	NaN	2.728	7.293	-4.957	1508.425	1498.901	1500.366	-1.908	-3.191	3.679	0.612	5.895	-7.196
433161.041	NaN	2.728	7.293	-4.946	1510.623	1499.634	1501.099	-2.076	-3.252	3.634	0.689	5.818	-7.349
433162.018	NaN	2.728	7.304	-4.946	1509.890	1498.901	1500.366	-2.244	-3.237	3.573	0.536	5.895	-7.273
433162.994	NaN	2.739	7.315	-4.935	1511.355	1499.634	1502.564	-2.168	-3.282	3.511	0.689	6.048	-7.273
433163.971	NaN	2.728	7.315	-4.924	1511.355	1499.634	1500.366	-2.214	-3.221	3.634	0.612	5.895	-7.273
433164.948	NaN	2.728	7.304	-4.935	1510.623	1498.901	1500.366	-2.427	-3.328	3.802	0.536	5.971	-7.273
433165.924	NaN	2.728	7.304	-4.946	1511.355	1500.366	1500.366	-2.427	-3.328	3.863	0.612	6.048	-7.349
433166.901	NaN	2.739	7.304	-4.924	1511.355	1501.099	1501.832	-2.153	-3.115	3.603	0.612	5.895	-7.349
433167.877	NaN	2.739	7.315	-4.924	1510.623	1498.901	1501.832	-2.076	-3.099	3.496	0.689	5.895	-7.349
433168.854	NaN	2.739	7.304	-4.924	1510.623	1499.634	1501.832	-2.092	-3.008	3.603	0.612	5.895	-7.349
433169.830	NaN	2.728	7.304	-4.935	1511.355	1499.634	1501.099	-2.290	-3.160	3.664	0.536	6.048	-7.349
433170.807	NaN	2.728	7.315	-4.924	1510.623	1500.366	1499.634	-2.061	-3.206	3.496	0.612	5.971	-7.273
433171.783	NaN	2.728	7.315	-4.935	1511.355	1499.634	1501.832	-2.000	-3.206	3.298	0.612	5.971	-7.273
433172.760	NaN	2.728	7.315	-4.935	1509.890	1499.634	1501.832	-1.939	-3.237	3.573	0.689	5.818	-7.349
433173.737	NaN	2.728	7.293	-4.935	1509.890	1498.901	1499.634	-2.153	-3.298	3.557	0.612	5.895	-7.273
433174.713	NaN	2.739	7.293	-4.946	1510.623	1499.634	1501.099	-2.305	-3.267	3.420	0.459	5.818	-7.196
433175.690	NaN	2.739	7.304	-4.946	1509.158	1498.901	1501.832	-2.305	-3.374	3.420	0.689	5.971	-7.349
433176.666	NaN	2.728	7.293	-4.957	1509.890	1499.634	1500.366	-2.412	-3.389	3.389	0.536	5.895	-7.349
433177.643	NaN	2.728	7.293	-4.946	1508.425	1499.634	1500.366	-2.061	-3.267	3.298	0.612	6.048	-7.273
433178.619	NaN	2.717	7.293	-4.946	1510.623	1498.901	1501.099	-1.939	-3.084	3.282	0.612	5.818	-7.196
433179.596	NaN	2.728	7.293	-4.946	1510.623	1501.099	1500.366	-2.031	-3.053	3.267	0.612	5.971	-7.273
433180.573	NaN	2.728	7.304	-4.935	1510.623	1499.634	1500.366	-2.244	-3.252	3.450	0.536	6.048	-7.196
433181.549	NaN	2.739	7.315	-4.924	1509.890	1499.634	1501.099	-2.107	-3.130	3.481	0.766	5.895	-7.426
433182.526	NaN	2.739	7.304	-4.924	1509.890	1498.901	1499.634	-1.985	-3.115	3.435	0.612	5.895	-7.349
433183.502	NaN	2.728	7.293	-4.935	1509.890	1499.634	1500.366	-2.305	-3.099	3.481	0.612	5.971	-7.349
433184.479	NaN	2.739	7.293	-4.924	1510.623	1500.366	1500.366	-2.122	-3.160	3.466	0.689	5.895	-7.273
433185.455	NaN	2.728	7.293	-4.924	1511.355	1500.366	1499.634	-2.107	-3.221	3.191	0.689	5.895	-7.273
433186.432	NaN	2.728	7.283	-4.913	1511.355	1499.634	1500.366	-2.198	-3.206	3.084	0.612	6.124	-6.124
433187.408	NaN	2.728	7.283	-4.935	1509.890	1499.634	1501.832	-2.214	-3.252	3.176	0.612	5.971	-7.196
433188.385	NaN	2.728	7.283	-4.935	1509.890	1498.901	1499.634	-2.092	-3.374	3.313	0.612	6.048	-7.196
433189.362	NaN	2.739	7.293	-4.924	1510.623	1499.634	1501.099	-1.985	-3.405	3.267	0.766	5.895	-7.196
433190.338	NaN	2.728	7.283	-4.935	1510.623	1500.366	1498.901	-2.107	-3.313	3.405	0.459	5.895	-7.349
433191.315	NaN	2.728	7.272	-4.924	1509.890	1498.901	1498.901	-2.153	-3.145	3.298	0.612	5.971	-7.273
433192.291	NaN	2.728	7.293	-4.913	1510.623	1499.634	1499.634	-2.031	-3.191	3.206	0.612	5.971	-7.349
433193.268	NaN	2.728	7.293	-4.891	1510.623	1500.366	1500.366	-2.000	-3.252	3.405	0.766	5.971	-7.196
433194.244	NaN	2.728	7.293	-4.902	1509.890	1499.634	1500.366	-2.137	-3.405	3.435	0.612	5.971	-7.349
433195.221	NaN	2.728	7.293	-4.891	1511.355	1499.634	1501.099	-2.198	-3.435	3.466	0.612	5.971	-7.196
433196.198	NaN	2.717	7.293	-4.891	1511.355	1499.634	1501.832	-2.214	-3.450	3.328	0.689	5.818	-7.349
433197.174	NaN	2.728	7.283	-4.902	1509.890	1498.901	1500.366	-2.321	-3.359	3.130	0.689	5.895	-7.196
433198.151	NaN	2.728	7.293	-4.913	1510.623	1500.366	1498.901	-2.229	-3.359	3.267	0.689	5.971	-7.273
433199.127	NaN	2.728	7.293	-4.913	1510.623	1500.366	1500.366	-2.122	-3.359	3.328	0.612	5.895	-7.196
433200.104	NaN	2.728	7.293	-4.924	1509.890	1500.366	1499.634	-2.061	-3.344	3.450	0.536	5.971	-7.273
433201.080	NaN	2.728	7.293	-4.935	1510.623	1498.901	1501.099	-2.229	-3.053	3.145	0.612	5.818	-7.349
433202.057	NaN	2.750	7.304	-4.924	1510.623	1500.366	1501.832	-2.092	-2.916	3.176	0.689	5.818	-7.196
433203.033	NaN	2.750	7.293	-4.924	1510.623	1499.634	1501.099	-1.832	-2.855	3.374	0.689	6.048	-7.273
433204.010	NaN	2.750	7.293	-4.924	1510.623	1499.634	1501.832	-1.985	-2.947	3.389	0.612	5.895	-7.196
433204.987	NaN	2.750	7.293	-4.924	1510.623	1499.634	1500.366	-2.305	-3.130	3.176	0.689	6.048	-7.120
433205.963	NaN	2.728	7.304	-4.935	1510.623	1499.634	1500.366	-2.244	-3.191	3.252	0.612	6.048	-7.196
433206.940	NaN	2.728	7.304	-4.935	1510.623	1498.901	1499.634	-1.878	-3.206	3.466	0.536	6.048	-7.273
433207.916	NaN	2.728	7.304	-4.935	1509.158	1498.901	1498.901	-1.954	-3.237	3.481	0.612	5.971	-7.196
433208.893	NaN	2.750	7.304	-4.913	1509.890	1499.634	1499.634	-2.046	-3.267	3.298	0.536	5.971	-7.273
433209.869	NaN	2.728	7.293	-4.935	1511.355	1499.634	1500.366	-2.198	-3.328	3.206	0.766	5.895	-7.120
433210.846	NaN	2.739	7.304	-4.924	1510.623	1500.366	1502.564	-2.519	-3.344	3.176	0.612	5.971	-7.349
433211.823	NaN	2.739	7.304	-4.924	1511.355	1499.634	1501.099	-2.534	-3.313	3.191	0.612	5.895	-7.426
433212.799	NaN	2.739	7.304	-4.924	1509.890	1499.634	1499.634	-2.321	-3.405	3.191	0.689	5.818	-7.273
433213.776	NaN	2.739	7.304	-4.935	1509.890	1500.366	1500.366	-2.153	-3.435	3.206	0.536	5.971	-7.349
433214.752	NaN	2.728	7.304	-4.935	1511.355	1500.366	1498.168	-2.046	-3.252	3.206	0.612	5.971	-7.349
433215.729	NaN	2.750	7.304	-4.924	1510.623	1500.366	1499.634	-2.031	-3.191	3.405	0.689	5.895	-7.273
433216.705	NaN	2.739	7.304	-4.935	1510.623	1499.634	1500.366	-2.168	-3.160	3.374	0.612	5.971	-7.273
433217.682	NaN	2.739	7.304	-4.946	1510.623	1499.634	1500.366	-2.397	-3.252	3.252	0.536	5.971	-7.273
433218.658	NaN	2.739	7.304	-4.957	1509.890	1498.168	1500.366	-2.244	-3.405	3.252	0.536	5.971	-7.196
433219.635	NaN	2.739	7.315	-4.957	1510.623	1501.099	1498.901	-2.000	-3.389	3.191	0.536	5.971	-7.426
433220.612	NaN	2.739	7.315	-4.946	1511.355	1499.634	1501.099	-1.893	-3.328	3.115	0.612	5.971	-7.273
433221.588	NaN	2.728	7.304	-4.957	1510.623	1499.634	1501.099	-1.924	-3.282	2.992	0.766	5.971	-7.196
433222.565	NaN	2.739	7.304	-4.935	1510.623	1499.634	1499.634	-2.107	-3.221	3.069	0.612	5.818	-7.349
433223.541	NaN	2.728	7.293	-4.946	1512.088	1498.901	1501.832	-2.153	-3.237	3.115	0.612	5.971	-7.273
433224.518	NaN	2.739	7.304	-4.946	1510.623	1500.366	1501.099	-2.107	-3.252	3.115	0.689	5.971	-7.196
433225.494	NaN	2.728	7.304	-4.967	1510.623	1500.366	1498.901	-2.168	-3.206	3.252	0.689	5.818	-8.421
433226.471	NaN	2.728	7.304	-4.957	1509.158	1498.168	1499.634	-2.260	-3.328	3.176	0.612	5.895	-7.273
433227.448	NaN	2.739	7.326	-4.935	1510.623	1499.634	1500.366	-2.305	-3.374	3.237	0.689	5.971	-7.349
433228.424	NaN	2.728	7.315	-4.946	1510.623	1500.366	1500.366	-2.382	-3.344	3.191	0.612	6.048	-7.196
433229.401	NaN	2.728	7.315	-4.935	1510.623	1500.366	1500.366	-2.305	-3.252	3.176	0.612	5.971	-7.349
433230.377	NaN	2.728	7.315	-4.946	1510.623	1500.366	1499.634	-2.244	-3.344	3.023	0.536	5.971	-7.196
433231.354	NaN	2.728	7.315	-4.935	1510.623	1498.901	1500.366	-2.031	-3.374	3.084	0.612	5.971	-7.349
433232.330	NaN	2.717	7.304	-4.946	1510.623	1500.366	1497.436	-2.031	-3.435	3.282	0.459	5.971	-7.349
433233.307	NaN	2.739	7.315	-4.935	1511.355	1499.634	1500.366	-2.122	-3.405	3.267	0.536	5.971	-7.426
433234.283	NaN	2.728	7.293	-4.935	1510.623	1499.634	1501.099	-2.260	-3.389	3.252	0.612	5.971	-7.273
433235.260	NaN	2.739	7.293	-4.946	1512.088	1498.901	1501.099	-2.397	-3.420	3.145	0.536	5.971	-7.196
433236.237	NaN	2.728	7.293	-4.967	1510.623	1499.634	1500.366	-2.443	-3.466	3.084	0.612	5.971	-7.273
433237.213	NaN	2.728	7.304	-4.978	1510.623	1500.366	1500.366	-2.198	-3.328	3.221	0.536	5.895	-7.196
433238.190	NaN	2.728	7.304	-4.967	1511.355	1500.366	1500.366	-1.954	-3.344	3.221	0.612	5.818	-7.349
433239.166	NaN	2.728	7.304	-4.967	1511.355	1499.634	1501.099	-2.046	-3.389	3.115	0.612	5.818	-7.273
433240.143	NaN	2.728	7.304	-4.978	1510.623	1498.901	1502.564	-2.229	-3.450	3.053	0.612	5.895	-7.426
433241.119	NaN	2.728	7.304	-4.978	1510.623	1498.901	1501.099	-2.305	-3.252	3.008	0.766	5.818	-7.349
433242.096	NaN	2.728	7.293	-4.967	1509.890	1498.901	1499.634	-2.153	-3.145	3.084	0.612	5.971	-7.273
433243.073	NaN	2.739	7.304	-4.946	1510.623	1500.366	1501.099	-2.015	-3.130	2.962	0.612	5.895	-7.502
433244.049	NaN	2.739	7.304	-4.935	1511.355	1500.366	1500.366	-2.214	-3.176	2.916	0.689	5.971	-7.196
433245.026	NaN	2.739	7.304	-4.935	1510.623	1499.634	1501.832	-2.351	-3.160	2.962	0.612	6.048	-7.349
433246.002	NaN	2.717	7.293	-4.924	1510.623	1500.366	1500.366	-2.137	-3.206	3.176	0.689	6.124	-7.273
433246.979	NaN	2.728	7.304	-4.902	1510.623	1500.366	1501.832	-2.015	-3.450	3.084	0.689	5.895	-7.273
433247.955	NaN	2.728	7.304	-4.902	1511.355	1500.366	1501.832	-2.076	-3.344	3.130	0.459	5.971	-7.349
433248.932	NaN	2.728	7.304	-4.913	1511.355	1499.634	1501.099	-1.954	-3.359	3.069	0.612	5.971	-7.196
433249.908	NaN	2.717	7.293	-4.924	1509.890	1499.634	1501.099	-2.122	-3.221	2.916	0.689	5.971	-7.273
433250.885	NaN	2.728	7.304	-4.935	1510.623	1500.366	1498.901	-2.198	-3.405	3.008	0.689	5.971	-7.196
433251.862	NaN	2.728	7.293	-4.935	1509.890	1499.634	1501.099	-2.275	-3.359	3.191	0.536	5.971	-7.273
433252.838	3736842735.193	2.728	7.293	-4.935	1509.890	1500.366	1499.634	-2.183	-3.206	3.176	0.612	5.895	-7.120
433253.815	NaN	2.728	7.293	-4.935	1510.623	1499.634	1499.634	-2.214	-3.130	3.099	0.612	5.971	-7.273
433254.791	NaN	2.728	7.293	-4.946	1510.623	1499.634	1499.634	-2.351	-3.237	3.069	0.536	5.895	-7.273
433255.768	NaN	2.728	7.293	-4.946	1511.355	1500.366	1501.099	-2.382	-3.282	3.008	0.536	5.971	-7.196
433256.744	NaN	2.728	7.283	-4.946	1510.623	1499.634	1500.366	-2.107	-3.237	3.130	0.689	5.818	-7.273
433257.721	NaN	2.717	7.293	-4.946	1511.355	1498.901	1500.366	-1.924	-3.313	3.160	0.766	5.971	-7.196
433258.698	NaN	2.717	7.315	-4.913	1510.623	1499.634	1499.634	-2.137	-3.206	2.947	0.612	5.895	-7.196
433259.674	NaN	2.717	7.315	-4.935	1509.890	1498.901	1500.366	-2.107	-3.053	3.053	0.689	5.895	-7.349
433260.651	NaN	2.728	7.315	-4.935	1511.355	1498.168	1498.901	-2.260	-3.359	2.977	0.689	5.971	-7.196
433261.627	NaN	2.717	7.304	-4.913	1510.623	1499.634	1500.366	-2.382	-3.466	2.794	0.612	5.895	-7.273
433262.604	NaN	2.717	7.315	-4.924	1509.158	1498.901	1499.634	-2.183	-3.389	2.779	0.612	5.971	-7.349
433263.580	NaN	2.728	7.304	-4.935	1511.355	1498.901	1500.366	-1.985	-3.206	2.702	0.689	5.971	-7.196
433264.557	NaN	2.728	7.283	-4.935	1510.623	1499.634	1500.366	-2.000	-3.145	2.824	0.612	5.895	-7.120
433265.533	NaN	2.739	7.304	-4.913	1510.623	1498.901	1500.366	-2.076	-3.160	3.023	0.689	5.895	-7.196
433266.510	NaN	2.728	7.293	-4.902	1511.355	1498.901	1500.366	-2.183	-3.282	3.069	0.689	5.971	-7.349
433267.487	NaN	2.728	7.283	-4.913	1509.890	1499.634	1500.366	-1.939	-3.252	3.160	0.536	5.971	-7.273
433268.463	NaN	2.739	7.272	-4.902	1506.227	1499.634	1501.099	-1.939	-3.145	3.115	0.612	5.971	-7.273
433269.440	NaN	2.750	7.283	-4.891	1510.623	1500.366	1499.634	-1.954	-2.962	3.084	0.612	5.895	-7.196
433270.416	NaN	2.739	7.283	-4.891	1509.890	1498.901	1500.366	-2.031	-3.115	3.008	0.612	5.971	-7.273
433271.393	NaN	2.739	7.293	-4.902	1512.088	1499.634	1501.099	-2.153	-3.221	2.901	0.612	5.895	-7.273
433272.369	NaN	2.728	7.283	-4.913	1509.158	1499.634	1500.366	-2.290	-3.252	2.870	0.459	5.818	-7.120
433273.346	NaN	2.739	7.293	-4.913	1509.158	1500.366	1499.634	-2.412	-3.298	2.763	0.689	5.895	-7.196
433274.323	NaN	2.750	7.293	-4.913	1511.355	1499.634	1500.366	-2.214	-3.191	2.855	0.689	5.895	-7.120
433275.299	NaN	2.739	7.293	-4.935	1511.355	1499.634	1501.832	-2.092	-3.099	2.947	0.612	5.971	-7.273
433276.276	NaN	2.739	7.283	-4.924	1509.890	1499.634	1500.366	-2.321	-3.115	2.901	0.459	5.818	-7.196
433277.252	NaN	2.728	7.293	-4.935	1511.355	1499.634	1499.634	-2.382	-3.145	2.962	0.689	5.895	-7.273
433278.229	NaN	2.728	7.293	-4.924	1509.890	1500.366	1499.634	-2.092	-3.206	2.962	0.536	5.818	-7.273
433279.205	NaN	2.739	7.293	-4.924	1511.355	1498.901	1499.634	-1.924	-3.115	3.176	0.689	5.895	-7.273
433280.182	NaN	2.728	7.293	-4.913	1510.623	1499.634	1500.366	-2.153	-3.053	3.099	0.689	5.971	-7.120
433281.158	NaN	2.728	7.293	-4.924	1509.158	1499.634	1501.099	-2.275	-3.099	2.824	0.536	5.971	-7.426
433282.135	NaN	2.739	7.293	-4.913	1512.088	1499.634	1500.366	-2.183	-3.206	2.656	0.536	5.971	-7.426
433283.112	NaN	2.728	7.293	-4.913	1511.355	1500.366	1501.099	-2.305	-3.328	2.748	0.689	5.971	-7.273
433284.088	NaN	2.717	7.283	-4.913	1510.623	1499.634	1501.099	-2.244	-3.405	2.916	0.536	6.048	-7.196
433285.065	NaN	2.717	7.304	-4.924	1509.890	1499.634	1501.099	-2.122	-3.084	2.885	0.612	6.048	-7.273
433286.041	NaN	2.717	7.293	-4.935	1511.355	1499.634	1500.366	-2.290	-2.977	2.901	0.536	5.818	-7.196
433287.018	NaN	2.717	7.293	-4.935	1510.623	1498.901	1501.099	-2.397	-2.992	2.794	0.536	5.971	-7.349
433287.994	NaN	2.717	7.304	-4.924	1509.158	1499.634	1500.366	-2.382	-3.176	2.748	0.459	5.971	-7.349
433288.971	NaN	2.707	7.304	-4.935	1511.355	1498.901	1501.099	-2.290	-3.221	2.885	0.612	5.971	-7.273
433289.948	NaN	2.707	7.315	-4.946	1510.623	1498.901	1499.634	-2.198	-3.221	3.038	0.612	6.201	-7.273
433290.924	NaN	2.707	7.304	-4.946	1510.623	1500.366	1500.366	-2.275	-3.252	2.794	0.689	6.048	-7.273
433291.901	NaN	2.717	7.304	-4.935	1511.355	1499.634	1501.832	-2.244	-3.374	2.702	0.689	5.895	-7.349
433292.877	NaN	2.707	7.304	-4.946	1510.623	1498.901	1500.366	-2.214	-3.282	2.672	0.612	6.048	-7.349
433293.854	NaN	2.717	7.304	-4.935	1509.890	1499.634	1501.832	-2.198	-3.267	2.840	0.612	5.895	-7.196
433294.830	NaN	2.707	7.293	-4.935	1510.623	1498.901	1501.099	-2.137	-3.267	3.008	0.689	5.971	-7.196
433295.807	NaN	2.717	7.293	-4.946	1509.890	1498.901	1500.366	-2.275	-3.282	2.824	0.612	5.971	-7.426
433296.783	NaN	2.717	7.293	-4.935	1510.623	1499.634	1500.366	-2.168	-3.160	2.702	0.689	5.971	-6.124
433297.760	NaN	2.728	7.293	-4.946	1509.890	1500.366	1500.366	-2.229	-3.344	2.702	0.689	5.895	-7.349
433298.737	NaN	2.717	7.293	-4.946	1510.623	1499.634	1500.366	-2.198	-3.252	2.916	0.689	5.971	-7.273
433299.713	NaN	2.707	7.304	-4.946	1511.355	1499.634	1501.099	-2.214	-3.160	2.809	0.612	5.971	-7.426
433300.690	NaN	2.707	7.304	-4.946	1510.623	1499.634	1501.832	-2.260	-3.191	2.763	0.689	5.971	-7.196
433301.666	NaN	2.707	7.293	-4.957	1510.623	1500.366	1500.366	-2.275	-3.145	2.885	0.766	5.818	-7.426
433302.643	NaN	2.717	7.304	-4.935	1510.623	1499.634	1500.366	-2.290	-3.145	2.885	0.536	5.971	-7.273
433303.619	NaN	2.707	7.304	-4.946	1509.890	1499.634	1501.099	-2.260	-3.176	2.916	0.612	6.124	-7.426
433304.596	NaN	2.728	7.315	-4.946	1511.355	1500.366	1500.366	-2.336	-3.191	2.855	0.536	5.895	-7.196
433305.573	NaN	2.728	7.304	-4.946	1510.623	1498.901	1498.901	-2.183	-3.053	2.702	0.689	6.048	-7.349
433306.549	NaN	2.739	7.304	-4.946	1509.890	1498.901	1499.634	-2.153	-3.191	2.687	0.612	5.971	-7.273
433307.526	NaN	2.750	7.304	-4.946	1512.088	1498.901	1501.099	-2.382	-3.084	2.641	0.612	5.895	-7.273
433308.502	NaN	2.739	7.304	-4.946	1510.623	1500.366	1500.366	-2.183	-3.023	2.702	0.612	5.895	-7.349
433309.479	NaN	2.728	7.304	-4.935	1511.355	1500.366	1500.366	-2.137	-3.008	2.641	0.766	5.971	-7.196
433310.455	NaN	2.728	7.315	-4.935	1510.623	1499.634	1500.366	-2.412	-3.130	2.885	0.689	5.971	-7.196
433311.432	NaN	2.728	7.304	-4.935	1509.890	1498.901	1499.634	-2.290	-3.237	2.931	0.689	5.895	-7.273
433312.408	NaN	2.739	7.304	-4.935	1509.890	1499.634	1500.366	-2.183	-3.267	2.718	0.689	5.895	-7.196
433313.385	NaN	2.728	7.293	-4.946	1509.890	1498.901	1500.366	-2.260	-3.145	2.656	0.689	5.971	-7.349
433314.362	NaN	2.739	7.304	-4.935	1509.158	1499.634	1501.099	-2.122	-3.206	2.687	0.689	5.971	-7.273
433315.338	NaN	2.739	7.293	-4.935	1511.355	1499.634	1501.832	-1.954	-3.405	2.794	0.612	5.895	-7.349
433316.315	NaN	2.728	7.304	-4.946	1510.623	1499.634	1499.634	-1.832	-3.206	2.962	0.689	5.971	-7.196
433317.291	NaN	2.728	7.304	-4.946	1509.890	1500.366	1498.168	-2.046	-2.977	2.824	0.689	5.895	-7.273
433318.268	NaN	2.728	7.315	-4.935	1510.623	1500.366	1499.634	-2.382	-2.992	2.672	0.612	5.818	-7.273
433319.244	NaN	2.717	7.304	-4.935	1509.890	1500.366	1499.634	-2.290	-3.084	2.763	0.766	5.895	-7.196
433320.221	NaN	2.707	7.304	-4.935	1511.355	1499.634	1500.366	-2.275	-3.237	2.794	0.536	5.971	-7.120
433321.198	NaN	2.696	7.315	-4.913	1509.890	1498.901	1500.366	-2.198	-3.191	2.779	0.612	5.895	-7.120
433322.174	NaN	2.696	7.315	-4.924	1511.355	1499.634	1499.634	-2.351	-3.038	2.702	0.612	5.971	-7.426
433323.151	NaN	2.707	7.315	-4.924	1510.623	1499.634	1501.099	-2.198	-3.069	2.641	0.689	5.971	-7.349
433324.127	NaN	2.707	7.315	-4.946	1510.623	1499.634	1500.366	-2.153	-3.191	2.489	0.612	5.971	-7.196
433325.104	NaN	2.717	7.293	-4.935	1510.623	1498.901	1500.366	-2.229	-3.298	2.626	0.689	5.971	-7.349
433326.080	NaN	2.717	7.293	-4.935	1509.890	1499.634	1500.366	-2.092	-3.038	2.672	0.612	5.971	-7.196
433327.057	NaN	2.728	7.283	-4.935	1509.890	1498.168	1500.366	-1.939	-2.824	2.855	0.612	5.895	-7.273
433328.033	NaN	2.717	7.293	-4.946	1509.890	1498.901	1499.634	-2.092	-2.992	2.855	0.612	6.048	-7.426
433329.010	NaN	2.728	7.293	-4.935	1509.158	1499.634	1500.366	-2.260	-2.992	2.733	0.689	5.971	-7.196
433329.987	NaN	2.728	7.293	-4.946	1510.623	1498.901	1499.634	-2.275	-3.053	2.702	0.536	5.895	-7.196
433330.963	NaN	2.728	7.293	-4.946	1509.158	1501.099	1498.168	-2.183	-3.099	2.931	0.612	5.971	-7.349
433331.940	NaN	2.728	7.293	-4.935	1510.623	1499.634	1501.099	-2.122	-2.962	3.038	0.536	6.048	-7.273
433332.916	NaN	2.717	7.304	-4.935	1509.890	1501.099	1499.634	-2.107	-3.008	2.931	0.536	5.895	-7.273
433333.893	NaN	2.717	7.304	-4.935	1509.890	1498.901	1500.366	-1.954	-2.977	2.855	0.689	5.895	-7.273
433334.869	NaN	2.707	7.315	-4.946	1509.158	1498.901	1499.634	-1.969	-2.947	2.794	0.612	6.048	-7.273
433335.846	NaN	2.717	7.315	-4.946	1510.623	1499.634	1501.099	-2.336	-2.931	2.550	0.689	5.895	-7.120
