Timestamp	PC Timestamp	Low Noise Accelerometer X	Low Noise Accelerometer Y	Low Noise Accelerometer Z	Int A12	Int A13	Int A14	Gyroscope X	Gyroscope Y	Gyroscope Z	Wide Range Accelerometer X	Wide Range Accelerometer Y	Wide Range Accelerometer Z
238122.955	NaN	-3.163	1.457	9.478	1506.227	1504.029	1509.890	7.649	-0.809	-14.000	-5.742	-0.383	8.421
238123.932	NaN	-3.152	1.457	9.489	1506.227	1504.029	1511.355	7.649	-0.824	-13.863	-5.818	-0.459	8.498
238124.908	NaN	-3.152	1.457	9.478	1506.227	1504.029	1509.890	7.649	-1.023	-13.832	-5.818	-0.383	8.344
238125.885	NaN	-3.152	1.457	9.467	1504.762	1504.029	1511.355	7.527	-0.947	-13.695	-5.742	-0.459	8.421
238126.862	NaN	-3.152	1.457	9.467	1505.495	1503.297	1510.623	7.267	-0.763	-13.740	-5.818	-0.306	8.421
238127.838	NaN	-3.152	1.457	9.457	1505.495	1504.029	1509.890	7.282	-0.672	-14.015	-5.742	-0.383	8.421
238128.815	NaN	-3.152	1.457	9.446	1504.762	1504.029	1509.890	7.298	-0.916	-14.153	-5.742	-0.306	8.344
238129.791	NaN	-3.152	1.467	9.446	1505.495	1504.029	1512.088	7.450	-1.069	-14.000	-5.818	-0.459	8.421
238130.768	NaN	-3.152	1.467	9.446	1504.762	1503.297	1510.623	7.618	-1.084	-14.000	-5.818	-0.306	8.421
238131.744	NaN	-3.152	1.457	9.446	1505.495	1504.029	1510.623	7.634	-1.084	-13.847	-5.742	-0.306	8.421
238132.721	NaN	-3.141	1.457	9.446	1504.762	1504.029	1511.355	7.664	-0.947	-13.710	-5.742	-0.459	8.498
238133.698	NaN	-3.152	1.467	9.457	1506.227	1504.029	1510.623	7.450	-0.947	-13.786	-5.665	-0.306	8.498
238134.674	NaN	-3.152	1.457	9.457	1505.495	1504.029	1511.355	7.313	-1.008	-13.939	-5.818	-0.306	8.498
238135.651	NaN	-3.141	1.457	9.467	1504.029	1504.762	1510.623	7.511	-1.053	-13.863	-5.895	-0.230	8.421
238136.627	NaN	-3.152	1.467	9.457	1506.227	1504.762	1511.355	7.603	-1.069	-13.847	-5.742	-0.459	8.574
238137.604	NaN	-3.163	1.467	9.457	1505.495	1503.297	1509.890	7.481	-0.992	-13.786	-5.742	-0.306	8.421
238138.580	NaN	-3.141	1.467	9.457	1505.495	1504.029	1510.623	7.481	-0.992	-13.847	-5.742	-0.306	8.421
238139.557	NaN	-3.141	1.467	9.457	1505.495	1503.297	1509.158	7.389	-0.962	-13.802	-5.818	-0.459	8.421
238140.533	NaN	-3.141	1.446	9.457	1505.495	1504.029	1511.355	7.221	-1.023	-13.802	-5.818	-0.383	8.344
238141.510	NaN	-3.141	1.457	9.467	1505.495	1504.029	1509.890	7.282	-1.115	-13.786	-5.818	-0.306	8.421
238142.487	NaN	-3.130	1.457	9.478	1504.762	1504.029	1510.623	7.252	-1.084	-13.710	-5.818	-0.459	8.498
238143.463	NaN	-3.141	1.457	9.478	1505.495	1504.029	1510.623	7.435	-1.099	-13.710	-5.742	-0.383	8.421
238144.440	NaN	-3.141	1.467	9.478	1504.029	1503.297	1509.890	7.679	-0.870	-13.954	-5.742	-0.383	8.344
238145.416	NaN	-3.152	1.457	9.467	1505.495	1504.029	1510.623	7.573	-0.611	-13.969	-5.818	-0.459	8.498
238146.393	NaN	-3.141	1.467	9.457	1505.495	1504.029	1510.623	7.603	-0.733	-13.817	-5.895	-0.383	8.498
238147.369	NaN	-3.141	1.457	9.457	1504.762	1503.297	1509.890	7.527	-0.550	-13.649	-5.895	-0.383	8.421
238148.346	NaN	-3.152	1.467	9.457	1505.495	1503.297	1510.623	7.145	-0.702	-13.542	-5.818	-0.383	8.344
238149.323	NaN	-3.152	1.467	9.457	1504.029	1504.029	1510.623	7.145	-0.840	-13.603	-5.895	-0.459	8.421
238150.299	NaN	-3.141	1.467	9.446	1504.762	1503.297	1509.890	7.328	-0.763	-13.786	-5.818	-0.230	8.344
238151.276	NaN	-3.130	1.478	9.457	1505.495	1502.564	1509.158	7.496	-0.748	-13.695	-5.742	-0.230	8.421
238152.252	NaN	-3.130	1.478	9.446	1505.495	1504.029	1509.890	7.206	-0.885	-13.603	-5.818	-0.459	8.421
238153.229	NaN	-3.130	1.467	9.457	1506.960	1504.029	1509.158	7.130	-0.840	-13.863	-5.895	-0.306	8.344
238154.205	NaN	-3.141	1.457	9.446	1506.960	1503.297	1510.623	7.160	-0.947	-13.954	-5.665	-0.459	8.421
238155.182	NaN	-3.141	1.457	9.446	1505.495	1503.297	1508.425	7.252	-0.901	-13.908	-5.895	-0.383	8.421
238156.158	NaN	-3.120	1.457	9.446	1504.029	1503.297	1508.425	7.420	-0.794	-13.893	-5.818	-0.306	8.421
238157.135	NaN	-3.120	1.467	9.446	1505.495	1504.029	1510.623	7.435	-1.023	-13.832	-5.818	-0.459	8.421
238158.112	NaN	-3.130	1.457	9.446	1504.762	1504.029	1510.623	7.389	-1.008	-13.847	-5.818	-0.306	8.344
238159.088	NaN	-3.130	1.467	9.457	1505.495	1504.762	1509.158	7.344	-1.008	-14.000	-5.818	-0.536	8.421
238160.065	NaN	-3.120	1.489	9.467	1504.762	1504.029	1510.623	7.405	-0.931	-13.893	-5.971	-0.306	8.498
238161.041	NaN	-3.120	1.489	9.467	1505.495	1503.297	1510.623	7.420	-0.947	-13.756	-5.818	-0.459	8.498
238162.018	NaN	-3.130	1.489	9.478	1504.762	1504.029	1510.623	7.664	-0.916	-13.817	-5.742	-0.459	8.574
238162.994	NaN	-3.130	1.478	9.478	1506.227	1504.029	1510.623	7.664	-0.931	-13.985	-5.971	-0.383	8.344
238163.971	NaN	-3.130	1.478	9.489	1506.960	1504.029	1510.623	7.389	-0.901	-13.924	-5.818	-0.383	8.421
238164.948	NaN	-3.141	1.478	9.489	1506.227	1503.297	1509.890	7.557	-0.947	-13.863	-5.818	-0.306	8.191
238165.924	NaN	-3.130	1.467	9.489	1504.762	1504.029	1509.890	7.511	-1.023	-13.847	-5.818	-0.383	8.421
238166.901	NaN	-3.130	1.457	9.478	1504.762	1504.762	1510.623	7.389	-0.870	-13.725	-5.818	-0.383	8.344
238167.877	NaN	-3.141	1.457	9.467	1506.227	1504.762	1509.890	7.527	-0.901	-13.832	-5.895	-0.383	8.574
238168.854	NaN	-3.152	1.457	9.467	1505.495	1502.564	1509.890	7.496	-0.794	-13.786	-5.895	-0.459	8.344
238169.830	NaN	-3.141	1.457	9.478	1504.762	1502.564	1510.623	7.359	-0.641	-13.710	-5.895	-0.306	8.421
238170.807	NaN	-3.130	1.467	9.489	1505.495	1503.297	1509.890	7.267	-0.534	-13.786	-5.895	-0.383	8.421
238171.783	NaN	-3.141	1.467	9.478	1504.029	1504.029	1509.890	7.450	-0.641	-13.924	-5.818	-0.383	8.421
238172.760	NaN	-3.141	1.467	9.467	1505.495	1504.029	1508.425	7.466	-0.931	-13.817	-5.818	-0.383	8.421
238173.737	NaN	-3.141	1.457	9.457	1506.227	1503.297	1510.623	7.481	-1.023	-13.817	-5.818	-0.383	8.344
238174.713	NaN	-3.152	1.457	9.457	1506.227	1504.029	1509.890	7.527	-1.038	-14.015	-5.818	-0.459	8.344
238175.690	NaN	-3.152	1.457	9.457	1505.495	1502.564	1509.890	7.374	-0.733	-13.802	-5.895	-0.383	8.344
238176.666	NaN	-3.152	1.467	9.457	1504.762	1503.297	1509.158	7.313	-0.702	-13.664	-5.818	-0.383	8.421
238177.643	NaN	-3.152	1.478	9.467	1505.495	1504.762	1509.890	7.405	-0.840	-13.756	-5.895	-0.383	8.344
238178.619	NaN	-3.152	1.478	9.467	1506.227	1504.029	1510.623	7.496	-1.023	-13.954	-5.742	-0.459	8.421
238179.596	NaN	-3.152	1.478	9.457	1505.495	1504.029	1509.158	7.618	-0.855	-13.939	-5.742	-0.459	8.498
238180.573	NaN	-3.152	1.467	9.467	1504.762	1504.029	1510.623	7.573	-0.718	-13.847	-5.742	-0.306	8.421
238181.549	NaN	-3.141	1.478	9.467	1506.227	1504.029	1511.355	7.588	-0.809	-13.771	-5.818	-0.459	8.344
238182.526	NaN	-3.141	1.478	9.478	1506.227	1504.029	1510.623	7.420	-0.992	-13.679	-5.895	-0.306	8.421
238183.502	NaN	-3.152	1.467	9.478	1505.495	1504.029	1509.890	7.389	-0.962	-13.863	-5.818	-0.383	8.344
238184.479	NaN	-3.163	1.467	9.489	1504.762	1504.029	1508.425	7.313	-0.718	-14.061	-5.818	-0.459	8.574
238185.455	NaN	-3.163	1.467	9.500	1502.564	1503.297	1509.158	7.450	-0.504	-13.924	-5.818	-0.459	8.498
238186.432	NaN	-3.163	1.478	9.511	1505.495	1504.029	1511.355	7.603	-0.397	-13.557	-5.895	-0.306	8.498
238187.408	NaN	-3.163	1.478	9.511	1505.495	1504.029	1510.623	7.740	-0.580	-13.450	-5.895	-0.383	8.421
238188.385	NaN	-3.163	1.489	9.500	1505.495	1504.029	1509.890	7.542	-0.794	-13.542	-5.818	-0.383	8.498
238189.362	NaN	-3.163	1.478	9.511	1505.495	1504.029	1510.623	7.542	-0.794	-13.679	-5.742	-0.383	8.344
238190.338	NaN	-3.163	1.489	9.489	1505.495	1504.029	1509.158	7.557	-0.885	-13.786	-5.818	-0.306	8.421
238191.315	NaN	-3.152	1.478	9.478	1505.495	1504.029	1510.623	7.237	-1.084	-13.802	-5.818	-0.459	8.191
238192.291	NaN	-3.163	1.489	9.457	1505.495	1504.029	1510.623	7.344	-0.916	-13.924	-5.665	-0.306	8.191
238193.268	NaN	-3.163	1.478	9.457	1504.029	1503.297	1510.623	7.664	-0.901	-13.893	-5.818	-0.383	8.421
238194.244	NaN	-3.163	1.478	9.457	1504.762	1504.029	1509.158	7.405	-0.763	-13.924	-5.895	-0.383	8.421
238195.221	NaN	-3.152	1.467	9.457	1505.495	1504.762	1512.088	7.206	-0.885	-13.832	-5.742	-0.306	8.344
238196.198	NaN	-3.152	1.467	9.446	1504.762	1504.029	1511.355	7.191	-0.763	-13.817	-5.818	-0.383	8.344
238197.174	NaN	-3.141	1.457	9.446	1504.762	1504.029	1511.355	7.359	-0.718	-13.802	-5.818	-0.383	8.344
238198.151	NaN	-3.141	1.457	9.435	1504.762	1503.297	1509.890	7.603	-0.855	-13.710	-5.895	-0.383	8.421
238199.127	NaN	-3.152	1.467	9.435	1505.495	1504.762	1509.890	7.542	-0.901	-13.740	-5.818	-0.306	8.421
238200.104	NaN	-3.152	1.467	9.457	1504.762	1504.762	1511.355	7.206	-0.733	-13.878	-5.895	-0.306	8.651
238201.080	NaN	-3.152	1.467	9.467	1504.762	1504.762	1511.355	7.389	-0.748	-13.954	-5.818	-0.459	8.421
238202.057	NaN	-3.163	1.467	9.467	1505.495	1503.297	1510.623	7.435	-0.779	-13.847	-5.818	-0.459	8.498
238203.033	NaN	-3.163	1.467	9.467	1504.762	1503.297	1510.623	7.298	-0.809	-13.710	-5.742	-0.383	8.498
238204.010	NaN	-3.163	1.478	9.478	1505.495	1504.029	1509.890	7.328	-0.855	-13.664	-5.742	-0.383	8.421
238204.987	NaN	-3.152	1.478	9.489	1504.762	1504.029	1510.623	7.359	-0.763	-13.557	-5.742	-0.230	8.421
238205.963	NaN	-3.152	1.489	9.489	1505.495	1504.029	1510.623	7.145	-0.748	-13.710	-5.742	-0.459	8.344
238206.940	NaN	-3.152	1.478	9.478	1505.495	1504.029	1511.355	7.053	-0.611	-13.786	-5.742	-0.306	8.421
238207.916	NaN	-3.163	1.467	9.489	1504.762	1503.297	1510.623	7.145	-0.565	-13.802	-5.818	-0.459	8.268
238208.893	NaN	-3.141	1.467	9.500	1505.495	1504.029	1510.623	7.313	-0.672	-13.847	-5.742	-0.383	8.421
238209.869	NaN	-3.152	1.478	9.478	1506.960	1504.029	1510.623	7.481	-0.794	-14.061	-5.818	-0.306	8.498
238210.846	NaN	-3.152	1.478	9.478	1504.029	1503.297	1509.158	7.542	-0.687	-13.954	-5.818	-0.230	8.344
238211.823	NaN	-3.152	1.478	9.467	1504.762	1503.297	1510.623	7.481	-0.611	-13.664	-5.742	-0.383	8.421
238212.799	NaN	-3.130	1.467	9.467	1505.495	1504.762	1510.623	7.328	-0.702	-13.573	-5.895	-0.383	8.498
238213.776	NaN	-3.141	1.467	9.457	1505.495	1504.029	1512.088	7.099	-0.779	-13.557	-5.665	-0.383	8.268
238214.752	NaN	-3.152	1.467	9.457	1504.762	1504.029	1511.355	7.191	-0.733	-13.740	-5.742	-0.459	8.421
238215.729	NaN	-3.163	1.467	9.446	1506.227	1504.029	1511.355	7.237	-0.718	-13.863	-5.895	-0.383	8.344
238216.705	NaN	-3.163	1.457	9.446	1505.495	1503.297	1509.890	7.344	-0.840	-13.817	-5.742	-0.306	8.344
238217.682	NaN	-3.152	1.457	9.435	1504.762	1504.762	1509.890	7.298	-0.809	-13.802	-5.818	-0.383	8.344
238218.658	NaN	-3.141	1.446	9.424	1505.495	1504.029	1509.890	7.176	-0.672	-13.771	-5.742	-0.306	8.421
238219.635	NaN	-3.141	1.457	9.435	1506.227	1503.297	1510.623	7.420	-0.763	-13.740	-5.895	-0.230	8.344
238220.612	NaN	-3.141	1.457	9.457	1505.495	1504.029	1510.623	7.435	-0.855	-13.588	-5.818	-0.383	8.421
238221.588	NaN	-3.141	1.467	9.446	1505.495	1504.029	1510.623	7.298	-0.885	-13.634	-5.895	-0.459	8.498
238222.565	NaN	-3.141	1.467	9.446	1504.762	1504.029	1509.890	7.252	-0.763	-13.802	-5.895	-0.459	8.498
238223.541	NaN	-3.141	1.467	9.467	1505.495	1504.029	1510.623	7.267	-0.885	-13.878	-5.818	-0.306	8.421
238224.518	NaN	-3.130	1.467	9.467	1504.029	1504.029	1512.088	7.359	-0.794	-13.817	-5.818	-0.306	8.574
238225.494	NaN	-3.130	1.467	9.478	1505.495	1504.029	1510.623	7.282	-0.794	-13.740	-5.818	-0.306	8.498
238226.471	NaN	-3.130	1.457	9.489	1505.495	1504.762	1510.623	7.298	-0.733	-13.908	-5.818	-0.383	8.344
238227.448	NaN	-3.120	1.457	9.489	1505.495	1504.762	1511.355	7.237	-0.794	-13.939	-5.742	-0.536	8.421
238228.424	NaN	-3.120	1.446	9.489	1504.029	1504.029	1510.623	7.374	-0.794	-13.954	-5.742	-0.306	8.268
238229.401	NaN	-3.120	1.435	9.489	1504.762	1504.762	1509.890	7.557	-0.641	-13.924	-5.818	-0.306	8.421
238230.377	NaN	-3.141	1.446	9.489	1505.495	1504.029	1510.623	7.466	-0.672	-13.817	-5.818	-0.459	8.498
238231.354	NaN	-3.130	1.446	9.489	1505.495	1504.762	1511.355	6.992	-0.565	-13.954	-5.895	-0.306	8.268
238232.330	NaN	-3.130	1.446	9.489	1505.495	1504.762	1512.088	7.206	-0.580	-13.878	-5.742	-0.383	8.498
238233.307	NaN	-3.141	1.457	9.478	1506.227	1504.029	1510.623	7.466	-0.733	-14.000	-5.818	-0.306	8.344
238234.283	NaN	-3.152	1.446	9.457	1504.762	1503.297	1509.158	7.313	-0.824	-13.893	-5.742	-0.306	8.344
238235.260	NaN	-3.141	1.457	9.457	1506.227	1504.762	1509.158	7.053	-0.718	-13.573	-5.971	-0.306	8.344
238236.237	NaN	-3.152	1.457	9.446	1505.495	1503.297	1509.158	7.176	-0.641	-13.542	-5.818	-0.306	8.421
238237.213	NaN	-3.141	1.467	9.457	1505.495	1504.029	1510.623	7.527	-0.672	-13.649	-5.742	-0.459	8.344
238238.190	NaN	-3.152	1.457	9.446	1505.495	1503.297	1510.623	7.542	-0.565	-13.634	-5.818	-0.383	8.344
238239.166	NaN	-3.152	1.467	9.435	1506.227	1503.297	1509.158	7.298	-0.595	-13.725	-5.742	-0.383	8.421
238240.143	NaN	-3.141	1.467	9.435	1504.762	1504.762	1509.890	7.053	-0.641	-13.756	-5.895	-0.383	8.421
238241.119	NaN	-3.141	1.478	9.435	1505.495	1503.297	1510.623	6.885	-0.656	-13.802	-5.895	-0.459	8.344
238242.096	NaN	-3.141	1.467	9.446	1504.762	1504.029	1510.623	7.023	-0.641	-13.878	-5.895	-0.459	8.344
238243.073	NaN	-3.152	1.467	9.446	1505.495	1503.297	1510.623	7.069	-0.672	-13.878	-5.818	-0.306	8.344
238244.049	NaN	-3.141	1.467	9.457	1505.495	1504.029	1509.890	7.160	-0.641	-13.985	-5.818	-0.383	8.421
238245.026	NaN	-3.141	1.467	9.467	1504.029	1504.762	1509.890	7.420	-0.809	-13.817	-5.818	-0.459	8.421
238246.002	NaN	-3.141	1.467	9.467	1504.762	1504.029	1509.890	7.252	-0.840	-13.603	-5.742	-0.383	8.498
238246.979	NaN	-3.141	1.467	9.489	1506.227	1504.029	1509.158	7.313	-0.931	-13.481	-5.742	-0.383	8.421
238247.955	NaN	-3.141	1.457	9.478	1504.762	1504.029	1509.890	7.374	-0.962	-13.557	-5.818	-0.306	8.344
238248.932	NaN	-3.130	1.457	9.489	1505.495	1504.762	1509.158	7.252	-0.824	-13.771	-5.818	-0.459	8.498
238249.908	NaN	-3.141	1.457	9.489	1506.227	1504.029	1510.623	7.282	-0.672	-13.954	-5.742	-0.306	8.498
238250.885	NaN	-3.130	1.457	9.500	1508.425	1503.297	1511.355	7.344	-0.611	-13.756	-5.742	-0.306	8.421
238251.862	NaN	-3.130	1.467	9.478	1504.762	1503.297	1509.890	7.191	-0.443	-13.740	-5.818	-0.383	8.421
238252.838	NaN	-3.141	1.478	9.478	1505.495	1504.029	1510.623	7.053	-0.412	-13.710	-5.895	-0.383	8.344
238253.815	NaN	-3.141	1.478	9.478	1505.495	1504.029	1511.355	7.282	-0.443	-13.802	-5.742	-0.383	8.421
238254.791	NaN	-3.152	1.478	9.478	1505.495	1504.029	1510.623	7.573	-0.504	-13.740	-5.818	-0.459	8.344
238255.768	NaN	-3.152	1.489	9.457	1505.495	1504.029	1509.890	7.405	-0.626	-13.893	-5.895	-0.383	8.421
238256.744	NaN	-3.163	1.478	9.446	1504.029	1502.564	1509.158	7.267	-0.748	-14.061	-5.742	-0.459	8.344
238257.721	NaN	-3.152	1.489	9.435	1506.227	1503.297	1510.623	7.084	-0.748	-14.168	-5.971	-0.459	8.344
238258.698	NaN	-3.152	1.478	9.424	1506.227	1502.564	1509.890	7.145	-0.718	-14.107	-5.895	-0.383	8.268
238259.674	NaN	-3.141	1.478	9.435	1504.762	1503.297	1510.623	7.298	-0.733	-13.954	-5.818	-0.383	8.421
238260.651	NaN	-3.141	1.467	9.435	1504.762	1504.762	1512.088	7.344	-0.672	-13.710	-5.895	-0.383	8.344
238261.627	NaN	-3.141	1.478	9.435	1505.495	1504.029	1509.890	7.160	-0.733	-13.725	-5.818	-0.306	8.421
238262.604	NaN	-3.130	1.467	9.457	1506.227	1504.029	1511.355	7.038	-0.718	-13.740	-5.895	-0.536	8.268
238263.580	NaN	-3.141	1.467	9.457	1504.029	1503.297	1509.158	6.840	-0.687	-13.954	-5.895	-0.459	8.421
238264.557	NaN	-3.141	1.467	9.457	1505.495	1503.297	1509.890	6.901	-0.672	-13.924	-5.895	-0.306	8.344
238265.533	NaN	-3.152	1.467	9.467	1504.762	1503.297	1510.623	7.145	-0.794	-13.832	-5.742	-0.459	8.498
238266.510	NaN	-3.130	1.478	9.478	1506.227	1504.029	1509.890	7.557	-0.870	-13.786	-5.818	-0.306	8.421
238267.487	NaN	-3.152	1.457	9.467	1504.762	1502.564	1509.890	7.527	-0.870	-13.557	-5.818	-0.306	8.498
238268.463	NaN	-3.141	1.467	9.489	1504.762	1504.029	1509.158	7.145	-0.718	-13.450	-5.895	-0.306	8.344
238269.440	NaN	-3.152	1.457	9.489	1505.495	1504.029	1511.355	6.916	-0.489	-13.389	-5.818	-0.306	8.421
238270.416	NaN	-3.152	1.457	9.478	1504.762	1502.564	1510.623	6.855	-0.397	-13.649	-5.971	-0.383	8.421
238271.393	NaN	-3.141	1.467	9.489	1505.495	1504.029	1511.355	7.069	-0.580	-13.985	-5.818	-0.459	8.344
238272.369	NaN	-3.152	1.467	9.467	1506.227	1503.297	1509.158	7.191	-0.733	-13.908	-5.895	-0.459	8.421
238273.346	NaN	-3.141	1.467	9.489	1504.029	1502.564	1509.158	7.252	-0.840	-13.939	-5.895	-0.383	8.574
238274.323	NaN	-3.141	1.478	9.489	1504.762	1504.029	1511.355	7.344	-0.580	-13.969	-5.742	-0.230	8.421
238275.299	NaN	-3.152	1.478	9.500	1504.762	1503.297	1510.623	7.267	-0.427	-13.985	-5.895	-0.383	8.191
238276.276	NaN	-3.141	1.489	9.500	1505.495	1504.762	1510.623	7.115	-0.382	-13.802	-5.818	-0.306	8.344
238277.252	NaN	-3.152	1.478	9.478	1506.227	1503.297	1509.890	7.298	-0.611	-13.832	-5.818	-0.459	8.344
238278.229	NaN	-3.152	1.478	9.467	1504.762	1503.297	1509.890	7.160	-0.672	-13.847	-5.742	-0.383	8.421
238279.205	NaN	-3.163	1.478	9.467	1505.495	1504.029	1509.890	7.145	-0.656	-13.832	-5.971	-0.383	8.344
238280.182	NaN	-3.152	1.478	9.467	1505.495	1504.029	1509.890	7.099	-0.611	-13.985	-5.895	-0.383	8.421
238281.158	NaN	-3.152	1.467	9.467	1504.762	1504.762	1512.821	7.160	-0.763	-14.137	-5.895	-0.230	8.421
238282.135	NaN	-3.163	1.467	9.467	1504.029	1502.564	1510.623	7.130	-0.947	-13.985	-5.895	-0.383	8.344
238283.112	NaN	-3.163	1.478	9.467	1504.029	1502.564	1509.890	7.313	-0.855	-13.817	-5.895	-0.306	8.268
238284.088	NaN	-3.163	1.478	9.467	1505.495	1504.762	1510.623	7.344	-0.702	-13.695	-5.895	-0.306	8.421
238285.065	NaN	-3.163	1.467	9.478	1504.762	1503.297	1509.158	7.191	-0.687	-13.740	-5.895	-0.383	8.268
238286.041	NaN	-3.130	1.467	9.500	1505.495	1504.029	1509.890	7.069	-0.779	-13.832	-5.818	-0.459	8.498
238287.018	NaN	-3.152	1.467	9.478	1504.762	1504.029	1509.890	7.023	-0.840	-14.107	-5.895	-0.230	8.498
238287.994	NaN	-3.152	1.457	9.489	1504.762	1502.564	1509.890	7.008	-0.901	-14.000	-5.742	-0.459	8.421
238288.971	NaN	-3.141	1.467	9.500	1506.227	1504.029	1511.355	7.053	-0.809	-13.786	-5.895	-0.383	8.498
238289.948	NaN	-3.152	1.457	9.489	1504.762	1502.564	1509.158	7.008	-0.611	-13.725	-5.742	-0.459	8.421
238290.924	NaN	-3.130	1.467	9.500	1504.762	1504.029	1509.158	7.145	-0.458	-13.725	-5.818	-0.383	8.344
238291.901	NaN	-3.141	1.467	9.500	1505.495	1503.297	1509.890	7.649	-0.611	-13.695	-5.818	-0.383	8.344
238292.877	NaN	-3.141	1.467	9.500	1504.762	1502.564	1509.158	7.435	-0.611	-13.695	-5.895	-0.459	8.421
238293.854	NaN	-3.141	1.478	9.489	1505.495	1504.762	1510.623	7.069	-0.565	-13.771	-5.818	-0.383	8.344
238294.830	NaN	-3.141	1.478	9.489	1505.495	1504.029	1510.623	6.794	-0.519	-13.786	-5.665	-0.306	8.421
238295.807	NaN	-3.141	1.467	9.478	1505.495	1504.029	1510.623	7.008	-0.489	-13.924	-5.971	-0.383	8.421
238296.783	NaN	-3.152	1.457	9.467	1505.495	1503.297	1510.623	7.206	-0.550	-13.985	-5.895	-0.383	8.268
238297.760	NaN	-3.152	1.467	9.457	1505.495	1504.762	1510.623	7.130	-0.656	-13.725	-5.971	-0.230	8.344
238298.737	NaN	-3.141	1.467	9.457	1505.495	1504.762	1509.890	6.870	-0.641	-13.542	-5.742	-0.230	8.421
238299.713	NaN	-3.141	1.478	9.446	1505.495	1503.297	1510.623	6.794	-0.595	-13.710	-5.742	-0.306	8.421
238300.690	NaN	-3.152	1.478	9.446	1502.564	1504.029	1510.623	6.962	-0.550	-13.954	-5.512	-0.383	8.191
238301.666	NaN	-3.163	1.478	9.435	1506.227	1504.029	1509.890	7.252	-0.504	-13.985	-5.742	-0.306	8.344
238302.643	NaN	-3.152	1.478	9.435	1504.029	1503.297	1508.425	7.130	-0.611	-13.771	-5.818	-0.306	8.421
238303.619	NaN	-3.141	1.489	9.446	1505.495	1504.029	1509.890	6.931	-0.656	-13.634	-5.818	-0.383	8.268
238304.596	NaN	-3.141	1.478	9.435	1504.762	1504.762	1511.355	6.992	-0.779	-13.664	-5.818	-0.306	8.268
238305.573	NaN	-3.152	1.478	9.435	1504.762	1504.029	1509.158	7.053	-0.580	-13.771	-5.742	-0.306	8.421
238306.549	NaN	-3.141	1.489	9.446	1505.495	1504.762	1510.623	6.916	-0.580	-14.031	-5.895	-0.459	8.574
238307.526	NaN	-3.152	1.478	9.457	1504.762	1504.029	1510.623	6.809	-0.763	-14.046	-5.742	-0.383	8.498
238308.502	NaN	-3.152	1.467	9.457	1504.762	1504.029	1510.623	6.870	-0.779	-13.740	-5.818	-0.383	8.344
238309.479	NaN	-3.152	1.478	9.467	1505.495	1504.029	1510.623	6.977	-0.672	-13.649	-5.895	-0.230	8.498
238310.455	NaN	-3.152	1.467	9.478	1504.762	1504.029	1509.890	6.931	-0.534	-13.878	-5.818	-0.383	8.498
238311.432	NaN	-3.130	1.478	9.500	1505.495	1503.297	1510.623	6.885	-0.595	-13.939	-5.818	-0.306	8.421
238312.408	NaN	-3.141	1.467	9.500	1507.692	1503.297	1510.623	6.916	-0.611	-13.847	-5.818	-0.306	8.421
238313.385	NaN	-3.130	1.478	9.500	1505.495	1504.762	1510.623	6.931	-0.565	-13.954	-5.742	-0.230	8.421
238314.362	NaN	-3.141	1.467	9.489	1505.495	1503.297	1509.890	7.053	-0.702	-14.031	-5.818	-0.459	8.344
238315.338	NaN	-3.152	1.478	9.489	1505.495	1504.762	1509.158	7.069	-0.718	-13.878	-5.895	-0.383	8.498
238316.315	NaN	-3.141	1.467	9.500	1504.762	1503.297	1510.623	7.099	-0.595	-13.924	-5.818	-0.383	8.421
238317.291	NaN	-3.152	1.478	9.489	1505.495	1503.297	1509.890	7.023	-0.473	-13.878	-5.895	-0.459	8.421
238318.268	NaN	-3.163	1.478	9.489	1505.495	1503.297	1511.355	6.824	-0.580	-13.954	-5.895	-0.383	8.421
238319.244	NaN	-3.152	1.489	9.467	1504.762	1503.297	1509.158	6.763	-0.702	-14.076	-5.895	-0.383	8.421
238320.221	NaN	-3.141	1.478	9.467	1505.495	1503.297	1509.158	6.992	-0.580	-13.985	-5.895	-0.459	8.421
238321.198	NaN	-3.152	1.489	9.467	1504.762	1504.029	1509.158	7.191	-0.550	-13.740	-5.818	-0.383	8.344
238322.174	NaN	-3.141	1.489	9.457	1504.762	1504.029	1512.088	7.053	-0.687	-13.679	-5.818	-0.383	8.344
238323.151	NaN	-3.141	1.489	9.446	1506.227	1503.297	1508.425	6.687	-0.687	-13.802	-5.818	-0.306	8.344
238324.127	NaN	-3.152	1.489	9.446	1504.029	1504.762	1509.890	6.824	-0.580	-13.740	-5.895	-0.306	8.344
238325.104	NaN	-3.152	1.489	9.446	1505.495	1503.297	1509.158	7.038	-0.748	-13.588	-5.971	-0.383	8.421
238326.080	NaN	-3.163	1.489	9.446	1505.495	1504.029	1510.623	7.099	-0.885	-13.802	-5.742	-0.306	8.344
238327.057	NaN	-3.152	1.489	9.467	1504.029	1503.297	1510.623	7.130	-0.794	-14.000	-5.895	-0.230	8.421
238328.033	NaN	-3.152	1.478	9.467	1505.495	1503.297	1509.158	7.038	-0.611	-14.076	-5.818	-0.306	8.268
238329.010	NaN	-3.141	1.478	9.478	1506.227	1504.762	1509.890	6.779	-0.626	-13.908	-5.818	-0.306	8.344
238329.987	NaN	-3.141	1.467	9.489	1506.227	1503.297	1509.890	6.519	-0.489	-13.847	-5.818	-0.459	8.268
238335.846	NaN	-3.141	1.457	9.511	1504.762	1504.762	1509.890	6.748	-0.779	-13.954	-5.818	-0.383	8.344
238336.823	NaN	-3.152	1.457	9.511	1504.762	1504.029	1509.890	6.779	-0.779	-14.000	-5.895	-0.306	8.344
238337.799	NaN	-3.152	1.467	9.500	1504.762	1504.029	1509.158	6.656	-0.550	-13.878	-5.895	-0.383	8.421
238338.776	NaN	-3.152	1.457	9.500	1504.762	1504.029	1510.623	6.733	-0.519	-13.954	-5.818	-0.459	8.498
238339.752	NaN	-3.152	1.457	9.489	1504.762	1504.029	1509.158	6.763	-0.458	-13.878	-5.742	-0.459	8.344
238340.729	NaN	-3.163	1.467	9.478	1504.762	1504.029	1509.890	6.733	-0.580	-13.771	-5.895	-0.383	8.344
238341.705	NaN	-3.163	1.467	9.457	1505.495	1504.029	1510.623	6.901	-0.687	-13.786	-5.818	-0.383	8.268
238342.682	NaN	-3.152	1.478	9.457	1504.762	1504.762	1510.623	6.901	-0.901	-13.802	-5.818	-0.230	8.344
238343.658	NaN	-3.152	1.478	9.446	1504.762	1504.029	1509.890	6.870	-0.687	-13.863	-5.742	-0.230	8.344
238344.635	NaN	-3.152	1.478	9.446	1505.495	1503.297	1509.890	6.870	-0.611	-13.939	-5.742	-0.383	8.344
238345.612	NaN	-3.141	1.478	9.457	1504.762	1504.029	1509.890	6.733	-0.550	-13.863	-5.742	-0.459	8.421
238346.588	NaN	-3.152	1.467	9.457	1505.495	1504.029	1511.355	6.733	-0.504	-13.802	-5.895	-0.383	8.421
238347.565	NaN	-3.141	1.478	9.457	1505.495	1504.029	1509.158	6.824	-0.626	-13.878	-5.818	-0.383	8.268
238348.541	NaN	-3.141	1.467	9.457	1505.495	1504.029	1509.158	6.901	-0.840	-13.908	-5.818	-0.459	8.498
238349.518	NaN	-3.141	1.478	9.446	1505.495	1503.297	1509.158	6.718	-1.023	-13.832	-5.895	-0.383	8.268
238350.494	NaN	-3.152	1.467	9.457	1505.495	1504.029	1509.158	6.550	-0.855	-13.725	-5.818	-0.306	8.268
238351.471	NaN	-3.152	1.467	9.457	1504.762	1502.564	1510.623	6.870	-0.779	-13.832	-5.971	-0.383	8.421
238352.448	NaN	-3.141	1.478	9.467	1504.762	1504.029	1510.623	6.962	-0.763	-13.924	-5.895	-0.306	8.421
238353.424	NaN	-3.152	1.489	9.489	1505.495	1504.029	1509.890	6.962	-0.565	-13.802	-5.895	-0.383	8.498
238354.401	NaN	-3.163	1.478	9.489	1506.227	1504.029	1510.623	6.824	-0.580	-13.740	-5.818	-0.459	8.421
238355.377	NaN	-3.163	1.478	9.489	1504.029	1504.029	1511.355	6.534	-0.565	-13.679	-5.818	-0.230	8.344
238356.354	NaN	-3.152	1.478	9.500	1504.762	1502.564	1509.890	6.504	-0.504	-13.710	-5.895	-0.383	8.421
238357.330	NaN	-3.141	1.467	9.511	1506.227	1503.297	1510.623	6.626	-0.626	-13.756	-5.742	-0.306	8.574
238358.307	NaN	-3.141	1.467	9.511	1505.495	1504.029	1509.890	6.763	-0.580	-13.847	-5.818	-0.306	8.421
238359.283	NaN	-3.141	1.467	9.511	1506.227	1504.029	1509.890	6.763	-0.550	-13.863	-5.818	-0.459	8.191
238360.260	NaN	-3.130	1.467	9.500	1504.762	1504.762	1510.623	6.718	-0.656	-13.817	-5.895	-0.536	8.421
238361.237	NaN	-3.141	1.467	9.500	1505.495	1504.029	1511.355	6.840	-0.565	-13.771	-5.818	-0.383	8.421
238362.213	NaN	-3.152	1.457	9.489	1504.762	1503.297	1512.088	6.901	-0.687	-13.802	-5.742	-0.383	8.344
238363.190	NaN	-3.163	1.478	9.478	1505.495	1503.297	1512.088	6.916	-0.702	-14.000	-5.818	-0.536	8.268
238364.166	NaN	-3.152	1.478	9.478	1504.762	1504.029	1509.890	6.809	-0.611	-14.046	-5.818	-0.459	8.268
238365.143	NaN	-3.141	1.467	9.467	1504.762	1504.762	1510.623	6.748	-0.519	-14.031	-5.818	-0.383	8.421
238366.119	NaN	-3.141	1.478	9.457	1505.495	1504.029	1509.890	6.916	-0.504	-13.817	-5.818	-0.383	8.344
238367.096	NaN	-3.141	1.478	9.457	1505.495	1504.029	1511.355	6.870	-0.565	-13.863	-5.971	-0.383	8.421
238368.073	NaN	-3.152	1.478	9.457	1504.762	1504.029	1512.088	6.824	-0.672	-13.893	-5.895	-0.306	8.344
238369.049	NaN	-3.141	1.467	9.457	1505.495	1504.029	1510.623	6.718	-0.748	-13.710	-5.818	-0.383	8.421
238370.026	NaN	-3.152	1.467	9.457	1504.762	1503.297	1509.158	6.977	-0.718	-13.832	-5.818	-0.306	8.344
238371.002	NaN	-3.141	1.457	9.467	1505.495	1502.564	1510.623	7.099	-0.962	-13.771	-5.742	-0.383	8.498
238371.979	NaN	-3.141	1.467	9.467	1504.762	1503.297	1510.623	7.038	-0.794	-13.573	-5.818	-0.383	8.344
238372.955	NaN	-3.141	1.457	9.467	1505.495	1504.029	1509.890	6.824	-0.748	-13.573	-5.895	-0.383	8.344
238389.557	NaN	-3.130	1.467	9.457	1504.762	1504.029	1509.890	6.931	-0.519	-13.863	-5.818	-0.459	8.421
238390.533	NaN	-3.152	1.478	9.457	1505.495	1504.029	1510.623	6.840	-0.565	-13.603	-5.818	-0.383	8.498
238391.510	NaN	-3.141	1.478	9.457	1505.495	1504.762	1510.623	6.840	-0.580	-13.603	-5.818	-0.306	8.421
238392.487	NaN	-3.141	1.478	9.446	1504.762	1503.297	1512.088	6.580	-0.611	-13.771	-5.895	-0.383	8.421
238393.463	NaN	-3.152	1.478	9.457	1504.762	1503.297	1509.890	6.641	-0.641	-13.863	-5.895	-0.306	8.344
238394.440	NaN	-3.152	1.478	9.457	1504.762	1503.297	1509.158	6.763	-0.702	-13.893	-5.818	-0.230	8.344
238395.416	NaN	-3.163	1.478	9.467	1505.495	1503.297	1508.425	6.672	-0.626	-13.893	-5.895	-0.383	8.268
238396.393	NaN	-3.141	1.478	9.478	1504.029	1503.297	1509.890	6.718	-0.565	-13.740	-5.895	-0.459	8.498
238397.369	NaN	-3.152	1.478	9.467	1504.762	1503.297	1510.623	6.809	-0.595	-13.634	-5.895	-0.383	8.421
238398.346	NaN	-3.152	1.478	9.467	1504.762	1502.564	1510.623	6.656	-0.504	-13.664	-5.818	-0.383	8.498
238399.323	NaN	-3.152	1.467	9.467	1504.762	1503.297	1509.158	6.687	-0.473	-13.802	-5.895	-0.383	8.498
238400.299	NaN	-3.141	1.489	9.478	1505.495	1504.762	1510.623	6.656	-0.473	-13.924	-5.742	-0.306	8.421
238401.276	NaN	-3.141	1.489	9.478	1506.227	1503.297	1511.355	6.672	-0.565	-14.031	-5.742	-0.383	8.574
238402.252	NaN	-3.141	1.489	9.478	1506.227	1504.029	1510.623	6.840	-0.656	-13.985	-5.665	-0.459	8.421
238403.229	NaN	-3.141	1.489	9.478	1504.029	1503.297	1509.158	6.901	-0.779	-13.740	-5.818	-0.306	8.344
238404.205	NaN	-3.141	1.489	9.478	1504.762	1504.029	1510.623	6.748	-0.595	-13.557	-5.895	-0.383	8.344
238405.182	NaN	-3.130	1.489	9.478	1505.495	1504.762	1510.623	6.611	-0.321	-13.389	-6.048	-0.383	8.498
238406.158	NaN	-3.141	1.489	9.489	1505.495	1503.297	1511.355	6.824	-0.290	-13.588	-5.742	-0.459	8.421
238407.135	NaN	-3.152	1.478	9.478	1504.762	1505.495	1509.890	6.870	-0.489	-13.847	-5.818	-0.383	8.421
238408.112	NaN	-3.174	1.478	9.478	1505.495	1504.029	1509.890	6.901	-0.519	-13.832	-5.742	-0.536	8.421
238409.088	NaN	-3.174	1.478	9.457	1505.495	1504.029	1510.623	6.916	-0.550	-13.786	-5.895	-0.230	8.344
238410.065	NaN	-3.163	1.478	9.457	1506.227	1504.029	1510.623	6.595	-0.550	-13.802	-5.818	-0.383	8.498
238411.041	NaN	-3.163	1.457	9.467	1505.495	1503.297	1509.890	6.534	-0.748	-13.863	-5.818	-0.383	8.421
238412.018	NaN	-3.163	1.467	9.457	1505.495	1504.029	1509.890	6.489	-0.855	-13.939	-5.665	-0.459	8.421
238412.994	NaN	-3.174	1.467	9.457	1505.495	1503.297	1509.890	6.809	-0.702	-13.939	-5.818	-0.230	8.498
238413.971	NaN	-3.152	1.467	9.457	1506.960	1504.029	1509.890	6.733	-0.611	-13.969	-5.742	-0.536	8.344
238414.948	NaN	-3.152	1.457	9.467	1505.495	1504.029	1510.623	6.611	-0.565	-13.893	-5.818	-0.383	8.498
238415.924	NaN	-3.152	1.457	9.478	1506.227	1503.297	1509.890	6.534	-0.489	-13.634	-5.818	-0.306	8.421
238416.901	NaN	-3.141	1.457	9.489	1504.762	1504.029	1510.623	6.733	-0.473	-13.679	-5.665	-0.383	8.421
238417.877	NaN	-3.141	1.478	9.489	1505.495	1503.297	1511.355	6.870	-0.565	-13.817	-5.818	-0.459	8.344
238418.854	NaN	-3.141	1.478	9.500	1505.495	1503.297	1510.623	6.733	-0.565	-13.832	-5.895	-0.459	8.344
238419.830	NaN	-3.152	1.489	9.489	1506.227	1502.564	1509.890	6.458	-0.534	-13.786	-5.665	-0.459	8.344
238420.807	NaN	-3.152	1.478	9.500	1504.762	1503.297	1509.890	6.534	-0.626	-13.863	-5.665	-0.383	8.421
238421.783	NaN	-3.163	1.478	9.489	1504.029	1503.297	1510.623	6.534	-0.565	-13.817	-5.818	-0.306	8.344
238422.760	NaN	-3.152	1.478	9.478	1505.495	1503.297	1509.890	6.718	-0.412	-13.649	-5.742	-0.306	8.344
238423.737	3736847660.224	-3.141	1.489	9.478	1505.495	1503.297	1509.890	6.840	-0.412	-13.588	-5.895	-0.383	8.498
238424.713	NaN	-3.141	1.478	9.478	1505.495	1504.762	1510.623	6.916	-0.458	-13.618	-5.742	-0.383	8.421
238425.690	NaN	-3.152	1.478	9.478	1504.029	1503.297	1509.158	6.809	-0.565	-13.679	-5.742	-0.383	8.344
238426.666	NaN	-3.141	1.478	9.489	1504.762	1502.564	1510.623	6.855	-0.656	-13.679	-5.818	-0.459	8.191
238427.643	NaN	-3.141	1.478	9.478	1506.227	1504.029	1512.088	6.702	-0.626	-13.634	-5.895	-0.459	8.268
238428.619	NaN	-3.163	1.467	9.467	1504.762	1504.029	1509.158	6.626	-0.504	-13.771	-5.895	-0.306	8.268
238429.596	NaN	-3.141	1.478	9.467	1504.762	1503.297	1509.890	6.458	-0.473	-13.802	-5.742	-0.383	8.421
238430.573	NaN	-3.152	1.478	9.467	1504.762	1504.029	1510.623	6.534	-0.382	-13.725	-5.742	-0.383	8.421
238431.549	NaN	-3.141	1.478	9.478	1504.762	1504.029	1509.890	6.611	-0.382	-13.740	-5.818	-0.383	8.344
238432.526	NaN	-3.152	1.467	9.489	1504.762	1502.564	1510.623	6.718	-0.534	-13.756	-5.818	-0.459	8.421
238433.502	NaN	-3.152	1.478	9.500	1504.762	1503.297	1508.425	6.794	-0.443	-13.649	-5.818	-0.306	8.344
238434.479	NaN	-3.141	1.478	9.489	1505.495	1504.029	1509.890	6.840	-0.366	-13.771	-5.818	-0.383	8.268
238435.455	NaN	-3.152	1.467	9.478	1504.029	1504.029	1509.890	6.565	-0.443	-13.924	-5.818	-0.306	8.574
238436.432	NaN	-3.141	1.467	9.489	1505.495	1504.762	1511.355	6.611	-0.748	-13.802	-5.818	-0.383	8.421
238437.408	NaN	-3.141	1.467	9.489	1506.227	1504.029	1510.623	6.977	-0.672	-13.939	-5.895	-0.383	8.421
238438.385	NaN	-3.141	1.457	9.489	1505.495	1504.762	1512.821	7.023	-0.473	-13.954	-5.818	-0.306	8.421
238439.362	NaN	-3.141	1.467	9.478	1504.762	1505.495	1511.355	6.580	-0.260	-13.832	-5.742	-0.383	8.344
238440.338	NaN	-3.141	1.478	9.467	1505.495	1504.762	1510.623	6.458	-0.397	-13.695	-5.742	-0.306	8.421
238441.315	NaN	-3.130	1.478	9.478	1506.227	1504.762	1512.088	6.672	-0.473	-13.649	-5.818	-0.383	8.498
238442.291	NaN	-3.130	1.467	9.489	1505.495	1503.297	1510.623	6.763	-0.443	-13.878	-5.818	-0.383	8.344
238443.268	NaN	-3.130	1.467	9.500	1504.762	1503.297	1509.890	6.565	-0.321	-13.969	-5.818	-0.383	8.268
238444.244	NaN	-3.120	1.457	9.511	1505.495	1503.297	1509.890	6.672	-0.366	-13.817	-5.895	-0.383	8.421
238445.221	NaN	-3.120	1.467	9.500	1506.227	1504.029	1509.890	6.550	-0.366	-13.695	-5.742	-0.383	8.574
238446.198	NaN	-3.120	1.467	9.489	1505.495	1504.029	1509.890	6.504	-0.427	-13.756	-5.895	-0.383	8.498
238447.174	NaN	-3.120	1.467	9.478	1504.029	1504.029	1510.623	6.702	-0.443	-13.924	-6.048	-0.383	8.344
238448.151	NaN	-3.130	1.478	9.467	1505.495	1502.564	1508.425	6.733	-0.183	-14.015	-5.589	-0.383	8.421
238449.127	NaN	-3.130	1.478	9.457	1506.227	1504.029	1509.890	6.718	-0.214	-13.817	-5.742	-0.459	8.268
238450.104	NaN	-3.130	1.478	9.457	1506.227	1504.029	1510.623	6.565	-0.214	-13.817	-5.818	-0.536	8.268
238451.080	NaN	-3.130	1.467	9.446	1505.495	1504.762	1509.890	6.550	-0.229	-13.618	-5.818	-0.383	8.344
238452.057	NaN	-3.130	1.457	9.435	1504.029	1504.029	1511.355	6.702	-0.366	-13.573	-5.818	-0.306	8.421
238453.033	NaN	-3.130	1.457	9.435	1504.029	1503.297	1509.890	6.489	-0.458	-13.511	-5.971	-0.306	8.268
238454.010	NaN	-3.120	1.467	9.435	1505.495	1504.762	1511.355	6.473	-0.412	-13.542	-5.665	-0.383	8.344
238454.987	NaN	-3.120	1.478	9.435	1505.495	1504.029	1510.623	6.580	-0.412	-13.664	-5.665	-0.383	8.421
238455.963	NaN	-3.109	1.478	9.424	1505.495	1504.029	1509.890	6.748	-0.489	-13.710	-5.818	-0.383	8.498
238456.940	NaN	-3.109	1.478	9.435	1505.495	1503.297	1509.890	6.626	-0.519	-13.679	-5.818	-0.383	8.268
238457.916	NaN	-3.120	1.467	9.424	1505.495	1504.029	1511.355	6.580	-0.504	-13.802	-5.742	-0.230	8.344
238458.893	NaN	-3.120	1.478	9.435	1506.227	1504.029	1509.890	6.611	-0.504	-13.786	-5.818	-0.383	8.344
238459.869	NaN	-3.130	1.478	9.446	1505.495	1503.297	1508.425	6.687	-0.443	-13.740	-5.818	-0.459	8.191
238460.846	NaN	-3.130	1.478	9.467	1504.762	1502.564	1509.158	6.626	-0.366	-13.908	-5.742	-0.383	8.421
238461.823	NaN	-3.130	1.478	9.478	1504.762	1503.297	1509.890	6.641	-0.473	-13.863	-5.818	-0.459	8.421
238462.799	NaN	-3.141	1.478	9.478	1504.762	1502.564	1509.890	6.656	-0.244	-13.710	-5.818	-0.383	8.498
238463.776	NaN	-3.130	1.489	9.478	1504.762	1504.029	1510.623	6.672	-0.137	-13.557	-5.742	-0.306	8.344
238464.752	NaN	-3.130	1.489	9.489	1504.762	1504.029	1510.623	6.733	-0.198	-13.496	-5.742	-0.383	8.421
238465.729	NaN	-3.130	1.489	9.489	1504.762	1504.029	1510.623	6.733	-0.275	-13.542	-5.665	-0.383	8.574
238466.705	NaN	-3.141	1.478	9.478	1505.495	1504.762	1509.890	6.550	-0.366	-13.710	-5.818	-0.383	8.344
238467.682	NaN	-3.141	1.467	9.467	1503.297	1503.297	1509.158	6.641	-0.290	-13.802	-5.818	-0.459	8.498
238468.658	NaN	-3.152	1.467	9.457	1504.762	1502.564	1508.425	6.748	-0.122	-13.618	-5.818	-0.306	8.268
238469.635	NaN	-3.130	1.467	9.446	1503.297	1503.297	1509.890	6.901	-0.443	-13.603	-5.818	-0.459	8.574
238470.612	NaN	-3.141	1.457	9.446	1505.495	1503.297	1510.623	6.809	-0.519	-13.466	-5.818	-0.306	8.421
238471.588	NaN	-3.141	1.457	9.435	1506.227	1504.762	1510.623	6.687	-0.443	-13.679	-5.895	-0.383	8.421
238472.565	NaN	-3.141	1.446	9.435	1504.762	1504.762	1512.088	6.595	-0.214	-13.878	-5.818	-0.612	8.498
238473.541	NaN	-3.130	1.457	9.435	1504.762	1503.297	1511.355	6.366	-0.168	-13.908	-5.818	-0.459	8.421
238474.518	NaN	-3.130	1.446	9.435	1505.495	1504.029	1510.623	6.458	-0.244	-13.649	-5.742	-0.383	8.268
238475.494	NaN	-3.141	1.457	9.435	1505.495	1504.029	1510.623	6.870	-0.473	-13.649	-6.048	-0.459	8.344
238476.471	NaN	-3.141	1.457	9.446	1505.495	1504.029	1512.088	6.809	-0.565	-13.649	-5.742	-0.536	8.344
238477.448	NaN	-3.152	1.446	9.435	1504.029	1504.029	1510.623	6.718	-0.519	-13.771	-5.818	-0.383	8.498
238478.424	NaN	-3.152	1.446	9.446	1504.762	1503.297	1509.890	6.656	-0.275	-13.924	-5.971	-0.306	8.421
238479.401	NaN	-3.141	1.457	9.446	1504.762	1504.029	1510.623	6.763	-0.214	-13.740	-5.971	-0.383	8.344
238480.377	NaN	-3.130	1.457	9.446	1506.227	1503.297	1511.355	6.855	-0.366	-13.664	-5.895	-0.459	8.498
238481.354	NaN	-3.130	1.467	9.457	1506.227	1504.029	1509.890	6.870	-0.366	-13.649	-5.818	-0.383	8.344
238482.330	NaN	-3.141	1.457	9.457	1505.495	1504.029	1509.158	6.885	-0.198	-13.649	-5.818	-0.306	8.498
238483.307	NaN	-3.120	1.457	9.467	1504.029	1503.297	1509.158	6.718	-0.107	-13.649	-5.818	-0.536	8.421
238484.283	NaN	-3.141	1.467	9.457	1504.029	1503.297	1509.890	6.672	-0.244	-13.695	-5.818	-0.306	8.421
238485.260	NaN	-3.130	1.467	9.467	1506.227	1504.762	1509.890	6.397	-0.443	-13.649	-5.818	-0.459	8.421
238486.237	NaN	-3.130	1.467	9.478	1504.762	1504.762	1510.623	6.321	-0.305	-13.603	-5.742	-0.459	8.268
238487.213	NaN	-3.141	1.467	9.478	1506.227	1503.297	1510.623	6.473	-0.153	-13.573	-5.895	-0.383	8.344
238488.190	NaN	-3.141	1.457	9.489	1504.762	1502.564	1510.623	6.565	-0.244	-13.649	-5.742	-0.459	8.344
238489.166	NaN	-3.141	1.467	9.489	1505.495	1504.762	1510.623	6.748	-0.397	-13.679	-5.895	-0.383	8.344
238490.143	NaN	-3.141	1.457	9.478	1504.762	1503.297	1510.623	6.763	-0.351	-13.588	-5.818	-0.383	8.268
238491.119	NaN	-3.130	1.467	9.467	1504.762	1504.029	1509.158	6.824	-0.336	-13.557	-5.895	-0.383	8.344
238492.096	NaN	-3.141	1.446	9.446	1505.495	1504.029	1510.623	7.038	-0.168	-13.511	-5.818	-0.459	8.421
238493.073	NaN	-3.141	1.457	9.446	1504.762	1503.297	1511.355	6.855	-0.198	-13.725	-5.818	-0.383	8.421
238494.049	NaN	-3.130	1.457	9.446	1506.227	1504.029	1510.623	6.611	-0.336	-13.756	-5.818	-0.306	8.498
238495.026	NaN	-3.141	1.467	9.435	1505.495	1504.762	1509.890	6.626	-0.229	-13.664	-5.895	-0.383	8.421
238496.002	NaN	-3.141	1.457	9.446	1504.762	1504.762	1511.355	6.565	-0.275	-13.496	-5.818	-0.383	8.421
238496.979	NaN	-3.141	1.457	9.446	1504.762	1503.297	1509.158	6.580	-0.244	-13.435	-5.818	-0.383	8.191
238497.955	NaN	-3.152	1.457	9.435	1505.495	1503.297	1510.623	6.550	-0.275	-13.298	-5.818	-0.383	8.421
238498.932	NaN	-3.141	1.467	9.435	1505.495	1504.762	1509.890	6.611	-0.153	-13.389	-5.818	-0.459	8.421
238499.908	NaN	-3.130	1.467	9.435	1505.495	1503.297	1510.623	6.641	-0.305	-13.588	-5.895	-0.459	8.344
238500.885	NaN	-3.130	1.467	9.435	1505.495	1503.297	1512.088	6.550	-0.427	-13.603	-5.818	-0.383	8.344
238501.862	NaN	-3.141	1.467	9.446	1504.762	1503.297	1510.623	6.519	-0.427	-13.481	-5.818	-0.383	8.421
238502.838	NaN	-3.152	1.478	9.457	1505.495	1504.762	1511.355	6.733	-0.321	-13.420	-5.818	-0.459	8.421
238503.815	NaN	-3.141	1.478	9.478	1504.762	1503.297	1509.890	6.656	-0.153	-13.634	-5.971	-0.306	8.498
238504.791	NaN	-3.130	1.478	9.489	1503.297	1503.297	1508.425	6.473	-0.061	-13.618	-5.818	-0.230	8.421
238505.768	NaN	-3.120	1.478	9.489	1504.762	1503.297	1509.890	6.626	-0.198	-13.466	-5.818	-0.383	8.421
238506.744	NaN	-3.130	1.478	9.489	1506.227	1504.029	1510.623	6.870	-0.198	-13.511	-5.665	-0.383	8.421
238507.721	NaN	-3.120	1.489	9.489	1506.227	1504.762	1511.355	6.702	-0.275	-13.603	-5.895	-0.306	8.421
238508.698	NaN	-3.130	1.489	9.500	1506.227	1503.297	1511.355	6.702	-0.122	-13.634	-5.818	-0.459	8.498
238509.674	NaN	-3.141	1.489	9.489	1505.495	1504.029	1510.623	6.641	-0.168	-13.557	-5.742	-0.383	8.344
238510.651	NaN	-3.152	1.467	9.500	1505.495	1503.297	1510.623	6.779	-0.198	-13.542	-5.818	-0.459	8.498
238511.627	NaN	-3.141	1.467	9.489	1505.495	1504.029	1510.623	6.687	-0.214	-13.496	-5.818	-0.306	8.344
238512.604	NaN	-3.141	1.478	9.489	1505.495	1504.029	1510.623	6.718	-0.122	-13.481	-5.742	-0.230	8.498
238513.580	NaN	-3.152	1.467	9.478	1504.762	1504.029	1509.890	6.565	0.015	-13.542	-5.971	-0.306	8.421
238514.557	NaN	-3.152	1.467	9.467	1504.762	1504.029	1510.623	6.687	-0.092	-13.573	-5.818	-0.383	8.268
238515.533	NaN	-3.141	1.457	9.457	1504.762	1502.564	1510.623	6.748	-0.107	-13.756	-5.742	-0.383	8.498
238516.510	NaN	-3.141	1.457	9.446	1506.227	1504.029	1511.355	6.702	-0.015	-13.786	-5.818	-0.306	8.344
238517.487	NaN	-3.130	1.467	9.435	1506.227	1504.029	1509.890	6.611	-0.153	-13.710	-5.818	-0.459	8.344
238518.463	NaN	-3.130	1.467	9.435	1505.495	1503.297	1511.355	6.489	-0.137	-13.405	-5.895	-0.383	8.344
238519.440	NaN	-3.120	1.467	9.446	1505.495	1504.029	1508.425	6.595	-0.137	-13.344	-5.818	-0.459	8.421
238520.416	NaN	-3.130	1.467	9.457	1506.227	1504.029	1510.623	6.595	-0.183	-13.588	-5.818	-0.459	8.421
238521.393	NaN	-3.130	1.478	9.457	1504.762	1504.029	1511.355	6.550	-0.076	-13.618	-5.971	-0.383	8.421
238522.369	NaN	-3.130	1.478	9.457	1505.495	1504.029	1511.355	6.687	-0.153	-13.496	-5.818	-0.459	8.421
238523.346	NaN	-3.141	1.467	9.457	1505.495	1504.029	1510.623	6.809	-0.214	-13.603	-5.818	-0.383	8.344
238524.323	NaN	-3.141	1.457	9.457	1504.762	1504.029	1509.158	6.779	-0.198	-13.679	-5.895	-0.306	8.268
238525.299	NaN	-3.130	1.457	9.478	1506.227	1504.029	1509.890	6.687	-0.122	-13.740	-5.742	-0.383	8.421
238526.276	NaN	-3.120	1.457	9.489	1505.495	1504.762	1510.623	6.473	-0.092	-13.679	-5.895	-0.459	8.421
238527.252	NaN	-3.109	1.457	9.500	1504.762	1504.029	1510.623	6.351	0.046	-13.756	-5.895	-0.459	8.421
238528.229	NaN	-3.120	1.457	9.489	1505.495	1504.029	1509.890	6.840	-0.061	-13.649	-5.818	-0.306	8.498
238529.205	NaN	-3.130	1.457	9.478	1499.634	1504.762	1508.425	6.977	-0.214	-13.664	-5.818	-0.306	8.344
238530.182	NaN	-3.120	1.478	9.478	1505.495	1504.029	1509.890	6.702	-0.031	-13.603	-5.971	-0.383	8.421
238531.158	NaN	-3.130	1.467	9.478	1505.495	1503.297	1510.623	6.595	0.122	-13.679	-5.895	-0.306	8.421
238532.135	NaN	-3.130	1.478	9.489	1504.762	1504.029	1509.890	6.641	0.153	-13.725	-5.895	-0.383	8.421
238533.112	NaN	-3.141	1.467	9.478	1505.495	1503.297	1509.890	6.779	0.092	-13.603	-5.818	-0.306	8.421
238534.088	NaN	-3.141	1.467	9.457	1505.495	1502.564	1509.158	6.733	0.031	-13.466	-5.895	-0.306	8.344
238535.065	NaN	-3.141	1.478	9.457	1503.297	1503.297	1509.158	6.656	-0.153	-13.573	-5.818	-0.383	8.344
238536.041	NaN	-3.130	1.489	9.457	1506.227	1503.297	1509.890	6.550	-0.122	-13.603	-5.818	-0.306	8.498
238537.018	NaN	-3.130	1.478	9.457	1504.762	1503.297	1509.158	6.443	-0.137	-13.573	-5.895	-0.383	8.344
238537.994	NaN	-3.141	1.478	9.446	1504.762	1504.029	1510.623	6.611	-0.107	-13.481	-5.742	-0.383	8.498
238538.971	NaN	-3.141	1.478	9.457	1505.495	1503.297	1509.158	6.702	-0.122	-13.420	-5.742	-0.383	8.268
238539.948	NaN	-3.141	1.478	9.457	1505.495	1503.297	1510.623	6.580	-0.031	-13.527	-5.895	-0.459	8.574
238540.924	NaN	-3.141	1.467	9.457	1505.495	1504.029	1511.355	6.565	0.046	-13.557	-5.818	-0.459	8.344
238541.901	NaN	-3.152	1.467	9.467	1504.029	1503.297	1509.158	6.443	0.153	-13.481	-5.895	-0.306	8.344
238542.877	NaN	-3.141	1.467	9.478	1504.029	1503.297	1511.355	6.443	0.015	-13.359	-5.818	-0.230	8.344
238543.854	NaN	-3.152	1.467	9.467	1505.495	1503.297	1509.890	6.260	-0.198	-13.344	-5.895	-0.459	8.344
238544.830	NaN	-3.141	1.467	9.478	1504.762	1503.297	1511.355	6.443	-0.198	-13.252	-5.818	-0.383	8.344
238545.807	NaN	-3.141	1.467	9.478	1505.495	1504.029	1509.890	6.580	-0.107	-13.267	-5.818	-0.383	8.498
238546.783	NaN	-3.141	1.457	9.478	1503.297	1502.564	1509.158	6.779	-0.076	-13.328	-5.818	-0.459	8.421
238547.760	NaN	-3.141	1.467	9.467	1506.227	1504.762	1510.623	6.779	-0.061	-13.252	-5.895	-0.383	8.498
238548.737	3736847660.378	-3.152	1.467	9.489	1505.495	1503.297	1509.158	6.687	0.107	-13.481	-5.895	-0.306	8.421
238549.713	NaN	-3.152	1.478	9.478	1506.227	1504.029	1510.623	6.748	0.031	-13.634	-5.818	-0.459	8.498
238550.690	NaN	-3.141	1.478	9.478	1504.762	1502.564	1507.692	6.443	0.153	-13.725	-5.818	-0.383	8.421
238551.666	NaN	-3.130	1.467	9.478	1505.495	1504.029	1509.890	6.458	0.153	-13.756	-5.742	-0.383	8.268
238552.643	NaN	-3.130	1.467	9.478	1505.495	1504.029	1509.890	6.489	0.031	-13.679	-5.895	-0.383	8.421
238553.619	NaN	-3.141	1.467	9.467	1504.029	1504.029	1510.623	6.733	0.061	-13.725	-5.742	-0.383	8.268
238554.596	NaN	-3.141	1.457	9.457	1504.762	1504.762	1510.623	6.824	0.031	-13.634	-5.742	-0.536	8.421
238555.573	NaN	-3.141	1.457	9.457	1506.227	1504.029	1510.623	6.748	0.061	-13.573	-5.895	-0.383	8.344
238556.549	NaN	-3.141	1.467	9.457	1505.495	1504.762	1510.623	6.794	0.122	-13.466	-5.895	-0.459	8.498
238557.526	NaN	-3.141	1.457	9.446	1505.495	1504.029	1510.623	6.870	0.137	-13.435	-5.895	-0.459	8.344
238558.502	NaN	-3.130	1.457	9.446	1505.495	1504.762	1509.158	6.763	0.061	-13.527	-5.818	-0.383	8.344
238559.479	NaN	-3.130	1.457	9.435	1504.762	1503.297	1509.890	6.687	0.046	-13.359	-5.895	-0.306	8.421
238560.455	NaN	-3.141	1.467	9.435	1505.495	1503.297	1509.158	6.550	0.015	-13.557	-5.971	-0.306	8.498
238561.432	NaN	-3.141	1.467	9.435	1506.227	1503.297	1510.623	6.641	0.092	-13.649	-5.818	-0.153	8.268
238562.408	NaN	-3.152	1.457	9.446	1505.495	1503.297	1509.890	6.718	0.122	-13.618	-5.818	-0.536	8.344
238563.385	NaN	-3.152	1.467	9.457	1506.227	1503.297	1509.890	6.794	0.198	-13.389	-5.895	-0.536	8.344
238564.362	NaN	-3.152	1.467	9.457	1504.762	1504.762	1511.355	6.763	0.168	-13.359	-5.895	-0.383	8.344
238565.338	NaN	-3.141	1.478	9.467	1505.495	1504.762	1508.425	6.794	0.137	-13.817	-5.818	-0.306	8.344
238566.315	NaN	-3.130	1.467	9.478	1504.762	1504.029	1511.355	6.626	-0.031	-13.847	-5.742	-0.459	8.268
238567.291	NaN	-3.141	1.467	9.478	1504.029	1503.297	1511.355	6.458	-0.122	-13.771	-5.742	-0.383	8.191
238568.268	NaN	-3.141	1.467	9.489	1505.495	1504.029	1511.355	6.504	-0.122	-13.603	-5.971	-0.383	8.498
238569.244	NaN	-3.141	1.457	9.489	1505.495	1504.029	1509.890	6.290	-0.061	-13.664	-5.971	-0.383	8.421
238570.221	NaN	-3.130	1.467	9.489	1504.762	1504.029	1510.623	6.382	0.076	-13.695	-5.818	-0.306	8.421
238571.198	NaN	-3.120	1.478	9.489	1505.495	1504.762	1512.088	6.702	0.260	-13.527	-5.895	-0.459	8.421
238572.174	NaN	-3.120	1.478	9.500	1506.227	1504.029	1511.355	6.519	0.183	-13.588	-5.818	-0.459	8.498
238573.151	NaN	-3.109	1.467	9.500	1504.762	1504.762	1509.890	6.244	0.214	-13.511	-5.895	-0.306	8.344
238574.127	NaN	-3.120	1.467	9.489	1506.227	1503.297	1511.355	6.229	0.076	-13.405	-5.971	-0.306	8.421
238575.104	NaN	-3.120	1.478	9.489	1506.227	1503.297	1509.890	6.092	0.229	-13.298	-5.895	-0.536	8.268
238576.080	NaN	-3.130	1.478	9.478	1504.762	1504.029	1510.623	6.275	0.137	-13.420	-5.818	-0.383	8.421
238577.057	NaN	-3.141	1.467	9.467	1506.227	1503.297	1509.158	6.397	0.153	-13.481	-5.818	-0.383	8.344
238578.033	NaN	-3.141	1.457	9.457	1504.762	1503.297	1510.623	6.733	-0.031	-13.527	-5.818	-0.383	8.421
238579.010	NaN	-3.130	1.457	9.457	1506.227	1504.029	1510.623	6.824	-0.137	-13.496	-5.665	-0.383	8.498
238579.987	NaN	-3.130	1.457	9.457	1505.495	1504.029	1509.890	6.595	-0.046	-13.420	-5.895	-0.383	8.421
238580.963	NaN	-3.130	1.467	9.467	1505.495	1504.029	1511.355	6.565	0.092	-13.649	-5.742	-0.383	8.344
238581.940	NaN	-3.130	1.467	9.457	1504.762	1504.029	1509.890	6.626	0.183	-13.588	-5.742	-0.230	8.344
238582.916	NaN	-3.141	1.478	9.446	1504.762	1504.029	1509.890	6.580	0.137	-13.511	-5.818	-0.536	8.498
238583.893	NaN	-3.141	1.478	9.457	1504.762	1504.029	1512.088	6.473	0.198	-13.313	-5.665	-0.383	8.268
238584.869	NaN	-3.141	1.489	9.446	1505.495	1504.029	1510.623	6.290	0.107	-13.435	-5.665	-0.459	8.498
238585.846	NaN	-3.152	1.478	9.457	1503.297	1504.029	1509.890	6.412	0.061	-13.603	-5.971	-0.306	8.651
238586.823	NaN	-3.163	1.467	9.467	1504.762	1504.029	1509.890	6.458	0.061	-13.618	-5.818	-0.383	8.421
238587.799	NaN	-3.152	1.478	9.467	1505.495	1504.762	1510.623	6.504	0.229	-13.573	-5.895	-0.459	8.574
238588.776	NaN	-3.152	1.478	9.467	1505.495	1504.029	1509.890	6.626	0.183	-13.481	-5.895	-0.536	8.421
238589.752	NaN	-3.141	1.467	9.467	1506.227	1503.297	1509.158	6.534	0.229	-13.618	-5.818	-0.230	8.344
238590.729	NaN	-3.130	1.467	9.478	1505.495	1504.029	1509.158	6.550	0.290	-13.710	-5.971	-0.383	8.421
238591.705	NaN	-3.152	1.467	9.478	1506.960	1504.029	1511.355	6.580	0.305	-13.481	-5.895	-0.459	8.421
238592.682	NaN	-3.152	1.467	9.478	1506.227	1504.029	1510.623	6.687	0.336	-13.557	-5.971	-0.459	8.498
238593.658	NaN	-3.152	1.467	9.489	1506.227	1504.029	1509.890	6.824	0.275	-13.496	-5.742	-0.306	8.421
238594.635	NaN	-3.152	1.467	9.489	1505.495	1504.029	1510.623	6.733	0.198	-13.405	-5.818	-0.459	8.421
238595.612	NaN	-3.163	1.467	9.489	1504.762	1504.762	1511.355	6.626	0.214	-13.496	-5.895	-0.459	8.498
238596.588	NaN	-3.163	1.467	9.489	1505.495	1504.029	1509.890	6.641	0.275	-13.496	-5.818	-0.306	8.344
238597.565	NaN	-3.141	1.467	9.478	1506.227	1504.029	1510.623	6.687	0.473	-13.603	-5.818	-0.459	8.498
238598.541	NaN	-3.141	1.467	9.467	1506.227	1504.029	1510.623	6.595	0.489	-13.679	-5.895	-0.383	8.268
238599.518	NaN	-3.152	1.467	9.467	1505.495	1504.029	1509.890	6.550	0.244	-13.664	-5.971	-0.383	8.421
238600.494	NaN	-3.163	1.457	9.446	1504.762	1503.297	1509.158	6.550	0.076	-13.557	-5.665	-0.383	8.421
238601.471	NaN	-3.141	1.467	9.457	1505.495	1504.029	1510.623	6.427	0.122	-13.176	-5.895	-0.383	8.344
238602.448	NaN	-3.152	1.467	9.446	1505.495	1504.029	1510.623	6.534	0.198	-13.206	-5.895	-0.306	8.344
238603.424	NaN	-3.152	1.467	9.424	1504.762	1504.762	1509.890	6.702	0.260	-13.374	-5.895	-0.383	8.421
238604.401	NaN	-3.152	1.457	9.435	1504.029	1504.762	1511.355	6.855	0.244	-13.603	-5.818	-0.459	8.421
238605.377	NaN	-3.152	1.467	9.435	1505.495	1504.762	1509.158	6.626	0.153	-13.496	-5.818	-0.230	8.498
238606.354	NaN	-3.152	1.467	9.435	1505.495	1504.029	1509.890	6.580	0.214	-13.420	-5.895	-0.383	8.344
238607.330	NaN	-3.141	1.467	9.446	1505.495	1504.029	1510.623	6.580	0.198	-13.298	-5.818	-0.459	8.344
238608.307	NaN	-3.152	1.467	9.457	1505.495	1503.297	1509.158	6.702	0.168	-13.344	-5.818	-0.459	8.344
238609.283	NaN	-3.152	1.467	9.457	1505.495	1504.029	1510.623	6.580	0.214	-13.481	-5.895	-0.383	8.421
238610.260	NaN	-3.141	1.467	9.478	1505.495	1505.495	1509.890	6.641	0.305	-13.511	-5.818	-0.383	8.344
238611.237	NaN	-3.141	1.478	9.489	1504.762	1504.762	1509.890	6.809	0.290	-13.344	-5.818	-0.306	8.498
238612.213	NaN	-3.141	1.478	9.489	1504.029	1504.762	1509.890	6.748	0.443	-13.496	-5.895	-0.383	8.498
238613.190	NaN	-3.141	1.457	9.489	1504.762	1504.029	1509.890	6.672	0.473	-13.481	-5.895	-0.383	8.344
238614.166	NaN	-3.152	1.467	9.489	1505.495	1504.762	1509.158	6.565	0.382	-13.496	-5.818	-0.383	8.421
238615.143	NaN	-3.152	1.467	9.500	1504.762	1502.564	1508.425	6.534	0.458	-13.435	-5.818	-0.383	8.421
238616.119	NaN	-3.141	1.478	9.511	1504.029	1503.297	1509.890	6.519	0.366	-13.450	-5.818	-0.459	8.421
238617.096	NaN	-3.141	1.467	9.500	1505.495	1503.297	1510.623	6.611	0.397	-13.542	-5.895	-0.383	8.421
238618.073	NaN	-3.120	1.467	9.500	1504.029	1503.297	1509.158	6.641	0.427	-13.664	-5.818	-0.459	8.421
238619.049	NaN	-3.130	1.467	9.489	1505.495	1504.029	1510.623	6.382	0.321	-13.664	-5.818	-0.383	8.421
238620.026	NaN	-3.130	1.478	9.478	1504.029	1504.762	1509.890	6.473	0.412	-13.450	-5.742	-0.459	8.421
238621.002	NaN	-3.130	1.478	9.478	1505.495	1504.029	1511.355	6.550	0.351	-13.374	-5.818	-0.306	8.344
238621.979	NaN	-3.141	1.478	9.478	1505.495	1504.029	1509.890	6.687	0.229	-13.405	-5.971	-0.536	8.421
238622.955	NaN	-3.152	1.467	9.457	1505.495	1504.029	1509.890	6.824	0.198	-13.573	-5.895	-0.306	8.421
238623.932	NaN	-3.152	1.467	9.457	1506.227	1504.029	1511.355	6.504	0.275	-13.603	-5.895	-0.383	8.344
238624.908	NaN	-3.152	1.467	9.457	1505.495	1504.762	1511.355	6.321	0.168	-13.328	-5.895	-0.383	8.344
238625.885	NaN	-3.152	1.467	9.457	1504.762	1504.029	1509.158	6.412	0.092	-13.298	-5.818	-0.383	8.421
238626.862	NaN	-3.141	1.478	9.467	1504.762	1504.029	1509.890	6.412	0.244	-13.435	-5.818	-0.459	8.498
238627.838	NaN	-3.141	1.467	9.467	1506.227	1503.297	1509.158	6.550	0.305	-13.359	-5.818	-0.383	8.344
238628.815	NaN	-3.141	1.457	9.467	1505.495	1502.564	1509.158	6.733	0.305	-13.160	-5.895	-0.383	8.498
238629.791	NaN	-3.130	1.467	9.478	1504.762	1503.297	1509.158	6.550	0.336	-13.344	-5.818	-0.383	8.344
238630.768	NaN	-3.130	1.467	9.500	1505.495	1503.297	1509.890	6.656	0.015	-13.435	-5.742	-0.459	8.344
238631.744	NaN	-3.141	1.467	9.511	1504.762	1502.564	1510.623	6.473	-0.015	-13.725	-5.818	-0.459	8.421
238632.721	NaN	-3.130	1.467	9.511	1504.762	1503.297	1508.425	6.351	0.229	-13.802	-5.742	-0.383	8.344
238633.698	NaN	-3.130	1.478	9.500	1506.227	1504.029	1509.158	6.351	0.427	-13.603	-5.818	-0.383	8.498
238634.674	NaN	-3.141	1.467	9.500	1506.227	1504.029	1511.355	6.458	0.641	-13.405	-5.971	-0.306	8.268
238635.651	NaN	-3.152	1.478	9.500	1504.029	1503.297	1509.890	6.534	0.504	-13.359	-5.895	-0.459	8.421
238636.627	NaN	-3.141	1.478	9.500	1505.495	1504.029	1508.425	6.351	0.397	-13.282	-5.818	-0.459	8.421
238637.604	NaN	-3.130	1.489	9.500	1506.227	1504.029	1510.623	6.321	0.412	-13.191	-5.742	-0.459	8.574
238638.580	NaN	-3.130	1.478	9.500	1506.227	1504.029	1510.623	6.336	0.351	-13.267	-5.971	-0.230	8.498
238639.557	NaN	-3.141	1.489	9.500	1505.495	1504.029	1509.890	6.534	0.321	-13.328	-5.895	-0.383	8.344
238640.533	NaN	-3.152	1.478	9.478	1504.762	1504.029	1509.890	6.580	0.321	-13.511	-5.818	-0.536	8.421
238641.510	NaN	-3.152	1.478	9.467	1504.029	1502.564	1509.158	6.458	0.321	-13.679	-5.818	-0.383	8.421
238642.487	NaN	-3.141	1.478	9.457	1503.297	1503.297	1510.623	6.351	0.473	-13.603	-5.818	-0.383	8.344
238643.463	NaN	-3.141	1.489	9.435	1505.495	1504.029	1509.890	6.214	0.443	-13.527	-5.818	-0.306	8.344
238644.440	NaN	-3.152	1.489	9.435	1504.762	1502.564	1508.425	6.153	0.336	-13.450	-5.742	-0.459	8.421
238645.416	NaN	-3.152	1.478	9.435	1505.495	1504.029	1507.692	6.473	0.412	-13.466	-5.818	-0.383	8.421
238646.393	NaN	-3.152	1.467	9.446	1505.495	1502.564	1510.623	6.672	0.321	-13.435	-5.818	-0.306	8.421
238647.369	NaN	-3.141	1.478	9.457	1505.495	1504.029	1510.623	6.427	0.168	-13.466	-5.818	-0.306	8.344
238648.346	NaN	-3.163	1.467	9.457	1505.495	1504.029	1510.623	6.198	0.076	-13.405	-5.971	-0.383	8.421
238649.323	NaN	-3.152	1.467	9.446	1504.762	1503.297	1508.425	6.015	0.351	-13.282	-5.895	-0.306	8.344
238650.299	NaN	-3.141	1.467	9.457	1506.227	1504.029	1510.623	6.458	0.473	-13.420	-5.895	-0.383	8.421
238651.276	NaN	-3.152	1.467	9.478	1505.495	1503.297	1509.890	6.565	0.336	-13.542	-5.895	-0.383	8.268
238652.252	NaN	-3.130	1.478	9.478	1505.495	1504.029	1510.623	6.397	0.260	-13.634	-5.818	-0.383	8.574
238653.229	NaN	-3.130	1.478	9.478	1504.762	1504.029	1510.623	6.153	0.122	-13.450	-5.818	-0.383	8.421
238654.205	NaN	-3.130	1.478	9.489	1504.762	1503.297	1509.158	6.046	0.183	-13.374	-5.742	-0.230	8.421
238655.182	NaN	-3.130	1.478	9.511	1505.495	1504.029	1510.623	6.137	0.244	-13.450	-5.818	-0.383	8.421
238656.158	NaN	-3.152	1.467	9.500	1505.495	1503.297	1509.158	6.305	0.153	-13.481	-5.895	-0.306	8.344
238657.135	NaN	-3.130	1.478	9.511	1502.564	1502.564	1510.623	6.580	0.153	-13.527	-5.742	-0.230	8.421
238658.112	NaN	-3.141	1.478	9.511	1504.762	1504.029	1510.623	6.473	0.198	-13.527	-5.818	-0.459	8.344
238659.088	NaN	-3.141	1.489	9.500	1504.762	1502.564	1509.890	6.489	0.214	-13.420	-5.895	-0.306	8.498
238660.065	NaN	-3.130	1.489	9.500	1505.495	1503.297	1509.890	6.427	0.336	-13.527	-5.818	-0.459	8.421
238661.041	NaN	-3.141	1.478	9.489	1504.029	1504.029	1510.623	6.336	0.550	-13.527	-5.818	-0.383	8.498
238662.018	NaN	-3.141	1.489	9.478	1505.495	1503.297	1509.890	6.366	0.626	-13.496	-5.742	-0.306	8.344
238662.994	NaN	-3.141	1.478	9.467	1504.762	1504.029	1509.890	6.305	0.305	-13.618	-5.818	-0.383	8.268
238663.971	NaN	-3.130	1.467	9.467	1505.495	1502.564	1509.890	6.412	0.137	-13.557	-5.895	-0.306	8.344
238664.948	NaN	-3.120	1.478	9.467	1505.495	1504.029	1511.355	6.519	0.137	-13.450	-5.818	-0.383	8.344
238665.924	NaN	-3.120	1.478	9.457	1505.495	1504.029	1510.623	6.443	0.275	-13.420	-5.895	-0.306	8.421
238666.901	NaN	-3.120	1.478	9.457	1505.495	1504.029	1511.355	6.244	0.244	-13.496	-5.895	-0.230	8.268
238667.877	NaN	-3.141	1.478	9.435	1505.495	1504.029	1510.623	6.183	0.214	-13.573	-5.971	-0.230	8.344
238668.854	NaN	-3.141	1.467	9.435	1504.029	1504.029	1510.623	6.321	0.153	-13.527	-5.742	-0.383	8.344
238669.830	NaN	-3.130	1.457	9.435	1505.495	1504.029	1510.623	6.137	0.153	-13.374	-5.818	-0.383	8.344
238670.807	NaN	-3.130	1.467	9.435	1506.227	1503.297	1511.355	6.183	0.275	-13.313	-5.895	-0.383	8.344
238671.783	NaN	-3.141	1.467	9.424	1505.495	1504.029	1510.623	6.443	0.412	-13.557	-5.971	-0.459	8.344
238672.760	NaN	-3.130	1.478	9.446	1505.495	1504.762	1509.890	6.565	0.427	-13.435	-5.742	-0.383	8.574
238673.737	NaN	-3.130	1.467	9.446	1505.495	1503.297	1512.088	6.305	0.336	-13.252	-5.818	-0.306	8.421
238674.713	NaN	-3.130	1.478	9.467	1505.495	1504.029	1509.158	6.168	0.519	-13.466	-5.971	-0.383	8.421
238675.690	NaN	-3.130	1.467	9.467	1505.495	1504.029	1510.623	6.229	0.473	-13.450	-5.818	-0.383	8.268
238676.666	NaN	-3.130	1.467	9.467	1506.227	1504.029	1511.355	6.351	0.519	-13.206	-5.818	-0.306	8.421
238677.643	NaN	-3.141	1.478	9.478	1504.029	1503.297	1510.623	6.427	0.412	-13.176	-5.895	-0.383	8.574
238678.619	NaN	-3.130	1.489	9.478	1505.495	1504.762	1509.890	6.321	0.458	-13.252	-5.818	-0.306	8.498
238679.596	NaN	-3.130	1.489	9.478	1505.495	1504.029	1509.890	6.275	0.305	-13.389	-5.818	-0.536	8.421
238680.573	NaN	-3.152	1.489	9.467	1504.029	1503.297	1509.158	6.458	0.305	-13.359	-5.742	-0.383	8.421
238681.549	NaN	-3.152	1.489	9.478	1505.495	1504.029	1510.623	6.443	0.351	-13.466	-5.895	-0.383	8.421
238682.526	NaN	-3.152	1.489	9.457	1505.495	1504.029	1510.623	6.336	0.382	-13.725	-5.742	-0.459	8.344
238683.502	NaN	-3.152	1.478	9.446	1504.029	1504.029	1510.623	6.275	0.275	-13.679	-5.818	-0.383	8.344
238684.479	NaN	-3.152	1.467	9.457	1506.227	1504.029	1509.158	6.260	0.214	-13.527	-5.971	-0.306	8.344
238685.455	NaN	-3.163	1.467	9.457	1505.495	1504.029	1509.890	6.275	0.366	-13.466	-5.742	-0.306	8.421
238686.432	NaN	-3.152	1.467	9.467	1506.227	1504.029	1511.355	6.214	0.504	-13.267	-5.818	-0.459	8.574
238687.408	NaN	-3.141	1.467	9.457	1505.495	1504.029	1509.890	6.076	0.397	-13.450	-5.665	-0.459	8.344
238688.385	NaN	-3.152	1.478	9.446	1504.029	1504.029	1510.623	6.336	0.382	-13.450	-5.818	-0.383	8.344
238689.362	NaN	-3.152	1.478	9.446	1504.762	1504.029	1511.355	6.504	0.473	-13.389	-5.665	-0.383	8.421
238690.338	NaN	-3.141	1.478	9.446	1506.227	1504.029	1509.890	6.260	0.168	-13.282	-5.665	-0.306	8.344
238691.315	NaN	-3.141	1.467	9.435	1505.495	1504.029	1509.890	6.153	0.137	-13.389	-5.742	-0.459	8.344
238692.291	NaN	-3.152	1.467	9.446	1504.762	1503.297	1509.158	6.107	0.336	-13.511	-5.742	-0.306	8.421
238693.268	NaN	-3.130	1.467	9.457	1504.762	1504.029	1510.623	6.168	0.214	-13.466	-5.895	-0.383	8.344
238694.244	NaN	-3.141	1.467	9.457	1505.495	1504.029	1510.623	6.046	0.137	-13.527	-5.818	-0.306	8.421
238695.221	NaN	-3.141	1.467	9.467	1504.762	1504.029	1509.890	6.260	0.092	-13.298	-5.818	-0.383	8.344
238696.198	NaN	-3.130	1.478	9.489	1505.495	1504.762	1510.623	6.351	0.168	-13.252	-5.895	-0.383	8.421
238697.174	NaN	-3.130	1.467	9.489	1504.762	1504.029	1510.623	6.214	0.397	-13.389	-5.971	-0.383	8.344
238698.151	NaN	-3.130	1.478	9.511	1506.960	1502.564	1510.623	6.198	0.412	-13.420	-5.665	-0.459	8.498
238699.127	NaN	-3.120	1.478	9.511	1505.495	1504.029	1511.355	6.275	0.519	-13.374	-5.971	-0.383	8.421
238700.104	NaN	-3.130	1.489	9.522	1506.227	1504.029	1511.355	6.076	0.626	-13.481	-5.895	-0.306	8.344
238701.080	NaN	-3.141	1.467	9.511	1504.762	1504.029	1511.355	5.969	0.672	-13.527	-5.818	-0.459	8.498
238702.057	NaN	-3.152	1.467	9.500	1504.762	1504.029	1510.623	6.122	0.519	-13.481	-5.742	-0.306	8.268
238703.033	NaN	-3.152	1.467	9.489	1504.762	1503.297	1509.158	6.397	0.290	-13.237	-5.895	-0.383	8.574
238704.010	NaN	-3.141	1.478	9.478	1505.495	1504.762	1511.355	6.458	0.275	-13.237	-5.818	-0.459	8.344
238704.987	NaN	-3.152	1.467	9.478	1505.495	1504.029	1511.355	6.611	0.351	-13.374	-5.895	-0.383	8.498
238705.963	NaN	-3.163	1.467	9.467	1505.495	1504.029	1510.623	6.840	0.351	-13.511	-5.895	-0.459	8.421
238706.940	NaN	-3.152	1.457	9.457	1504.762	1503.297	1510.623	6.504	0.305	-13.481	-5.742	-0.459	8.421
238707.916	NaN	-3.152	1.467	9.446	1504.029	1503.297	1509.890	5.985	0.397	-13.374	-5.818	-0.306	8.574
238708.893	NaN	-3.141	1.467	9.446	1505.495	1504.029	1511.355	6.015	0.595	-13.313	-5.818	-0.536	8.344
238709.869	NaN	-3.141	1.467	9.435	1504.762	1504.029	1509.890	6.214	0.626	-13.191	-5.818	-0.230	8.421
238710.846	NaN	-3.141	1.467	9.435	1504.029	1503.297	1509.158	6.214	0.473	-13.359	-5.971	-0.383	8.344
238711.823	NaN	-3.120	1.467	9.446	1504.762	1504.029	1509.158	5.893	0.260	-13.374	-5.818	-0.383	8.498
238712.799	NaN	-3.120	1.457	9.446	1504.762	1504.762	1510.623	5.939	0.275	-13.344	-5.742	-0.383	8.268
238713.776	NaN	-3.130	1.457	9.457	1506.227	1503.297	1510.623	6.168	0.305	-13.420	-6.048	-0.383	8.421
238714.752	NaN	-3.130	1.467	9.457	1506.960	1503.297	1510.623	6.427	0.214	-13.344	-5.742	-0.383	8.344
238715.729	NaN	-3.130	1.467	9.467	1504.762	1503.297	1509.890	6.290	0.198	-13.313	-5.895	-0.383	8.498
238716.705	NaN	-3.152	1.467	9.467	1504.762	1504.029	1511.355	6.015	0.183	-13.481	-5.742	-0.459	8.421
238717.682	NaN	-3.130	1.467	9.467	1505.495	1504.762	1511.355	6.046	0.366	-13.481	-5.818	-0.306	8.651
238718.658	NaN	-3.130	1.467	9.467	1505.495	1504.762	1510.623	6.244	0.534	-13.237	-5.895	-0.383	8.498
238719.635	NaN	-3.130	1.467	9.478	1503.297	1503.297	1510.623	6.244	0.580	-13.160	-5.895	-0.383	8.421
238720.612	NaN	-3.141	1.457	9.478	1506.227	1503.297	1510.623	6.137	0.504	-13.344	-5.818	-0.459	8.344
238721.588	NaN	-3.141	1.467	9.467	1506.227	1504.762	1510.623	6.015	0.412	-13.450	-5.895	-0.459	8.344
238722.565	NaN	-3.130	1.467	9.457	1505.495	1504.029	1512.088	6.015	0.443	-13.359	-5.742	-0.383	8.421
238723.541	NaN	-3.130	1.467	9.467	1506.227	1504.029	1510.623	6.153	0.366	-13.237	-5.742	-0.306	8.421
238724.518	NaN	-3.152	1.467	9.478	1504.762	1504.029	1510.623	6.336	0.321	-13.359	-5.818	-0.383	8.344
238725.494	NaN	-3.163	1.457	9.478	1504.762	1502.564	1509.158	6.336	0.656	-13.374	-5.818	-0.306	8.421
238726.471	NaN	-3.152	1.457	9.478	1505.495	1504.029	1509.890	6.275	0.504	-13.405	-5.895	-0.383	8.421
238727.448	NaN	-3.152	1.446	9.478	1504.029	1504.029	1509.890	6.198	0.214	-13.618	-5.818	-0.459	8.421
238728.424	NaN	-3.152	1.457	9.478	1504.029	1501.832	1508.425	6.229	0.290	-13.496	-5.818	-0.306	8.421
238729.401	NaN	-3.152	1.457	9.467	1504.762	1503.297	1510.623	6.229	0.260	-13.282	-5.742	-0.459	8.344
238730.377	NaN	-3.152	1.446	9.467	1504.029	1503.297	1509.158	6.290	0.260	-13.267	-5.742	-0.383	8.268
238731.354	NaN	-3.141	1.467	9.457	1505.495	1504.762	1509.890	6.214	0.107	-13.191	-5.742	-0.306	8.421
238732.330	NaN	-3.141	1.467	9.457	1505.495	1504.029	1511.355	6.153	0.107	-13.252	-5.818	-0.306	8.268
238733.307	NaN	-3.141	1.457	9.467	1505.495	1504.029	1510.623	6.321	0.397	-13.298	-5.895	-0.383	8.421
238734.283	NaN	-3.141	1.446	9.467	1505.495	1504.029	1510.623	6.168	0.565	-13.313	-5.971	-0.383	8.268
238735.260	NaN	-3.141	1.457	9.467	1506.227	1504.762	1509.890	6.137	0.412	-13.450	-5.895	-0.459	8.421
238736.237	NaN	-3.141	1.457	9.467	1504.762	1504.029	1512.088	6.076	0.260	-13.435	-5.742	-0.383	8.421
238737.213	NaN	-3.141	1.467	9.457	1505.495	1504.029	1510.623	5.969	0.260	-13.252	-5.818	-0.459	8.344
238738.190	NaN	-3.141	1.457	9.478	1504.762	1504.029	1509.890	6.137	0.321	-13.160	-5.742	-0.383	8.498
238739.166	NaN	-3.152	1.467	9.478	1505.495	1504.029	1509.158	6.275	0.458	-13.298	-5.742	-0.306	8.344
238743.073	NaN	-3.152	1.467	9.489	1504.762	1504.029	1509.890	6.031	0.427	-13.298	-5.895	-0.383	8.344
238744.049	NaN	-3.141	1.478	9.489	1506.227	1504.762	1510.623	6.031	0.244	-13.389	-5.895	-0.383	8.344
238745.026	NaN	-3.152	1.467	9.478	1504.762	1503.297	1510.623	6.168	0.260	-13.282	-5.971	-0.306	8.268
238746.002	NaN	-3.141	1.478	9.478	1506.227	1503.297	1509.890	6.198	0.412	-13.511	-5.895	-0.459	8.498
238746.979	NaN	-3.141	1.489	9.467	1505.495	1504.029	1509.158	6.275	0.427	-13.557	-5.895	-0.383	8.498
238747.955	3736847660.530	-3.152	1.489	9.467	1506.227	1503.297	1509.158	6.229	0.427	-13.450	-5.818	-0.383	8.191
238748.932	NaN	-3.141	1.489	9.467	1505.495	1504.762	1509.890	6.198	0.427	-13.359	-5.971	-0.459	8.344
238749.908	NaN	-3.130	1.489	9.467	1506.227	1504.029	1510.623	6.214	0.458	-13.252	-5.742	-0.306	8.498
238750.885	NaN	-3.152	1.478	9.457	1505.495	1504.029	1510.623	6.061	0.489	-13.069	-5.742	-0.383	8.268
238751.862	NaN	-3.163	1.478	9.467	1505.495	1503.297	1511.355	6.107	0.473	-13.221	-5.742	-0.306	8.498
238752.838	NaN	-3.152	1.478	9.467	1505.495	1504.029	1508.425	6.076	0.489	-13.252	-5.895	-0.383	8.498
238753.815	NaN	-3.152	1.489	9.478	1505.495	1504.029	1509.890	6.031	0.458	-13.267	-5.742	-0.306	8.421
238754.791	NaN	-3.163	1.478	9.457	1505.495	1503.297	1510.623	6.076	0.382	-13.160	-5.895	-0.383	8.421
238755.768	NaN	-3.163	1.478	9.457	1505.495	1502.564	1510.623	6.168	0.458	-13.206	-5.895	-0.383	8.191
238756.744	NaN	-3.174	1.478	9.467	1505.495	1504.029	1509.158	6.061	0.336	-13.435	-5.818	-0.383	8.344
238757.721	NaN	-3.174	1.478	9.478	1505.495	1503.297	1509.158	6.000	0.290	-13.573	-5.742	-0.383	8.498
238758.698	NaN	-3.152	1.478	9.500	1505.495	1504.029	1509.158	5.954	0.290	-13.573	-5.818	-0.459	8.498
238759.674	NaN	-3.152	1.478	9.489	1505.495	1504.029	1510.623	6.092	0.382	-13.466	-5.742	-0.383	8.421
238760.651	NaN	-3.141	1.467	9.478	1504.762	1503.297	1510.623	6.183	0.443	-13.298	-5.742	-0.383	8.344
238761.627	NaN	-3.141	1.478	9.489	1505.495	1503.297	1509.890	6.107	0.443	-13.115	-5.818	-0.383	8.498
238762.604	NaN	-3.141	1.467	9.489	1504.762	1503.297	1509.158	6.122	0.321	-13.176	-5.971	-0.383	8.421
238763.580	NaN	-3.130	1.478	9.500	1506.227	1504.762	1512.088	6.076	0.427	-13.298	-5.818	-0.383	8.421
238764.557	NaN	-3.130	1.467	9.500	1505.495	1503.297	1510.623	6.046	0.550	-13.328	-5.742	-0.383	8.344
238765.533	NaN	-3.130	1.467	9.489	1504.762	1503.297	1509.890	5.863	0.534	-13.282	-5.818	-0.459	8.498
238766.510	NaN	-3.141	1.467	9.478	1503.297	1503.297	1508.425	6.031	0.412	-13.374	-5.895	-0.383	8.344
238767.487	NaN	-3.141	1.467	9.478	1505.495	1503.297	1510.623	6.076	0.519	-13.450	-5.818	-0.306	8.421
238768.463	NaN	-3.152	1.467	9.467	1505.495	1504.029	1512.088	6.198	0.504	-13.176	-5.818	-0.459	8.268
238769.440	NaN	-3.141	1.467	9.446	1506.227	1503.297	1510.623	6.153	0.382	-13.008	-5.895	-0.459	8.344
238770.416	NaN	-3.141	1.457	9.435	1506.227	1504.029	1511.355	6.076	0.412	-13.191	-5.818	-0.383	8.344
238771.393	NaN	-3.141	1.467	9.435	1506.227	1504.029	1510.623	6.305	0.595	-13.282	-5.818	-0.383	8.344
238772.369	NaN	-3.141	1.467	9.435	1505.495	1504.029	1511.355	6.458	0.702	-13.206	-5.818	-0.459	8.421
238773.346	NaN	-3.130	1.467	9.435	1505.495	1503.297	1509.890	6.244	0.504	-13.267	-5.895	-0.306	8.344
238774.323	NaN	-3.141	1.457	9.435	1504.762	1504.029	1509.158	6.198	0.458	-13.160	-5.895	-0.383	8.421
238775.299	NaN	-3.141	1.467	9.435	1505.495	1504.762	1508.425	6.198	0.458	-13.145	-5.971	-0.383	8.421
238776.276	NaN	-3.152	1.457	9.446	1504.762	1504.762	1509.890	6.122	0.412	-13.191	-5.742	-0.306	8.344
238777.252	NaN	-3.141	1.467	9.446	1506.227	1504.029	1511.355	6.198	0.412	-13.282	-5.818	-0.383	8.344
238778.229	NaN	-3.141	1.467	9.457	1505.495	1504.029	1511.355	6.198	0.427	-13.252	-5.971	-0.306	8.344
238779.205	NaN	-3.141	1.467	9.467	1506.227	1504.029	1509.158	6.061	0.366	-13.191	-5.895	-0.383	8.344
238780.182	NaN	-3.141	1.478	9.467	1504.762	1503.297	1509.158	5.893	0.427	-13.374	-5.895	-0.459	8.498
238781.158	NaN	-3.152	1.489	9.478	1504.029	1502.564	1509.890	5.985	0.366	-13.252	-5.895	-0.306	8.498
238782.135	NaN	-3.141	1.478	9.478	1504.762	1504.029	1510.623	5.985	0.641	-13.099	-5.818	-0.459	8.344
238783.112	NaN	-3.152	1.467	9.489	1505.495	1502.564	1508.425	6.092	0.763	-13.130	-5.818	-0.536	8.421
238784.088	NaN	-3.152	1.467	9.511	1503.297	1502.564	1512.088	6.092	0.580	-13.069	-5.818	-0.383	8.421
238785.065	NaN	-3.130	1.478	9.511	1505.495	1504.029	1511.355	6.214	0.473	-13.115	-5.895	-0.459	8.421
238786.041	NaN	-3.141	1.467	9.500	1504.762	1504.029	1509.890	6.397	0.382	-13.298	-5.742	-0.383	8.344
238787.018	NaN	-3.141	1.478	9.489	1504.762	1502.564	1509.158	6.137	0.550	-13.267	-5.742	-0.306	8.344
238787.994	NaN	-3.141	1.467	9.489	1504.762	1503.297	1508.425	6.046	0.626	-13.206	-5.895	-0.306	8.498
238788.971	NaN	-3.130	1.467	9.489	1505.495	1504.029	1510.623	6.076	0.565	-13.053	-5.818	-0.459	8.421
238789.948	NaN	-3.130	1.467	9.478	1504.762	1504.029	1510.623	6.061	0.427	-13.023	-5.895	-0.230	8.344
238790.924	NaN	-3.130	1.478	9.478	1506.227	1504.762	1511.355	6.046	0.412	-13.237	-5.742	-0.383	8.421
238791.901	NaN	-3.130	1.478	9.467	1505.495	1503.297	1509.890	6.015	0.550	-13.313	-5.818	-0.383	8.344
238792.877	NaN	-3.130	1.500	9.457	1506.227	1504.762	1511.355	5.939	0.656	-13.237	-5.818	-0.459	8.344
238793.854	NaN	-3.141	1.500	9.457	1505.495	1504.029	1511.355	5.985	0.595	-13.099	-5.665	-0.536	8.268
238794.830	NaN	-3.163	1.489	9.457	1505.495	1504.029	1510.623	6.198	0.504	-13.084	-5.818	-0.306	8.421
238795.807	NaN	-3.163	1.489	9.457	1504.762	1503.297	1509.890	6.198	0.565	-13.038	-5.818	-0.306	8.421
238796.783	NaN	-3.174	1.467	9.446	1506.227	1503.297	1509.890	6.031	0.458	-13.023	-5.665	-0.383	8.344
238797.760	NaN	-3.163	1.467	9.446	1505.495	1504.762	1510.623	5.908	0.504	-13.038	-5.742	-0.383	8.344
238798.737	NaN	-3.163	1.467	9.446	1505.495	1504.029	1509.890	6.061	0.550	-13.099	-5.818	-0.306	8.421
238799.713	NaN	-3.152	1.467	9.435	1505.495	1504.762	1509.890	6.015	0.489	-13.298	-5.818	-0.536	8.498
238800.690	NaN	-3.152	1.467	9.446	1505.495	1504.029	1509.890	5.710	0.534	-13.374	-5.818	-0.383	8.344
238801.666	NaN	-3.152	1.457	9.457	1506.227	1503.297	1510.623	5.954	0.565	-13.038	-5.742	-0.230	8.344
238802.643	NaN	-3.152	1.467	9.478	1504.029	1504.029	1509.890	6.000	0.626	-12.992	-5.818	-0.383	8.574
238803.619	NaN	-3.141	1.478	9.489	1504.762	1504.029	1509.890	6.107	0.534	-13.145	-5.818	-0.383	8.498
238804.596	NaN	-3.152	1.478	9.500	1504.762	1503.297	1509.158	6.183	0.611	-13.191	-5.742	-0.383	8.421
238805.573	NaN	-3.163	1.467	9.489	1505.495	1503.297	1507.692	6.153	0.641	-13.130	-5.971	-0.383	8.344
238806.549	NaN	-3.141	1.478	9.489	1506.227	1504.029	1510.623	6.336	0.672	-13.191	-5.895	-0.383	8.421
238807.526	NaN	-3.152	1.457	9.489	1505.495	1504.029	1510.623	5.985	0.580	-13.374	-5.818	-0.306	8.574
238808.502	NaN	-3.130	1.478	9.500	1505.495	1504.029	1510.623	6.107	0.504	-13.435	-5.818	-0.459	8.421
238809.479	NaN	-3.130	1.467	9.489	1504.762	1504.029	1509.890	6.031	0.397	-13.176	-5.895	-0.383	8.344
238810.455	NaN	-3.141	1.478	9.489	1506.227	1504.029	1508.425	6.122	0.458	-13.038	-5.818	-0.383	8.421
238811.432	NaN	-3.130	1.478	9.478	1505.495	1504.762	1509.890	5.969	0.412	-13.053	-5.742	-0.383	8.191
238812.408	NaN	-3.141	1.467	9.478	1505.495	1504.029	1511.355	6.061	0.443	-12.870	-5.895	-0.383	8.344
238813.385	NaN	-3.152	1.478	9.478	1505.495	1503.297	1509.158	6.122	0.489	-12.977	-5.818	-0.306	8.344
238814.362	NaN	-3.152	1.467	9.478	1505.495	1504.029	1509.158	6.015	0.733	-13.023	-5.742	-0.230	8.421
238815.338	NaN	-3.152	1.467	9.467	1506.227	1504.762	1510.623	6.076	0.641	-13.176	-5.971	-0.306	8.498
238816.315	NaN	-3.163	1.467	9.467	1506.227	1504.029	1512.088	6.031	0.458	-13.344	-5.665	-0.459	8.574
238817.291	NaN	-3.163	1.457	9.467	1504.762	1503.297	1510.623	6.092	0.290	-13.221	-5.818	-0.536	8.498
238818.268	NaN	-3.163	1.457	9.467	1504.762	1502.564	1509.890	6.092	0.336	-13.221	-5.818	-0.383	8.268
238819.244	NaN	-3.152	1.457	9.457	1504.762	1504.029	1509.158	5.954	0.611	-13.267	-5.895	-0.306	8.344
238820.221	NaN	-3.152	1.457	9.446	1505.495	1503.297	1510.623	5.969	0.672	-13.145	-5.818	-0.459	8.421
238821.198	NaN	-3.141	1.478	9.467	1505.495	1504.762	1512.088	5.924	0.641	-13.099	-5.818	-0.459	8.344
238822.174	NaN	-3.152	1.478	9.457	1505.495	1503.297	1510.623	6.214	0.534	-13.191	-5.665	-0.383	8.421
238823.151	NaN	-3.152	1.489	9.478	1504.762	1503.297	1510.623	6.214	0.397	-13.466	-5.895	-0.306	8.498
238824.127	NaN	-3.152	1.478	9.478	1506.227	1503.297	1510.623	6.153	0.458	-13.374	-5.742	-0.306	8.268
238825.104	NaN	-3.152	1.467	9.489	1504.029	1503.297	1509.158	6.000	0.641	-13.099	-5.818	-0.383	8.421
238826.080	NaN	-3.141	1.478	9.500	1506.227	1504.029	1511.355	5.969	0.733	-13.130	-5.742	-0.459	8.574
238827.057	NaN	-3.152	1.478	9.511	1504.762	1505.495	1510.623	5.893	0.702	-13.298	-5.818	-0.306	8.421
238828.033	NaN	-3.152	1.467	9.522	1504.762	1504.029	1509.158	5.802	0.641	-13.252	-5.742	-0.383	8.421
238829.010	NaN	-3.141	1.467	9.533	1506.960	1504.762	1511.355	5.802	0.626	-13.176	-5.895	-0.306	8.421
238829.987	NaN	-3.141	1.467	9.522	1505.495	1504.029	1511.355	5.924	0.580	-12.992	-5.895	-0.459	8.421
238830.963	NaN	-3.141	1.478	9.500	1505.495	1504.029	1511.355	6.137	0.458	-13.130	-5.895	-0.306	8.421
238831.940	NaN	-3.141	1.467	9.489	1506.227	1504.762	1511.355	6.214	0.672	-13.237	-5.895	-0.383	8.344
238832.916	NaN	-3.141	1.478	9.489	1505.495	1504.762	1509.890	6.107	0.855	-13.237	-5.742	-0.230	8.421
238833.893	NaN	-3.141	1.478	9.478	1505.495	1504.762	1509.158	5.985	0.870	-13.145	-5.895	-0.306	8.268
238834.869	NaN	-3.141	1.478	9.478	1505.495	1504.762	1510.623	5.725	0.702	-13.099	-5.818	-0.306	8.344
238835.846	NaN	-3.141	1.478	9.467	1504.762	1504.029	1510.623	5.649	0.565	-13.069	-5.742	-0.383	8.421
238836.823	NaN	-3.141	1.467	9.467	1505.495	1504.029	1510.623	5.878	0.687	-13.176	-5.742	-0.383	8.421
238837.799	NaN	-3.120	1.467	9.457	1506.227	1504.029	1509.890	6.076	0.794	-13.252	-5.818	-0.306	8.344
238838.776	NaN	-3.120	1.457	9.457	1506.227	1504.762	1512.088	6.336	0.763	-13.176	-5.895	-0.536	8.268
238839.752	NaN	-3.130	1.467	9.457	1504.762	1504.029	1510.623	6.153	0.779	-12.992	-5.742	-0.306	8.498
238840.729	NaN	-3.130	1.457	9.457	1505.495	1504.762	1509.890	6.092	0.626	-13.038	-5.895	-0.306	8.344
238841.705	NaN	-3.141	1.467	9.446	1506.960	1504.029	1510.623	5.893	0.504	-13.206	-5.895	-0.306	8.344
238842.682	NaN	-3.130	1.467	9.446	1505.495	1504.029	1510.623	6.031	0.550	-13.008	-5.742	-0.459	8.498
238843.658	NaN	-3.130	1.467	9.446	1506.227	1504.029	1509.890	5.969	0.687	-13.099	-5.818	-0.383	8.344
238844.635	NaN	-3.130	1.457	9.446	1505.495	1503.297	1509.890	6.137	0.672	-13.160	-5.818	-0.383	8.268
238845.612	NaN	-3.141	1.457	9.457	1506.227	1504.029	1510.623	6.351	0.748	-12.992	-5.589	-0.383	8.498
238846.588	NaN	-3.120	1.467	9.467	1506.227	1504.029	1510.623	6.244	0.840	-13.130	-5.818	-0.383	8.344
238847.565	NaN	-3.141	1.467	9.489	1506.227	1504.029	1509.158	6.137	0.733	-13.176	-5.665	-0.306	8.498
238848.541	NaN	-3.141	1.467	9.500	1506.227	1504.029	1510.623	5.954	0.504	-13.008	-5.818	-0.306	8.421
238849.518	NaN	-3.141	1.478	9.489	1505.495	1504.029	1509.158	6.000	0.611	-12.947	-5.665	-0.383	8.498
238850.494	NaN	-3.152	1.467	9.500	1505.495	1503.297	1509.890	6.137	0.870	-12.962	-5.818	-0.536	8.498
238851.471	NaN	-3.141	1.489	9.500	1505.495	1503.297	1509.890	6.107	0.916	-13.038	-5.665	-0.383	8.268
238852.448	NaN	-3.152	1.467	9.489	1505.495	1503.297	1508.425	6.000	0.840	-13.221	-5.818	-0.383	8.421
238853.424	NaN	-3.141	1.467	9.489	1504.762	1503.297	1507.692	5.847	0.947	-13.237	-5.895	-0.383	8.421
238854.401	NaN	-3.141	1.467	9.478	1504.762	1503.297	1509.158	5.710	0.763	-13.008	-5.818	-0.306	8.344
238855.377	NaN	-3.141	1.457	9.457	1504.029	1502.564	1509.158	5.847	0.687	-13.176	-5.818	-0.383	8.344
238856.354	NaN	-3.141	1.467	9.457	1503.297	1502.564	1509.890	6.000	0.672	-13.176	-5.895	-0.383	8.421
238857.330	NaN	-3.130	1.467	9.446	1505.495	1504.029	1509.158	6.137	0.824	-12.901	-5.818	-0.306	8.344
238858.307	NaN	-3.130	1.467	9.435	1504.029	1503.297	1509.890	6.092	0.733	-12.901	-5.665	-0.383	8.421
238859.283	NaN	-3.141	1.457	9.435	1505.495	1502.564	1511.355	5.939	0.519	-12.947	-5.818	-0.459	8.421
238860.260	NaN	-3.141	1.457	9.435	1504.029	1503.297	1509.890	6.061	0.550	-13.099	-5.742	-0.230	8.421
238861.237	NaN	-3.130	1.457	9.435	1504.762	1504.029	1509.890	6.107	0.702	-13.130	-5.742	-0.306	8.421
238862.213	NaN	-3.141	1.446	9.435	1504.029	1504.029	1509.158	6.168	0.702	-12.962	-5.895	-0.459	8.344
238863.190	NaN	-3.130	1.457	9.446	1503.297	1503.297	1509.158	6.336	0.733	-12.992	-5.895	-0.383	8.421
238864.166	NaN	-3.141	1.467	9.435	1505.495	1503.297	1509.890	6.061	0.763	-13.145	-5.818	-0.230	8.498
238865.143	NaN	-3.141	1.467	9.446	1504.762	1503.297	1510.623	6.122	0.718	-13.099	-5.818	-0.383	8.421
238866.119	NaN	-3.120	1.478	9.467	1504.762	1504.029	1509.158	6.000	0.656	-13.053	-5.742	-0.536	8.421
238867.096	NaN	-3.130	1.467	9.467	1505.495	1504.029	1511.355	6.153	0.656	-12.992	-5.742	-0.383	8.498
238868.073	NaN	-3.130	1.467	9.478	1504.762	1503.297	1509.890	5.939	0.687	-12.977	-5.818	-0.306	8.421
238869.049	NaN	-3.120	1.489	9.489	1504.762	1504.762	1509.890	5.939	0.702	-12.931	-5.742	-0.459	8.498
238870.026	NaN	-3.130	1.478	9.467	1504.762	1502.564	1509.158	5.985	0.595	-12.931	-5.818	-0.306	8.344
238871.002	NaN	-3.130	1.478	9.478	1504.762	1503.297	1508.425	5.939	0.550	-12.901	-5.895	-0.383	8.498
238871.979	NaN	-3.130	1.478	9.478	1506.227	1504.029	1509.890	5.802	0.718	-13.084	-5.818	-0.383	8.421
238872.955	NaN	-3.141	1.478	9.467	1504.762	1502.564	1508.425	5.817	0.916	-13.145	-5.742	-0.383	8.421
238873.932	NaN	-3.130	1.478	9.478	1505.495	1504.029	1509.890	5.817	0.947	-13.053	-5.895	-0.383	8.268
238874.908	NaN	-3.130	1.489	9.489	1505.495	1504.029	1510.623	5.756	0.992	-12.931	-5.742	-0.383	8.268
238875.885	NaN	-3.130	1.489	9.489	1505.495	1504.762	1509.890	5.924	1.008	-12.931	-5.818	-0.383	8.344
238876.862	NaN	-3.141	1.489	9.478	1505.495	1503.297	1508.425	5.985	0.870	-12.901	-5.818	-0.383	8.344
238877.838	NaN	-3.141	1.478	9.457	1505.495	1502.564	1509.890	6.107	0.763	-12.931	-5.895	-0.459	8.421
238878.815	NaN	-3.130	1.478	9.467	1505.495	1503.297	1510.623	6.260	0.718	-12.992	-5.742	-0.383	8.498
238879.791	NaN	-3.120	1.478	9.467	1505.495	1503.297	1509.890	6.122	0.687	-12.992	-5.665	-0.536	8.421
238880.768	NaN	-3.130	1.478	9.467	1506.960	1504.029	1511.355	6.198	0.763	-12.992	-5.818	-0.459	8.421
238881.744	NaN	-3.141	1.467	9.446	1505.495	1504.029	1510.623	6.061	0.641	-13.099	-5.742	-0.383	8.268
238882.721	NaN	-3.130	1.478	9.446	1505.495	1504.762	1509.890	6.031	0.489	-13.084	-5.742	-0.306	8.421
238883.698	NaN	-3.141	1.467	9.435	1505.495	1504.029	1509.158	6.092	0.580	-13.160	-5.742	-0.306	8.344
238884.674	NaN	-3.130	1.478	9.457	1506.227	1504.762	1509.890	5.939	0.733	-13.130	-5.818	-0.383	8.344
238885.651	NaN	-3.141	1.467	9.457	1505.495	1503.297	1510.623	5.878	0.824	-12.977	-5.665	-0.459	8.421
238886.627	NaN	-3.130	1.467	9.457	1504.029	1504.029	1511.355	6.031	0.885	-12.855	-5.818	-0.383	8.344
238887.604	NaN	-3.130	1.467	9.467	1506.227	1504.029	1511.355	5.939	0.977	-12.916	-5.895	-0.383	8.498
238888.580	NaN	-3.130	1.467	9.478	1506.227	1503.297	1509.158	5.893	0.855	-13.053	-5.895	-0.383	8.574
238889.557	NaN	-3.130	1.457	9.478	1505.495	1504.029	1511.355	6.015	0.916	-12.916	-5.818	-0.306	8.421
238890.533	NaN	-3.141	1.457	9.478	1505.495	1504.029	1509.890	6.153	0.855	-12.931	-5.742	-0.459	8.498
238891.510	NaN	-3.130	1.467	9.478	1505.495	1504.029	1510.623	6.046	0.870	-12.931	-5.971	-0.306	8.421
238892.487	NaN	-3.120	1.478	9.478	1506.227	1504.029	1509.890	5.954	0.901	-13.008	-5.818	-0.306	8.344
238893.463	NaN	-3.120	1.478	9.478	1505.495	1504.029	1509.890	6.015	0.931	-13.160	-5.818	-0.306	8.421
238894.440	NaN	-3.130	1.478	9.500	1504.762	1504.762	1509.890	6.031	0.947	-13.084	-5.589	-0.306	8.344
238895.416	NaN	-3.141	1.478	9.489	1504.762	1504.762	1509.158	6.168	0.702	-12.840	-5.742	-0.383	8.421
238896.393	NaN	-3.141	1.478	9.489	1504.762	1504.029	1510.623	6.229	0.611	-12.748	-5.742	-0.306	8.421
238897.369	NaN	-3.141	1.478	9.489	1505.495	1503.297	1509.158	6.107	0.672	-12.702	-5.818	-0.383	8.421
238898.346	NaN	-3.152	1.467	9.489	1505.495	1504.029	1510.623	6.092	0.916	-12.733	-5.665	-0.383	8.498
238899.323	NaN	-3.163	1.467	9.478	1504.029	1503.297	1509.890	6.122	0.916	-12.824	-5.895	-0.306	8.421
238900.299	NaN	-3.152	1.478	9.467	1506.227	1504.029	1511.355	6.107	0.855	-13.069	-5.742	-0.306	8.421
238901.276	NaN	-3.141	1.478	9.457	1504.762	1504.762	1509.890	6.198	0.687	-13.099	-5.818	-0.383	8.268
238902.252	3736847660.699	-3.130	1.489	9.457	1505.495	1504.029	1509.890	6.122	0.794	-13.023	-5.895	-0.459	8.344
238903.229	NaN	-3.130	1.478	9.446	1505.495	1503.297	1512.088	5.802	0.870	-12.931	-5.742	-0.230	8.268
238904.205	NaN	-3.141	1.478	9.446	1505.495	1504.029	1509.890	5.786	0.870	-12.794	-5.818	-0.459	8.268
238905.182	NaN	-3.120	1.478	9.457	1505.495	1504.762	1511.355	5.954	0.855	-12.870	-5.818	-0.383	8.421
238906.158	NaN	-3.130	1.478	9.457	1504.762	1504.762	1509.890	6.183	0.763	-12.824	-5.895	-0.459	8.421
238907.135	NaN	-3.130	1.478	9.467	1504.762	1503.297	1510.623	6.137	0.824	-12.656	-5.665	-0.536	8.421
238908.112	NaN	-3.130	1.478	9.467	1505.495	1503.297	1509.890	5.985	0.870	-12.718	-5.818	-0.459	8.421
238909.088	NaN	-3.120	1.478	9.467	1506.227	1504.029	1511.355	6.092	0.947	-12.840	-5.895	-0.306	8.421
238910.065	NaN	-3.120	1.489	9.478	1505.495	1504.029	1511.355	5.924	1.023	-12.947	-5.665	-0.459	8.498
238911.041	NaN	-3.120	1.478	9.489	1504.762	1504.762	1509.158	6.000	0.916	-12.992	-5.818	-0.383	8.421
238912.018	NaN	-3.120	1.489	9.489	1504.762	1504.029	1510.623	6.168	0.885	-12.992	-5.742	-0.459	8.421
238912.994	NaN	-3.141	1.467	9.489	1505.495	1503.297	1510.623	6.046	0.885	-12.901	-5.818	-0.459	8.421
238913.971	NaN	-3.130	1.478	9.489	1506.227	1504.029	1511.355	6.061	0.992	-12.809	-5.742	-0.306	8.421
238914.948	NaN	-3.141	1.467	9.489	1504.762	1503.297	1509.158	6.015	1.008	-12.977	-5.818	-0.383	8.268
238915.924	NaN	-3.141	1.467	9.467	1504.762	1504.029	1509.158	6.061	1.023	-13.053	-5.818	-0.459	8.421
238916.901	NaN	-3.130	1.457	9.457	1505.495	1504.762	1510.623	6.198	1.145	-13.053	-5.742	-0.383	8.498
238917.877	NaN	-3.130	1.467	9.446	1505.495	1504.029	1510.623	5.939	1.069	-12.885	-5.895	-0.459	8.498
238918.854	NaN	-3.141	1.457	9.457	1505.495	1503.297	1509.890	5.985	1.038	-12.733	-5.742	-0.459	8.344
238919.830	NaN	-3.130	1.478	9.446	1504.762	1504.029	1508.425	6.061	1.069	-12.962	-5.895	-0.459	8.268
238920.807	NaN	-3.130	1.478	9.446	1504.762	1504.029	1509.890	6.092	1.023	-13.084	-5.818	-0.383	8.498
238921.783	NaN	-3.141	1.467	9.435	1504.762	1503.297	1508.425	6.046	0.947	-12.855	-5.818	-0.459	8.268
238922.760	NaN	-3.130	1.467	9.446	1504.762	1503.297	1509.158	6.061	0.870	-12.626	-5.818	-0.459	8.421
238923.737	NaN	-3.152	1.457	9.435	1504.762	1503.297	1509.158	6.092	0.779	-12.626	-5.971	-0.383	8.344
238924.713	NaN	-3.141	1.457	9.457	1504.029	1503.297	1509.158	6.137	0.794	-12.824	-5.818	-0.306	8.344
238925.690	NaN	-3.130	1.435	9.457	1505.495	1503.297	1509.890	5.954	0.916	-12.992	-5.742	-0.306	8.344
238926.666	NaN	-3.141	1.435	9.457	1503.297	1503.297	1509.890	5.710	1.038	-13.008	-5.818	-0.383	8.421
238927.643	NaN	-3.120	1.457	9.467	1504.762	1504.029	1510.623	5.618	0.992	-12.977	-5.818	-0.459	8.421
238928.619	NaN	-3.120	1.457	9.457	1504.029	1503.297	1509.890	5.786	0.977	-12.763	-5.742	-0.306	8.498
238929.596	NaN	-3.130	1.467	9.467	1504.762	1503.297	1507.692	5.969	0.977	-12.702	-5.818	-0.383	8.421
238930.573	NaN	-3.130	1.467	9.467	1505.495	1503.297	1509.158	6.031	0.977	-12.672	-5.895	-0.536	8.421
238931.549	NaN	-3.130	1.457	9.467	1504.762	1503.297	1510.623	6.168	1.115	-12.687	-5.971	-0.383	8.344
238932.526	NaN	-3.120	1.467	9.478	1505.495	1504.762	1510.623	6.305	1.115	-12.763	-5.895	-0.383	8.498
238933.502	NaN	-3.120	1.457	9.467	1504.029	1504.762	1509.890	6.168	1.130	-12.962	-5.665	-0.383	8.344
238934.479	NaN	-3.120	1.467	9.467	1504.762	1503.297	1509.890	6.260	1.084	-12.916	-5.742	-0.459	8.344
238935.455	NaN	-3.120	1.467	9.467	1504.762	1504.029	1511.355	6.061	1.084	-12.840	-5.818	-0.383	8.191
238936.432	NaN	-3.120	1.457	9.457	1505.495	1503.297	1509.890	6.031	1.023	-12.824	-5.971	-0.383	8.421
238937.408	NaN	-3.109	1.467	9.478	1504.762	1503.297	1509.158	6.046	1.160	-12.885	-5.818	-0.459	8.498
238938.385	NaN	-3.120	1.467	9.478	1505.495	1504.029	1509.890	5.985	1.237	-12.916	-5.971	-0.306	8.574
238939.362	NaN	-3.130	1.467	9.478	1504.762	1502.564	1508.425	5.969	1.221	-12.855	-5.818	-0.306	8.344
238940.338	NaN	-3.120	1.478	9.478	1506.227	1503.297	1508.425	5.832	1.237	-12.855	-5.818	-0.230	8.344
238941.315	NaN	-3.130	1.478	9.489	1504.762	1504.029	1509.158	5.893	0.992	-12.809	-5.818	-0.459	8.344
238942.291	NaN	-3.120	1.478	9.489	1503.297	1502.564	1508.425	5.985	0.947	-12.748	-5.895	-0.306	8.268
238943.268	NaN	-3.130	1.489	9.478	1505.495	1504.762	1510.623	6.061	1.053	-12.794	-5.895	-0.383	8.344
238944.244	NaN	-3.141	1.467	9.478	1505.495	1503.297	1511.355	5.939	1.145	-12.855	-5.742	-0.306	8.344
238945.221	NaN	-3.141	1.467	9.478	1505.495	1504.029	1509.890	6.046	1.221	-12.977	-5.818	-0.306	8.421
238946.198	NaN	-3.141	1.467	9.478	1505.495	1504.029	1509.890	6.122	0.916	-12.977	-5.742	-0.306	8.498
238947.174	NaN	-3.141	1.467	9.467	1505.495	1504.029	1510.623	6.107	0.840	-12.855	-5.818	-0.383	8.421
238948.151	NaN	-3.141	1.467	9.467	1504.762	1504.762	1510.623	6.000	0.947	-12.656	-5.895	-0.383	8.421
238949.127	NaN	-3.141	1.489	9.457	1505.495	1504.029	1512.088	5.847	1.053	-12.611	-5.742	-0.383	8.344
238950.104	NaN	-3.141	1.489	9.457	1506.960	1504.029	1510.623	5.863	1.115	-12.595	-5.742	-0.459	8.421
238951.080	NaN	-3.141	1.467	9.467	1505.495	1504.762	1512.088	5.908	1.069	-12.748	-5.818	-0.536	8.498
238952.057	NaN	-3.141	1.467	9.478	1504.762	1504.029	1510.623	5.985	1.176	-12.763	-5.742	-0.383	8.268
238953.033	NaN	-3.141	1.457	9.478	1505.495	1503.297	1511.355	6.000	1.145	-12.748	-5.665	-0.230	8.498
238954.010	NaN	-3.130	1.467	9.489	1505.495	1504.029	1510.623	6.000	1.084	-12.763	-5.818	-0.459	8.344
238954.987	NaN	-3.130	1.478	9.500	1504.762	1504.762	1509.890	5.969	1.084	-12.748	-5.742	-0.306	8.498
238955.963	NaN	-3.130	1.489	9.511	1503.297	1504.029	1509.890	5.832	1.099	-12.489	-5.665	-0.459	8.498
238956.940	NaN	-3.120	1.489	9.511	1504.762	1504.029	1510.623	5.847	1.115	-12.626	-5.895	-0.383	8.421
238957.916	NaN	-3.141	1.478	9.500	1506.227	1503.297	1510.623	5.878	1.160	-12.855	-5.895	-0.383	8.344
238958.893	NaN	-3.141	1.478	9.500	1505.495	1504.029	1511.355	5.878	1.160	-12.885	-5.895	-0.306	8.344
238959.869	NaN	-3.141	1.478	9.500	1505.495	1504.762	1509.158	5.863	1.160	-12.824	-5.818	-0.383	8.421
238960.846	NaN	-3.141	1.478	9.478	1505.495	1504.762	1509.158	5.802	1.145	-12.702	-5.818	-0.459	8.421
238961.823	NaN	-3.141	1.457	9.467	1504.029	1504.762	1510.623	5.924	1.099	-12.565	-5.742	-0.383	8.344
238962.799	NaN	-3.130	1.467	9.467	1506.227	1504.762	1511.355	5.832	1.252	-12.718	-5.971	-0.306	8.268
238963.776	NaN	-3.130	1.467	9.478	1505.495	1503.297	1511.355	5.908	1.160	-12.824	-5.742	-0.306	8.574
238964.752	NaN	-3.141	1.467	9.467	1505.495	1504.762	1509.158	5.832	1.130	-12.702	-5.742	-0.383	8.344
238965.729	NaN	-3.141	1.467	9.457	1505.495	1504.029	1510.623	5.893	1.252	-12.794	-5.971	-0.459	8.268
238966.705	NaN	-3.152	1.467	9.446	1506.227	1504.029	1509.890	5.893	1.252	-12.702	-5.818	-0.459	8.268
238967.682	NaN	-3.141	1.467	9.446	1506.227	1504.762	1509.890	5.863	1.252	-12.595	-5.742	-0.306	8.344
238968.658	NaN	-3.141	1.467	9.435	1506.227	1504.029	1509.890	5.802	1.237	-12.626	-5.818	-0.459	8.498
238969.635	NaN	-3.141	1.467	9.435	1504.762	1503.297	1509.158	5.893	1.206	-12.779	-5.742	-0.383	8.498
238970.612	NaN	-3.141	1.467	9.435	1504.762	1504.029	1509.890	6.031	1.130	-12.733	-5.818	-0.306	8.421
238971.588	NaN	-3.130	1.467	9.446	1506.227	1504.029	1509.890	5.939	1.115	-12.611	-5.742	-0.230	8.574
238972.565	NaN	-3.130	1.467	9.467	1504.762	1504.029	1509.890	6.076	1.145	-12.534	-5.895	-0.383	8.574
238973.541	NaN	-3.141	1.467	9.467	1505.495	1504.029	1511.355	6.107	1.130	-12.595	-5.742	-0.383	8.344
238974.518	NaN	-3.141	1.478	9.467	1506.960	1503.297	1510.623	6.061	1.298	-12.763	-5.818	-0.459	8.574
238975.494	NaN	-3.141	1.467	9.478	1505.495	1503.297	1511.355	5.985	1.359	-12.519	-5.895	-0.459	8.498
238976.471	NaN	-3.141	1.467	9.489	1506.227	1504.762	1511.355	5.969	1.221	-12.626	-5.742	-0.383	8.344
238977.448	NaN	-3.141	1.467	9.478	1505.495	1504.762	1509.890	5.985	1.099	-12.718	-5.971	-0.383	8.498
238978.424	NaN	-3.130	1.467	9.478	1506.227	1503.297	1509.890	6.076	1.038	-12.687	-5.742	-0.383	8.421
238979.401	NaN	-3.130	1.457	9.478	1504.762	1504.762	1509.890	6.061	1.176	-12.824	-5.742	-0.383	8.344
238980.377	NaN	-3.141	1.467	9.467	1504.762	1504.762	1511.355	5.924	1.389	-12.809	-5.971	-0.383	8.344
238981.354	NaN	-3.130	1.467	9.467	1505.495	1503.297	1510.623	6.000	1.359	-12.718	-5.742	-0.383	8.344
238982.330	NaN	-3.130	1.467	9.478	1506.227	1503.297	1510.623	6.260	1.252	-12.733	-5.742	-0.306	8.344
238983.307	NaN	-3.120	1.467	9.489	1505.495	1503.297	1510.623	6.305	1.298	-12.672	-5.818	-0.383	8.344
238984.283	NaN	-3.141	1.467	9.478	1506.227	1503.297	1509.158	6.198	1.221	-12.748	-5.818	-0.383	8.344
238985.260	NaN	-3.130	1.478	9.478	1505.495	1504.029	1511.355	6.153	1.221	-12.702	-5.818	-0.230	8.344
238986.237	NaN	-3.141	1.457	9.467	1505.495	1503.297	1509.158	6.000	1.084	-12.611	-5.818	-0.230	8.268
238987.213	NaN	-3.141	1.457	9.457	1504.029	1502.564	1507.692	5.817	1.084	-12.702	-5.818	-0.383	8.268
238988.190	NaN	-3.141	1.467	9.457	1505.495	1504.762	1510.623	5.969	1.038	-12.748	-5.895	-0.459	8.421
238989.166	NaN	-3.141	1.467	9.446	1504.762	1503.297	1509.890	6.198	1.069	-12.809	-5.818	-0.459	8.421
238990.143	NaN	-3.130	1.467	9.457	1505.495	1504.029	1509.890	6.015	1.115	-12.824	-5.818	-0.383	8.498
238991.119	NaN	-3.152	1.457	9.446	1506.227	1502.564	1510.623	5.817	1.160	-12.687	-5.818	-0.383	8.421
238992.096	NaN	-3.141	1.457	9.457	1504.762	1503.297	1509.158	5.817	1.282	-12.672	-5.742	-0.383	8.344
238993.073	NaN	-3.152	1.457	9.467	1505.495	1503.297	1508.425	6.000	1.374	-12.534	-5.895	-0.306	8.421
238994.049	NaN	-3.152	1.457	9.489	1505.495	1503.297	1509.158	5.924	1.252	-12.550	-5.818	-0.383	8.421
238995.026	NaN	-3.141	1.467	9.511	1505.495	1504.029	1511.355	5.802	1.176	-12.595	-5.818	-0.306	8.421
238996.002	NaN	-3.163	1.457	9.522	1504.029	1504.029	1511.355	5.893	1.130	-12.565	-5.818	-0.383	8.344
238996.979	NaN	-3.152	1.457	9.511	1504.762	1502.564	1508.425	6.107	1.160	-12.672	-5.895	-0.306	8.498
238997.955	NaN	-3.141	1.457	9.500	1504.762	1504.029	1509.890	6.275	1.237	-12.855	-5.818	-0.459	8.421
238998.932	NaN	-3.152	1.446	9.500	1504.029	1502.564	1509.890	6.061	1.298	-12.687	-5.818	-0.383	8.268
238999.908	NaN	-3.130	1.446	9.511	1504.762	1503.297	1509.158	5.954	1.405	-12.565	-5.818	-0.459	8.421
239000.885	NaN	-3.141	1.457	9.511	1506.227	1504.029	1509.890	5.924	1.527	-12.534	-5.895	-0.383	8.344
239001.862	NaN	-3.141	1.457	9.500	1504.029	1503.297	1509.158	5.893	1.435	-12.702	-5.818	-0.383	8.421
239002.838	NaN	-3.130	1.467	9.500	1505.495	1504.029	1510.623	5.863	1.328	-12.733	-5.895	-0.383	8.498
239003.815	NaN	-3.141	1.467	9.489	1505.495	1502.564	1509.890	5.924	1.435	-12.687	-5.818	-0.383	8.421
239004.791	NaN	-3.120	1.467	9.489	1504.029	1503.297	1510.623	5.908	1.344	-12.687	-5.818	-0.459	8.344
239005.768	NaN	-3.130	1.467	9.478	1506.227	1503.297	1509.890	6.031	1.282	-12.641	-5.895	-0.383	8.421
239006.744	NaN	-3.141	1.467	9.467	1504.029	1502.564	1509.158	5.863	1.298	-12.580	-5.742	-0.383	8.344
239007.721	NaN	-3.141	1.478	9.457	1505.495	1503.297	1510.623	5.863	1.252	-12.611	-5.818	-0.459	8.421
239008.698	NaN	-3.163	1.457	9.457	1504.762	1503.297	1509.890	5.771	1.191	-12.641	-5.818	-0.230	8.421
239009.674	NaN	-3.152	1.457	9.457	1503.297	1504.029	1509.890	5.832	1.267	-12.565	-5.818	-0.536	8.268
239010.651	NaN	-3.152	1.457	9.457	1504.762	1504.029	1510.623	6.046	1.160	-12.366	-5.971	-0.383	8.574
239011.627	NaN	-3.174	1.467	9.457	1504.762	1503.297	1508.425	5.969	1.084	-12.412	-5.818	-0.459	8.498
239012.604	NaN	-3.152	1.467	9.467	1505.495	1504.029	1510.623	5.893	1.069	-12.687	-5.742	-0.536	8.268
239013.580	NaN	-3.152	1.457	9.457	1506.227	1504.029	1509.890	6.031	1.252	-12.779	-5.895	-0.383	8.498
239014.557	NaN	-3.152	1.467	9.457	1504.029	1503.297	1509.890	6.031	1.542	-12.595	-5.818	-0.306	8.421
239015.533	NaN	-3.152	1.457	9.467	1504.762	1504.762	1509.890	5.817	1.588	-12.321	-5.742	-0.459	8.498
239016.510	NaN	-3.152	1.457	9.467	1504.762	1503.297	1508.425	5.771	1.359	-12.275	-5.665	-0.383	8.268
239017.487	NaN	-3.130	1.467	9.478	1506.227	1503.297	1511.355	5.725	1.191	-12.458	-5.818	-0.383	8.498
239018.463	NaN	-3.130	1.457	9.478	1505.495	1504.762	1509.158	5.542	1.221	-12.656	-5.742	-0.459	8.498
239019.440	NaN	-3.141	1.457	9.478	1503.297	1504.029	1508.425	5.710	1.252	-12.626	-5.818	-0.383	8.498
239020.416	NaN	-3.130	1.467	9.478	1506.227	1504.029	1509.890	5.893	1.374	-12.733	-5.818	-0.383	8.574
239021.393	NaN	-3.141	1.467	9.489	1504.762	1504.029	1509.158	6.168	1.466	-12.565	-5.818	-0.306	8.498
239022.369	NaN	-3.141	1.478	9.489	1506.227	1504.029	1510.623	6.290	1.389	-12.473	-5.742	-0.383	8.421
239023.346	NaN	-3.141	1.467	9.478	1505.495	1504.029	1509.158	6.244	1.481	-12.595	-5.818	-0.383	8.268
239024.323	NaN	-3.141	1.467	9.467	1504.762	1503.297	1509.890	6.122	1.511	-12.565	-5.742	-0.383	8.344
239025.299	NaN	-3.141	1.478	9.446	1505.495	1504.762	1511.355	6.000	1.466	-12.641	-5.818	-0.306	8.268
239026.276	NaN	-3.152	1.467	9.446	1504.029	1502.564	1509.890	5.924	1.206	-12.504	-5.818	-0.306	8.421
239027.252	NaN	-3.141	1.467	9.446	1504.762	1502.564	1509.158	6.015	1.130	-12.382	-5.895	-0.383	8.421
239028.229	NaN	-3.141	1.467	9.446	1504.762	1504.029	1509.890	5.817	1.389	-12.611	-5.818	-0.306	8.344
239029.205	NaN	-3.152	1.478	9.446	1505.495	1503.297	1509.158	5.832	1.557	-12.733	-5.818	-0.383	8.344
239030.182	NaN	-3.141	1.478	9.446	1505.495	1503.297	1509.890	5.939	1.389	-12.718	-5.818	-0.306	8.421
239031.158	NaN	-3.130	1.478	9.457	1505.495	1504.029	1510.623	6.137	1.221	-12.550	-5.895	-0.383	8.421
239032.135	NaN	-3.130	1.467	9.457	1504.762	1504.762	1510.623	6.107	1.221	-12.626	-5.818	-0.383	8.268
239033.112	NaN	-3.141	1.467	9.446	1504.762	1504.029	1510.623	5.847	1.237	-12.611	-5.895	-0.306	8.344
239034.088	NaN	-3.141	1.446	9.457	1504.029	1504.029	1509.158	5.802	1.328	-12.580	-5.742	-0.383	8.344
239035.065	NaN	-3.130	1.467	9.467	1507.692	1503.297	1508.425	5.557	1.206	-12.458	-5.818	-0.306	8.498
239036.041	NaN	-3.141	1.457	9.467	1505.495	1504.762	1509.890	5.511	1.115	-12.519	-5.818	-0.383	8.421
239037.018	NaN	-3.120	1.457	9.489	1505.495	1503.297	1509.158	5.695	1.282	-12.611	-5.895	-0.306	9.799
239037.994	NaN	-3.130	1.467	9.489	1504.762	1504.029	1509.158	5.756	1.389	-12.656	-5.818	-0.306	8.421
239038.971	NaN	-3.109	1.467	9.500	1505.495	1504.762	1510.623	5.893	1.374	-12.611	-5.895	-0.306	8.421
239039.948	NaN	-3.120	1.457	9.500	1505.495	1504.029	1511.355	6.000	1.328	-12.519	-5.818	-0.459	8.498
239040.924	NaN	-3.120	1.467	9.500	1505.495	1504.762	1510.623	6.092	1.359	-12.321	-5.818	-0.459	8.421
239041.901	NaN	-3.120	1.457	9.500	1504.029	1504.029	1510.623	6.076	1.450	-12.504	-5.742	-0.306	8.421
239042.877	NaN	-3.120	1.467	9.500	1504.762	1504.762	1509.890	6.015	1.435	-12.519	-5.895	-0.383	8.268
239043.854	NaN	-3.120	1.467	9.511	1505.495	1504.762	1509.158	6.137	1.374	-12.626	-5.818	-0.383	8.421
239044.830	NaN	-3.130	1.457	9.489	1506.227	1504.762	1510.623	5.908	1.206	-12.824	-5.818	-0.459	8.421
239045.807	NaN	-3.141	1.467	9.478	1505.495	1504.029	1510.623	5.817	1.282	-12.931	-5.971	-0.383	8.268
239046.783	NaN	-3.152	1.457	9.467	1504.029	1503.297	1509.890	5.832	1.466	-12.550	-5.895	-0.306	8.498
239047.760	NaN	-3.141	1.467	9.467	1505.495	1504.029	1510.623	5.908	1.481	-12.458	-5.971	-0.383	8.421
239048.737	NaN	-3.152	1.467	9.457	1504.762	1504.029	1512.088	5.863	1.527	-12.565	-5.742	-0.383	8.421
239049.713	NaN	-3.152	1.467	9.446	1505.495	1504.029	1510.623	5.832	1.588	-12.565	-5.895	-0.383	8.344
239050.690	NaN	-3.152	1.467	9.457	1505.495	1503.297	1510.623	5.786	1.420	-12.458	-5.818	-0.383	8.191
239051.666	NaN	-3.152	1.467	9.446	1505.495	1504.029	1510.623	5.954	1.344	-12.519	-5.742	-0.459	8.344
239052.643	NaN	-3.163	1.467	9.446	1504.762	1503.297	1508.425	5.985	1.420	-12.519	-5.818	-0.383	8.344
239053.619	NaN	-3.141	1.467	9.446	1505.495	1504.762	1511.355	5.802	1.374	-12.534	-5.971	-0.306	8.268
239054.596	NaN	-3.141	1.467	9.424	1504.762	1504.029	1510.623	5.847	1.221	-12.550	-5.895	-0.306	8.421
239055.573	NaN	-3.163	1.457	9.424	1505.495	1503.297	1511.355	6.183	1.282	-12.565	-6.048	-0.459	8.268
239056.549	NaN	-3.130	1.457	9.424	1505.495	1504.762	1510.623	6.076	1.466	-12.565	-5.818	-0.306	8.498
239057.526	NaN	-3.130	1.457	9.435	1505.495	1503.297	1509.890	6.092	1.298	-12.351	-5.895	-0.536	8.421
239058.502	NaN	-3.141	1.467	9.435	1506.227	1503.297	1509.890	6.000	1.237	-12.458	-5.818	-0.306	8.498
239059.479	NaN	-3.141	1.457	9.457	1504.762	1503.297	1509.890	5.969	1.237	-12.443	-5.818	-0.306	8.421
239060.455	NaN	-3.152	1.457	9.478	1506.227	1504.762	1507.692	6.092	1.435	-12.412	-5.742	-0.383	8.498
239061.432	NaN	-3.141	1.467	9.478	1505.495	1504.762	1510.623	6.137	1.313	-12.504	-5.818	-0.459	8.344
239062.408	NaN	-3.130	1.467	9.489	1506.227	1504.762	1509.158	6.092	1.237	-12.733	-5.742	-0.536	8.421
239063.385	NaN	-3.141	1.457	9.489	1504.762	1504.029	1509.890	6.076	1.298	-12.748	-5.895	-0.383	8.421
239064.362	NaN	-3.141	1.467	9.489	1505.495	1503.297	1510.623	5.985	1.252	-12.611	-5.665	-0.459	8.421
239065.338	NaN	-3.130	1.478	9.489	1504.762	1504.029	1511.355	5.756	1.237	-12.458	-5.818	-0.383	8.421
239066.315	NaN	-3.141	1.478	9.500	1504.762	1504.762	1509.158	5.664	1.344	-12.351	-5.818	-0.459	8.344
239067.291	NaN	-3.141	1.467	9.489	1506.227	1504.029	1508.425	5.969	1.466	-12.489	-5.818	-0.306	8.268
239068.268	NaN	-3.152	1.467	9.478	1505.495	1503.297	1508.425	5.817	1.542	-12.565	-5.742	-0.230	8.498
239069.244	NaN	-3.152	1.478	9.467	1505.495	1504.029	1509.158	5.817	1.481	-12.641	-5.818	-0.383	8.574
239070.221	NaN	-3.141	1.478	9.467	1506.227	1504.029	1510.623	5.832	1.481	-12.794	-5.818	-0.230	8.268
239071.198	NaN	-3.141	1.467	9.446	1504.762	1504.762	1509.890	5.878	1.298	-12.504	-5.742	-0.383	8.344
239072.174	3736847660.868	-3.152	1.467	9.446	1504.762	1504.762	1509.158	5.802	1.221	-12.382	-5.895	-0.383	8.344
239073.151	NaN	-3.152	1.467	9.435	1505.495	1504.762	1510.623	5.756	1.221	-12.550	-5.742	-0.459	8.421
239074.127	NaN	-3.152	1.467	9.435	1504.762	1502.564	1509.158	5.924	1.313	-12.626	-5.818	-0.459	8.344
239075.104	NaN	-3.130	1.478	9.446	1505.495	1504.029	1509.158	5.893	1.405	-12.565	-5.895	-0.230	8.344
239076.080	NaN	-3.141	1.467	9.446	1505.495	1504.029	1510.623	5.969	1.405	-12.458	-5.895	-0.459	8.268
239077.057	NaN	-3.152	1.467	9.446	1504.762	1503.297	1510.623	6.015	1.237	-12.489	-5.742	-0.459	8.421
239078.033	NaN	-3.152	1.467	9.467	1505.495	1503.297	1510.623	5.847	1.176	-12.626	-5.818	-0.306	8.191
239079.010	NaN	-3.141	1.478	9.478	1506.227	1504.029	1512.088	5.679	1.298	-12.702	-5.895	-0.383	8.421
239079.987	NaN	-3.130	1.489	9.457	1505.495	1503.297	1510.623	5.435	1.344	-12.656	-5.818	-0.383	8.498
239080.963	NaN	-3.130	1.478	9.467	1506.227	1504.029	1511.355	5.557	1.221	-12.641	-5.895	-0.383	8.421
239081.940	NaN	-3.130	1.478	9.478	1504.762	1504.029	1510.623	5.710	1.267	-12.641	-5.818	-0.459	8.574
239082.916	NaN	-3.141	1.467	9.467	1505.495	1504.029	1509.890	5.817	1.145	-12.672	-5.818	-0.383	8.344
239083.893	NaN	-3.141	1.457	9.457	1504.029	1504.029	1510.623	6.046	1.221	-12.626	-5.818	-0.459	8.574
239084.869	NaN	-3.130	1.467	9.467	1505.495	1503.297	1509.890	6.137	1.374	-12.366	-5.742	-0.383	8.421
239085.846	NaN	-3.141	1.467	9.467	1505.495	1504.762	1510.623	6.198	1.450	-12.260	-5.971	-0.306	8.421
239086.823	NaN	-3.152	1.467	9.467	1504.762	1502.564	1509.890	5.954	1.450	-12.336	-5.971	-0.383	8.421
239087.799	NaN	-3.141	1.478	9.467	1506.227	1504.762	1510.623	5.756	1.374	-12.489	-5.742	-0.383	8.421
239088.776	NaN	-3.141	1.478	9.467	1505.495	1503.297	1509.890	5.740	1.496	-12.550	-5.971	-0.306	8.344
239089.752	NaN	-3.141	1.478	9.478	1505.495	1504.029	1512.088	5.679	1.481	-12.611	-5.742	-0.383	8.421
239090.729	NaN	-3.141	1.467	9.478	1505.495	1504.029	1511.355	5.908	1.481	-12.672	-5.895	-0.306	8.344
239091.705	NaN	-3.141	1.467	9.457	1504.029	1504.029	1510.623	5.756	1.542	-12.534	-5.818	-0.383	8.268
239092.682	NaN	-3.130	1.478	9.457	1504.762	1504.762	1511.355	5.817	1.573	-12.336	-5.895	-0.459	8.344
239093.658	NaN	-3.130	1.478	9.457	1505.495	1504.029	1509.890	5.710	1.450	-12.076	-5.742	-0.230	8.268
239094.635	NaN	-3.141	1.467	9.457	1505.495	1504.762	1510.623	5.740	1.328	-12.229	-5.971	-0.306	8.498
239095.612	NaN	-3.141	1.467	9.457	1505.495	1504.029	1510.623	5.908	1.420	-12.351	-5.665	-0.383	8.421
239096.588	NaN	-3.141	1.489	9.457	1506.227	1504.029	1510.623	5.725	1.374	-12.473	-5.742	-0.459	8.344
239097.565	NaN	-3.141	1.489	9.467	1506.227	1504.029	1510.623	5.511	1.496	-12.595	-5.818	-0.383	8.421
239098.541	NaN	-3.152	1.478	9.467	1506.227	1502.564	1509.890	5.679	1.649	-12.550	-5.895	-0.383	8.498
239099.518	NaN	-3.152	1.467	9.489	1504.762	1502.564	1509.158	5.817	1.557	-12.595	-5.818	-0.459	8.268
239100.494	NaN	-3.152	1.467	9.478	1505.495	1504.029	1509.890	5.954	1.084	-12.534	-5.895	-0.459	8.344
239101.471	NaN	-3.163	1.478	9.478	1504.762	1503.297	1509.890	5.985	1.053	-12.489	-5.818	-0.383	8.421
239102.448	NaN	-3.152	1.478	9.478	1503.297	1502.564	1507.692	5.969	1.237	-12.412	-5.742	-0.306	8.344
239103.424	NaN	-3.141	1.478	9.478	1505.495	1504.029	1510.623	5.893	1.374	-12.336	-5.742	-0.383	8.344
239104.401	NaN	-3.152	1.467	9.478	1504.762	1503.297	1510.623	5.710	1.481	-12.198	-5.818	-0.383	8.574
239105.377	NaN	-3.141	1.467	9.500	1505.495	1504.029	1511.355	5.740	1.450	-12.382	-5.818	-0.459	8.421
239106.354	NaN	-3.141	1.467	9.500	1506.960	1504.029	1511.355	6.000	1.374	-12.443	-5.742	-0.383	8.498
239107.330	NaN	-3.130	1.457	9.500	1505.495	1504.029	1510.623	6.046	1.420	-12.366	-5.742	-0.306	8.421
239108.307	NaN	-3.130	1.457	9.500	1504.762	1504.029	1508.425	5.954	1.618	-12.443	-5.818	-0.383	8.421
239109.283	NaN	-3.141	1.457	9.500	1505.495	1503.297	1511.355	5.786	1.527	-12.443	-5.895	-0.230	8.498
239110.260	NaN	-3.130	1.457	9.500	1506.227	1504.762	1512.088	5.695	1.664	-12.412	-5.895	-0.383	8.344
239111.237	NaN	-3.130	1.457	9.478	1505.495	1504.029	1509.890	5.588	1.542	-12.229	-5.818	-0.383	8.421
239112.213	NaN	-3.120	1.457	9.467	1504.762	1504.029	1510.623	5.603	1.542	-12.198	-5.818	-0.306	8.421
239113.190	NaN	-3.141	1.457	9.467	1504.762	1503.297	1510.623	5.878	1.511	-12.412	-5.818	-0.383	8.498
239114.166	NaN	-3.141	1.467	9.467	1504.762	1502.564	1510.623	6.031	1.374	-12.260	-5.742	-0.383	8.421
239115.143	NaN	-3.141	1.467	9.457	1505.495	1504.029	1511.355	5.893	1.435	-12.076	-5.742	-0.306	8.421
239116.119	NaN	-3.141	1.467	9.435	1504.762	1504.029	1510.623	5.679	1.466	-12.260	-5.895	-0.230	8.421
239117.096	NaN	-3.163	1.467	9.435	1504.029	1504.029	1510.623	5.725	1.450	-12.565	-5.818	-0.383	8.421
239118.073	NaN	-3.163	1.467	9.435	1505.495	1502.564	1509.890	5.817	1.588	-12.672	-5.895	-0.459	8.268
239119.049	NaN	-3.152	1.467	9.435	1506.227	1504.029	1511.355	6.000	1.588	-12.489	-5.818	-0.383	8.498
239120.026	NaN	-3.152	1.467	9.457	1506.227	1503.297	1509.158	5.908	1.542	-12.458	-5.895	-0.459	8.191
239121.002	NaN	-3.141	1.457	9.467	1505.495	1503.297	1510.623	5.817	1.496	-12.290	-5.665	-0.306	8.344
239121.979	NaN	-3.141	1.457	9.478	1505.495	1504.762	1510.623	5.954	1.359	-12.336	-5.895	-0.383	8.498
239122.955	NaN	-3.152	1.457	9.489	1506.960	1504.029	1509.890	6.153	1.237	-12.412	-5.895	-0.459	8.268
239123.932	NaN	-3.141	1.478	9.500	1506.227	1504.029	1510.623	5.969	1.252	-12.427	-5.742	-0.383	8.574
239124.908	NaN	-3.141	1.467	9.500	1504.762	1503.297	1511.355	5.649	1.328	-12.458	-5.818	-0.383	8.421
239125.885	NaN	-3.141	1.467	9.500	1505.495	1503.297	1510.623	5.405	1.344	-12.305	-5.895	-0.536	8.268
239126.862	NaN	-3.141	1.457	9.489	1503.297	1504.029	1509.158	5.786	1.511	-12.260	-5.742	-0.383	8.344
239127.838	NaN	-3.141	1.478	9.500	1506.227	1504.029	1512.088	5.985	1.588	-12.412	-5.742	-0.383	8.344
239128.815	NaN	-3.141	1.467	9.500	1505.495	1504.762	1511.355	5.985	1.588	-12.504	-6.048	-0.536	8.498
239129.791	NaN	-3.141	1.467	9.500	1505.495	1503.297	1509.890	5.756	1.695	-12.489	-5.818	-0.383	8.344
239130.768	NaN	-3.152	1.457	9.489	1505.495	1504.029	1510.623	5.618	1.618	-12.382	-5.971	-0.383	8.498
239131.744	NaN	-3.163	1.467	9.467	1504.762	1503.297	1509.890	5.664	1.466	-12.366	-5.742	-0.383	8.344
239132.721	NaN	-3.163	1.467	9.467	1505.495	1504.762	1511.355	5.908	1.466	-12.397	-5.818	-0.383	8.498
239133.698	NaN	-3.163	1.467	9.457	1505.495	1504.029	1510.623	5.847	1.359	-12.550	-5.742	-0.383	8.421
239134.674	NaN	-3.163	1.457	9.457	1505.495	1503.297	1509.890	5.802	1.359	-12.473	-5.895	-0.306	8.421
239135.651	NaN	-3.174	1.457	9.446	1504.029	1504.762	1509.890	5.695	1.359	-12.198	-5.818	-0.230	8.344
239136.627	NaN	-3.174	1.457	9.435	1504.762	1504.762	1510.623	5.740	1.359	-12.076	-5.818	-0.536	8.344
239137.604	NaN	-3.152	1.467	9.435	1505.495	1504.762	1509.890	5.908	1.267	-12.122	-5.818	-0.383	8.344
239138.580	NaN	-3.152	1.467	9.424	1506.227	1504.029	1509.890	5.863	1.405	-12.366	-5.818	-0.383	8.421
239139.557	NaN	-3.163	1.467	9.424	1504.762	1503.297	1509.890	5.817	1.496	-12.489	-5.818	-0.383	8.421
239140.533	NaN	-3.174	1.446	9.424	1504.762	1504.029	1510.623	5.634	1.542	-12.580	-5.818	-0.383	8.498
239141.510	NaN	-3.163	1.467	9.435	1506.227	1504.762	1511.355	5.511	1.420	-12.534	-5.818	-0.459	8.344
239142.487	NaN	-3.174	1.446	9.435	1503.297	1503.297	1509.890	5.603	1.466	-12.473	-5.895	-0.306	8.421
239143.463	NaN	-3.163	1.457	9.446	1505.495	1503.297	1509.890	5.786	1.405	-12.412	-5.742	-0.383	8.574
239144.440	NaN	-3.152	1.446	9.457	1504.762	1504.029	1509.158	5.786	1.481	-12.443	-5.818	-0.306	8.344
239145.416	NaN	-3.152	1.446	9.457	1504.762	1503.297	1509.158	6.015	1.420	-12.458	-5.818	-0.383	8.498
239146.393	NaN	-3.141	1.457	9.467	1505.495	1504.029	1510.623	5.985	1.282	-12.260	-5.818	-0.383	8.344
239147.369	NaN	-3.152	1.457	9.478	1506.227	1502.564	1509.158	5.634	1.389	-12.290	-5.818	-0.306	8.344
239148.346	NaN	-3.152	1.457	9.489	1504.029	1503.297	1509.890	5.710	1.527	-12.427	-5.895	-0.459	8.268
239149.323	NaN	-3.141	1.457	9.500	1504.762	1502.564	1509.890	5.771	1.664	-12.427	-5.895	-0.383	8.421
239150.299	NaN	-3.141	1.457	9.489	1504.762	1503.297	1509.158	5.725	1.710	-12.504	-5.818	-0.459	8.498
239151.276	NaN	-3.130	1.478	9.500	1505.495	1503.297	1509.890	5.588	1.466	-12.351	-5.971	-0.306	8.268
239152.252	NaN	-3.152	1.457	9.489	1503.297	1504.029	1510.623	5.618	1.282	-12.397	-5.818	-0.383	8.344
239153.229	NaN	-3.141	1.467	9.500	1506.227	1503.297	1509.158	5.679	1.267	-12.366	-5.895	-0.383	8.421
239154.205	NaN	-3.152	1.478	9.489	1505.495	1504.029	1509.890	5.664	1.374	-12.183	-5.818	-0.383	8.344
239155.182	NaN	-3.130	1.489	9.489	1506.227	1504.029	1510.623	5.527	1.420	-12.122	-5.895	-0.459	8.421
239156.158	NaN	-3.130	1.478	9.489	1505.495	1503.297	1511.355	5.435	1.359	-12.198	-5.895	-0.383	8.498
239157.135	NaN	-3.130	1.489	9.478	1504.762	1503.297	1509.890	5.847	1.267	-12.137	-5.818	-0.459	8.268
239158.112	NaN	-3.141	1.478	9.467	1504.762	1504.029	1511.355	6.061	1.221	-12.198	-5.742	-0.383	8.344
239159.088	NaN	-3.141	1.489	9.457	1506.227	1504.029	1511.355	5.908	1.252	-12.275	-5.818	-0.306	8.421
239160.065	NaN	-3.141	1.478	9.457	1505.495	1503.297	1509.890	5.771	1.344	-12.321	-5.818	-0.536	8.344
239161.041	NaN	-3.141	1.478	9.457	1505.495	1503.297	1512.088	5.771	1.359	-12.244	-5.818	-0.383	8.421
239162.018	NaN	-3.141	1.467	9.446	1506.227	1504.029	1510.623	5.725	1.420	-12.244	-5.818	-0.383	8.498
239162.994	NaN	-3.152	1.467	9.457	1506.227	1504.029	1509.158	5.802	1.359	-12.122	-5.818	-0.383	8.344
239163.971	NaN	-3.141	1.467	9.467	1504.762	1504.029	1509.890	5.679	1.389	-12.214	-5.742	-0.459	8.191
239164.948	NaN	-3.141	1.467	9.478	1504.762	1504.762	1510.623	5.618	1.557	-12.305	-5.665	-0.383	8.421
239165.924	NaN	-3.152	1.467	9.478	1504.762	1504.029	1510.623	5.847	1.420	-12.275	-5.818	-0.459	8.574
239166.901	NaN	-3.141	1.457	9.467	1504.029	1502.564	1509.158	5.924	1.206	-12.366	-5.742	-0.306	8.421
239167.877	NaN	-3.141	1.467	9.478	1506.227	1504.029	1510.623	5.847	1.130	-12.321	-5.818	-0.459	8.421
239168.854	NaN	-3.120	1.467	9.489	1506.227	1503.297	1511.355	5.740	1.389	-12.137	-5.895	-0.383	8.268
239169.830	NaN	-3.130	1.467	9.489	1505.495	1504.029	1510.623	5.664	1.359	-12.000	-5.742	-0.612	8.498
239170.807	NaN	-3.152	1.467	9.489	1504.762	1502.564	1509.158	5.695	1.282	-12.122	-5.818	-0.230	8.498
239171.783	NaN	-3.141	1.467	9.489	1505.495	1504.029	1509.158	5.771	1.405	-12.275	-5.742	-0.383	8.498
239172.760	NaN	-3.152	1.457	9.478	1505.495	1503.297	1507.692	5.847	1.603	-12.122	-5.742	-0.459	8.421
239173.737	NaN	-3.141	1.457	9.489	1505.495	1503.297	1509.158	5.771	1.603	-12.092	-5.895	-0.383	8.344
239174.713	NaN	-3.152	1.457	9.478	1506.227	1504.762	1510.623	5.649	1.450	-12.137	-5.742	-0.536	8.344
239175.690	NaN	-3.163	1.457	9.467	1505.495	1501.832	1509.158	5.725	1.496	-12.137	-5.818	-0.536	8.421
239176.666	NaN	-3.152	1.467	9.467	1506.227	1503.297	1510.623	5.954	1.603	-12.107	-5.742	-0.459	8.344
239177.643	NaN	-3.152	1.467	9.467	1506.227	1504.762	1509.158	5.725	1.496	-12.153	-5.818	-0.306	8.268
239178.619	NaN	-3.152	1.467	9.457	1505.495	1504.029	1509.890	5.664	1.588	-12.229	-5.895	-0.383	8.268
239179.596	NaN	-3.141	1.478	9.446	1505.495	1503.297	1510.623	5.878	1.634	-12.168	-5.742	-0.383	8.344
239180.573	NaN	-3.163	1.478	9.457	1505.495	1503.297	1509.890	5.847	1.420	-12.229	-5.895	-0.306	8.421
239181.549	NaN	-3.163	1.478	9.457	1505.495	1504.029	1509.890	5.908	1.344	-12.351	-5.818	-0.459	8.498
239182.526	NaN	-3.163	1.467	9.467	1504.762	1504.762	1510.623	5.771	1.374	-12.168	-5.895	-0.459	8.421
239183.502	NaN	-3.152	1.467	9.446	1505.495	1504.029	1509.890	5.878	1.405	-12.046	-5.818	-0.459	8.421
239184.479	NaN	-3.152	1.457	9.446	1505.495	1504.029	1509.890	5.847	1.573	-12.321	-5.742	-0.383	8.421
239185.455	NaN	-3.152	1.457	9.457	1505.495	1504.029	1509.890	5.939	1.527	-12.534	-5.742	-0.306	8.421
239186.432	NaN	-3.141	1.467	9.467	1504.762	1504.762	1511.355	5.725	1.359	-12.412	-5.895	-0.306	8.191
239187.408	NaN	-3.141	1.457	9.467	1505.495	1504.029	1512.821	5.511	1.252	-12.214	-5.742	-0.383	8.344
239188.385	NaN	-3.141	1.457	9.457	1505.495	1504.762	1509.890	5.618	1.252	-12.321	-5.742	-0.383	8.421
239189.362	NaN	-3.152	1.457	9.457	1502.564	1504.029	1509.890	5.679	1.359	-12.336	-5.818	-0.459	8.421
239190.338	NaN	-3.130	1.467	9.457	1506.227	1504.762	1511.355	5.756	1.344	-12.260	-5.895	-0.459	8.421
239191.315	NaN	-3.130	1.478	9.467	1505.495	1503.297	1510.623	5.878	1.389	-12.275	-5.895	-0.459	8.574
239192.291	NaN	-3.130	1.478	9.467	1505.495	1504.029	1511.355	5.588	1.344	-12.122	-5.971	-0.383	8.344
239193.268	NaN	-3.141	1.467	9.478	1505.495	1503.297	1509.158	5.603	1.450	-12.214	-5.895	-0.306	8.421
239194.244	NaN	-3.141	1.457	9.478	1504.029	1504.029	1509.890	5.618	1.435	-12.473	-5.895	-0.459	8.574
239195.221	NaN	-3.152	1.478	9.489	1504.762	1503.297	1507.692	5.756	1.618	-12.198	-5.818	-0.306	8.344
239196.198	NaN	-3.130	1.489	9.478	1504.762	1504.029	1509.158	5.847	1.649	-12.061	-5.742	-0.383	8.344
239197.174	NaN	-3.141	1.467	9.467	1505.495	1504.029	1509.158	5.893	1.511	-12.137	-5.895	-0.536	8.498
239198.151	NaN	-3.152	1.457	9.478	1504.029	1503.297	1509.158	5.664	1.435	-12.366	-5.895	-0.459	8.344
239199.127	NaN	-3.152	1.467	9.478	1505.495	1504.762	1510.623	5.725	1.511	-12.458	-5.742	-0.306	8.268
239200.104	NaN	-3.152	1.457	9.467	1504.762	1502.564	1509.158	5.740	1.420	-12.305	-5.895	-0.383	8.191
239201.080	NaN	-3.141	1.467	9.467	1505.495	1503.297	1509.890	5.756	1.450	-12.137	-5.742	-0.306	8.344
239202.057	NaN	-3.141	1.467	9.457	1505.495	1503.297	1509.890	5.679	1.511	-12.000	-5.818	-0.383	8.421
239203.033	NaN	-3.141	1.478	9.457	1504.762	1504.029	1509.158	5.435	1.618	-12.076	-5.818	-0.383	8.421
239204.010	NaN	-3.141	1.478	9.446	1504.029	1501.832	1509.158	5.511	1.496	-12.122	-5.895	-0.306	8.421
239204.987	NaN	-3.130	1.478	9.446	1506.227	1504.029	1509.158	5.542	1.221	-12.107	-5.742	-0.383	8.498
239205.963	NaN	-3.130	1.478	9.446	1505.495	1504.762	1510.623	5.603	1.237	-12.214	-5.742	-0.383	8.498
239206.940	NaN	-3.141	1.478	9.446	1504.762	1503.297	1508.425	5.664	1.481	-12.137	-5.818	-0.306	8.421
239207.916	NaN	-3.141	1.478	9.457	1504.029	1502.564	1509.890	5.679	1.527	-12.168	-5.818	-0.459	8.344
239208.893	NaN	-3.130	1.478	9.457	1506.227	1504.762	1511.355	5.740	1.344	-12.137	-5.895	-0.459	8.421
239209.869	NaN	-3.141	1.467	9.457	1505.495	1502.564	1509.158	5.817	1.328	-12.061	-5.895	-0.383	8.498
239210.846	NaN	-3.130	1.467	9.467	1505.495	1502.564	1510.623	5.954	1.389	-12.244	-5.895	-0.459	8.498
239211.823	NaN	-3.130	1.467	9.478	1504.762	1504.029	1509.158	5.893	1.542	-12.458	-5.742	-0.383	8.344
239212.799	NaN	-3.130	1.467	9.478	1503.297	1503.297	1510.623	5.924	1.557	-12.229	-5.818	-0.459	8.421
239213.776	NaN	-3.130	1.467	9.511	1505.495	1504.029	1510.623	5.802	1.527	-12.000	-5.742	-0.383	8.421
239214.752	NaN	-3.130	1.478	9.500	1504.762	1504.029	1509.890	5.496	1.481	-12.122	-5.895	-0.459	8.421
239215.729	NaN	-3.141	1.478	9.500	1504.762	1502.564	1509.158	5.695	1.435	-12.092	-5.818	-0.383	8.344
239216.705	NaN	-3.130	1.467	9.478	1505.495	1503.297	1509.158	5.817	1.405	-11.985	-5.818	-0.383	8.268
239217.682	NaN	-3.141	1.457	9.467	1504.029	1503.297	1509.158	5.771	1.542	-12.031	-5.895	-0.306	8.421
239218.658	NaN	-3.130	1.467	9.467	1507.692	1504.029	1510.623	5.893	1.618	-11.985	-5.665	-0.459	8.344
239219.635	NaN	-3.141	1.457	9.467	1504.029	1504.762	1511.355	6.000	1.618	-12.046	-5.895	-0.459	8.421
239220.612	3736847661.038	-3.152	1.457	9.457	1504.029	1503.297	1509.158	5.939	1.450	-12.000	-5.895	-0.459	8.421
239221.588	NaN	-3.152	1.467	9.435	1506.227	1504.029	1509.890	5.908	1.313	-11.939	-5.818	-0.383	8.421
239222.565	NaN	-3.152	1.457	9.424	1504.762	1503.297	1509.890	5.924	1.664	-12.107	-5.742	-0.459	8.421
239223.541	NaN	-3.141	1.467	9.413	1504.029	1503.297	1509.158	5.924	1.832	-12.061	-5.818	-0.383	8.498
239224.518	NaN	-3.130	1.478	9.413	1505.495	1504.029	1510.623	5.863	1.695	-12.198	-5.665	-0.383	8.421
239225.494	NaN	-3.130	1.467	9.413	1505.495	1504.029	1508.425	5.878	1.420	-12.107	-5.818	-0.306	8.421
239226.471	NaN	-3.120	1.478	9.435	1505.495	1504.029	1509.158	5.863	1.344	-12.183	-5.742	-0.306	8.344
239227.448	NaN	-3.141	1.467	9.435	1503.297	1503.297	1510.623	6.000	1.435	-12.092	-5.742	-0.306	8.344
239228.424	NaN	-3.130	1.467	9.446	1506.960	1504.029	1510.623	5.908	1.649	-12.107	-5.818	-0.383	8.498
239229.401	NaN	-3.141	1.467	9.457	1504.762	1503.297	1510.623	5.817	1.679	-12.153	-5.895	-0.536	8.498
239230.377	NaN	-3.152	1.467	9.457	1505.495	1504.762	1510.623	5.618	1.557	-12.244	-5.971	-0.306	8.498
239231.354	NaN	-3.152	1.478	9.467	1504.762	1504.029	1509.890	5.588	1.466	-12.107	-5.818	-0.306	8.498
239232.330	NaN	-3.152	1.478	9.489	1506.227	1504.029	1509.890	5.771	1.588	-12.061	-5.742	-0.306	8.498
239233.307	NaN	-3.152	1.457	9.489	1505.495	1503.297	1508.425	5.740	1.725	-12.168	-5.818	-0.306	8.344
239234.283	NaN	-3.152	1.457	9.489	1505.495	1503.297	1509.890	5.679	1.893	-12.183	-5.971	-0.459	8.421
239235.260	NaN	-3.141	1.467	9.511	1506.227	1504.029	1509.890	5.908	1.908	-12.290	-5.818	-0.306	8.421
239236.237	NaN	-3.152	1.467	9.511	1506.227	1503.297	1510.623	5.969	1.740	-12.260	-5.742	-0.383	8.344
239237.213	NaN	-3.141	1.467	9.489	1504.762	1503.297	1510.623	5.710	1.664	-12.137	-5.742	-0.459	8.344
239238.190	NaN	-3.141	1.467	9.489	1505.495	1504.029	1510.623	5.634	1.618	-12.061	-5.818	-0.383	8.268
239239.166	NaN	-3.141	1.467	9.489	1505.495	1503.297	1509.890	5.771	1.618	-12.076	-5.971	-0.306	8.344
239240.143	NaN	-3.130	1.467	9.489	1505.495	1504.762	1510.623	5.771	1.679	-11.954	-5.818	-0.383	8.344
239241.119	NaN	-3.130	1.467	9.467	1504.762	1504.029	1510.623	5.618	1.649	-12.046	-5.818	-0.383	8.421
239242.096	NaN	-3.130	1.457	9.457	1505.495	1504.029	1511.355	5.740	1.542	-12.153	-5.742	-0.383	8.344
239243.073	NaN	-3.141	1.457	9.446	1504.762	1503.297	1509.158	5.954	1.603	-12.260	-5.895	-0.383	8.268
239244.049	NaN	-3.130	1.467	9.446	1506.227	1504.762	1509.890	5.954	1.618	-12.137	-5.742	-0.383	8.268
239245.026	NaN	-3.130	1.467	9.446	1505.495	1504.029	1512.088	5.954	1.573	-12.031	-5.818	-0.383	8.344
239246.002	NaN	-3.141	1.467	9.446	1504.762	1504.029	1509.890	6.260	1.557	-11.908	-5.895	-0.306	8.344
239246.979	NaN	-3.141	1.457	9.446	1505.495	1503.297	1509.890	6.366	1.481	-12.046	-5.818	-0.459	8.344
239247.955	NaN	-3.141	1.457	9.446	1506.227	1503.297	1510.623	6.092	1.389	-12.168	-5.742	-0.306	8.498
239248.932	NaN	-3.141	1.457	9.446	1505.495	1503.297	1511.355	5.802	1.420	-12.076	-5.818	-0.383	8.344
239249.908	NaN	-3.141	1.457	9.446	1505.495	1504.029	1509.158	5.664	1.496	-11.847	-5.818	-0.383	8.574
239250.885	NaN	-3.141	1.446	9.457	1504.762	1504.029	1510.623	5.802	1.618	-11.939	-5.818	-0.459	8.344
239251.862	NaN	-3.141	1.446	9.467	1504.762	1504.029	1510.623	5.786	1.588	-12.107	-5.665	-0.459	8.344
239252.838	NaN	-3.130	1.446	9.478	1504.762	1504.029	1510.623	5.771	1.527	-12.153	-5.665	-0.306	8.421
239253.815	NaN	-3.130	1.446	9.478	1505.495	1504.029	1512.088	5.817	1.573	-11.954	-5.895	-0.383	8.421
239254.791	NaN	-3.130	1.435	9.478	1504.762	1504.029	1511.355	5.679	1.710	-11.969	-5.971	-0.306	8.574
239255.768	NaN	-3.130	1.446	9.478	1505.495	1504.029	1511.355	5.450	1.817	-11.954	-5.818	-0.306	8.574
239256.744	NaN	-3.141	1.446	9.478	1505.495	1504.029	1509.890	5.618	1.786	-11.939	-5.818	-0.459	8.498
239257.721	NaN	-3.130	1.457	9.489	1506.227	1504.029	1510.623	5.786	1.634	-12.015	-5.818	-0.306	8.344
239258.698	NaN	-3.130	1.457	9.500	1505.495	1503.297	1508.425	5.679	1.618	-12.061	-5.742	-0.459	8.421
239259.674	NaN	-3.141	1.457	9.489	1505.495	1502.564	1510.623	5.420	1.740	-11.908	-5.895	-0.459	8.498
239260.651	NaN	-3.130	1.457	9.489	1504.762	1504.029	1509.158	5.481	1.710	-11.878	-5.818	-0.459	8.268
239261.627	NaN	-3.130	1.467	9.478	1505.495	1504.029	1510.623	5.771	1.634	-11.878	-5.742	-0.383	8.344
239262.604	NaN	-3.130	1.467	9.478	1504.029	1504.762	1509.890	5.939	1.603	-11.863	-6.048	-0.459	8.498
239263.580	NaN	-3.141	1.467	9.467	1505.495	1504.029	1509.158	6.168	1.557	-11.939	-5.895	-0.383	8.344
239264.557	NaN	-3.141	1.467	9.457	1504.029	1504.762	1510.623	6.137	1.573	-12.214	-5.895	-0.306	8.421
239265.533	NaN	-3.141	1.467	9.457	1504.029	1503.297	1509.890	5.878	1.740	-12.015	-5.971	-0.383	8.344
239266.510	NaN	-3.141	1.467	9.446	1505.495	1502.564	1510.623	5.603	1.771	-12.153	-5.895	-0.306	8.421
239267.487	NaN	-3.120	1.478	9.446	1505.495	1504.029	1509.890	5.832	1.710	-12.122	-5.818	-0.306	8.421
239268.463	NaN	-3.120	1.478	9.446	1505.495	1504.762	1510.623	5.924	1.817	-11.878	-5.818	-0.383	8.498
239269.440	NaN	-3.120	1.467	9.446	1505.495	1504.029	1509.890	6.015	1.863	-11.817	-5.895	-0.306	8.344
239270.416	NaN	-3.141	1.457	9.446	1505.495	1504.029	1509.890	6.198	1.786	-11.924	-5.818	-0.383	8.268
239271.393	NaN	-3.130	1.457	9.457	1504.762	1504.029	1509.890	6.137	1.771	-12.076	-5.742	-0.306	8.344
239272.369	NaN	-3.141	1.467	9.467	1505.495	1504.029	1510.623	5.878	1.725	-12.000	-5.665	-0.383	8.498
239273.346	NaN	-3.141	1.467	9.467	1505.495	1504.029	1510.623	5.573	1.557	-11.924	-5.895	-0.383	8.344
239274.323	NaN	-3.141	1.467	9.478	1504.029	1504.029	1509.890	5.847	1.511	-11.893	-5.742	-0.459	8.344
239275.299	NaN	-3.130	1.467	9.478	1505.495	1504.029	1510.623	6.198	1.573	-12.015	-5.895	-0.383	8.421
239276.276	NaN	-3.130	1.467	9.478	1504.029	1504.029	1510.623	6.046	1.710	-12.214	-5.818	-0.383	8.344
239277.252	NaN	-3.120	1.467	9.478	1504.029	1501.832	1509.890	5.878	1.603	-11.969	-5.665	-0.306	8.498
239278.229	NaN	-3.109	1.467	9.478	1503.297	1504.029	1511.355	5.832	1.634	-11.786	-5.818	-0.383	8.498
239279.205	NaN	-3.120	1.467	9.457	1506.227	1504.029	1509.890	5.725	1.740	-11.893	-5.742	-0.536	8.344
239280.182	NaN	-3.120	1.467	9.467	1506.227	1504.029	1509.158	5.740	1.542	-11.786	-5.895	-0.459	8.344
239281.158	NaN	-3.120	1.457	9.467	1505.495	1504.029	1510.623	5.649	1.481	-11.756	-5.895	-0.306	8.498
239282.135	NaN	-3.120	1.457	9.457	1505.495	1504.029	1509.890	5.664	1.618	-11.878	-5.742	-0.459	8.421
239283.112	NaN	-3.130	1.457	9.457	1504.762	1504.762	1509.158	5.847	1.786	-11.725	-5.742	-0.383	8.421
239284.088	NaN	-3.130	1.467	9.467	1506.227	1504.029	1510.623	6.061	1.771	-11.710	-5.818	-0.459	8.421
239285.065	NaN	-3.130	1.467	9.467	1505.495	1504.762	1510.623	5.908	1.802	-11.710	-5.818	-0.459	8.344
239286.041	NaN	-3.130	1.467	9.457	1504.762	1504.762	1509.890	5.740	1.847	-11.679	-5.818	-0.459	8.421
239287.018	NaN	-3.152	1.467	9.457	1505.495	1504.029	1510.623	5.786	1.695	-11.756	-5.895	-0.383	8.191
239287.994	NaN	-3.163	1.467	9.457	1504.762	1503.297	1512.821	5.863	1.664	-11.786	-5.895	-0.383	8.421
239288.971	NaN	-3.141	1.478	9.467	1505.495	1504.029	1512.821	5.649	1.756	-11.878	-5.818	-0.383	8.421
239289.948	NaN	-3.141	1.489	9.457	1505.495	1504.029	1511.355	5.573	1.695	-11.908	-5.818	-0.459	8.574
239290.924	NaN	-3.152	1.467	9.435	1504.762	1503.297	1510.623	5.573	1.832	-11.832	-5.818	-0.383	8.421
239291.901	NaN	-3.141	1.457	9.435	1505.495	1503.297	1511.355	5.847	1.863	-11.725	-5.818	-0.383	8.421
239292.877	NaN	-3.130	1.467	9.446	1506.227	1503.297	1510.623	6.092	1.786	-11.695	-5.818	-0.459	8.421
239293.854	NaN	-3.130	1.478	9.457	1505.495	1503.297	1510.623	6.000	1.710	-11.740	-5.742	-0.536	8.268
239294.830	NaN	-3.141	1.467	9.467	1505.495	1503.297	1509.890	5.893	1.588	-11.847	-5.818	-0.230	8.574
239295.807	NaN	-3.141	1.457	9.478	1505.495	1504.029	1509.890	6.092	1.588	-11.878	-5.742	-0.383	8.574
239296.783	NaN	-3.130	1.446	9.478	1505.495	1503.297	1509.890	6.122	1.908	-11.863	-5.818	-0.383	8.498
239297.760	NaN	-3.120	1.467	9.489	1506.227	1504.029	1509.890	6.168	1.969	-11.908	-5.818	-0.383	8.268
