Timestamp	PC Timestamp	Low Noise Accelerometer X	Low Noise Accelerometer Y	Low Noise Accelerometer Z	Int A12	Int A13	Int A14	Gyroscope X	Gyroscope Y	Gyroscope Z	Wide Range Accelerometer X	Wide Range Accelerometer Y	Wide Range Accelerometer Z
235900.299	NaN	2.576	7.565	-4.750	1510.623	1500.366	1500.366	1.176	5.786	-6.580	0.459	6.278	-7.120
235901.276	NaN	2.576	7.576	-4.739	1510.623	1499.634	1499.634	0.947	5.863	-6.718	0.383	6.201	-7.120
235902.252	NaN	2.587	7.576	-4.739	1509.890	1501.099	1500.366	0.916	6.107	-6.824	0.459	6.354	-7.196
235903.229	NaN	2.565	7.576	-4.739	1511.355	1499.634	1499.634	0.947	5.969	-6.779	0.459	6.124	-7.120
235904.205	NaN	2.565	7.587	-4.750	1509.890	1500.366	1501.099	1.023	5.924	-6.809	0.459	6.124	-7.120
235905.182	NaN	2.565	7.587	-4.739	1509.890	1499.634	1501.099	0.916	5.786	-6.565	0.612	6.201	-7.043
235906.158	NaN	2.554	7.587	-4.750	1510.623	1498.901	1500.366	0.885	5.786	-6.626	0.459	6.201	-7.043
235907.135	NaN	2.565	7.587	-4.750	1509.890	1499.634	1500.366	1.115	5.924	-6.443	0.306	6.124	-7.043
235908.112	NaN	2.565	7.576	-4.772	1511.355	1499.634	1501.832	1.237	5.985	-6.580	0.459	6.201	-7.120
235909.088	NaN	2.576	7.576	-4.750	1511.355	1500.366	1498.901	1.344	5.939	-6.656	0.459	6.201	-7.120
235910.065	NaN	2.576	7.576	-4.750	1511.355	1500.366	1500.366	1.130	5.969	-6.672	0.689	6.201	-7.196
235911.041	NaN	2.587	7.576	-4.750	1510.623	1499.634	1501.099	0.977	5.985	-6.779	0.383	6.278	-7.043
235912.018	NaN	2.587	7.554	-4.750	1510.623	1499.634	1500.366	1.099	5.710	-6.840	0.383	6.354	-7.196
235912.994	NaN	2.576	7.554	-4.761	1510.623	1499.634	1502.564	1.069	5.832	-6.794	0.306	6.201	-7.120
235913.971	NaN	2.565	7.554	-4.750	1510.623	1499.634	1501.832	0.931	6.122	-6.565	0.459	6.124	-7.196
235914.948	NaN	2.554	7.554	-4.761	1510.623	1500.366	1500.366	0.992	6.168	-6.626	0.383	6.124	-7.120
235915.924	NaN	2.565	7.554	-4.739	1509.890	1499.634	1501.099	1.069	6.107	-6.580	0.536	6.278	-7.120
235916.901	NaN	2.565	7.554	-4.739	1509.890	1499.634	1501.099	1.145	6.031	-6.672	0.383	6.354	-7.043
235917.877	NaN	2.565	7.565	-4.728	1509.890	1501.099	1500.366	1.038	5.939	-6.931	0.459	6.201	-7.120
235918.854	NaN	2.565	7.554	-4.728	1510.623	1499.634	1501.099	1.023	6.061	-6.840	0.536	6.278	-7.043
235919.830	NaN	2.565	7.565	-4.739	1510.623	1499.634	1500.366	1.099	6.076	-6.611	0.536	6.124	-6.967
235920.807	NaN	2.576	7.554	-4.761	1510.623	1499.634	1499.634	0.992	6.046	-6.550	0.612	6.278	-7.120
235921.783	NaN	2.565	7.554	-4.761	1511.355	1499.634	1500.366	0.901	5.878	-6.412	0.536	6.201	-7.120
235922.760	NaN	2.576	7.565	-4.739	1510.623	1501.099	1500.366	0.962	5.908	-6.641	0.459	6.201	-7.273
235923.737	NaN	2.565	7.565	-4.739	1509.890	1500.366	1501.099	0.962	6.031	-6.718	0.306	6.124	-6.967
235924.713	NaN	2.554	7.565	-4.739	1510.623	1500.366	1499.634	0.840	5.847	-6.733	0.536	6.278	-7.120
235925.690	NaN	2.554	7.554	-4.739	1511.355	1499.634	1501.832	0.870	5.786	-6.672	0.459	6.201	-7.273
235926.666	NaN	2.554	7.565	-4.750	1511.355	1501.099	1501.099	0.931	5.893	-6.641	0.459	6.124	-7.043
235927.643	NaN	2.543	7.565	-4.739	1511.355	1500.366	1501.099	0.855	6.031	-6.656	0.306	7.349	-7.120
235928.619	NaN	2.543	7.576	-4.761	1510.623	1499.634	1501.099	0.870	6.061	-6.534	0.536	6.278	-7.043
235929.596	NaN	2.554	7.576	-4.750	1510.623	1500.366	1498.901	1.191	6.198	-6.489	0.459	6.278	-6.890
235930.573	NaN	2.565	7.576	-4.772	1510.623	1499.634	1501.099	1.176	6.122	-6.656	0.459	6.124	-7.043
235931.549	NaN	2.576	7.576	-4.761	1511.355	1500.366	1501.099	0.931	5.954	-6.748	0.459	6.201	-7.120
235932.526	NaN	2.565	7.565	-4.761	1510.623	1499.634	1500.366	1.038	5.985	-6.595	0.459	6.278	-7.120
235933.502	NaN	2.576	7.576	-4.750	1510.623	1498.901	1501.099	1.267	6.229	-6.427	0.383	6.278	-7.120
235934.479	NaN	2.565	7.576	-4.761	1512.088	1499.634	1499.634	1.313	6.321	-6.641	0.383	6.201	-7.196
235935.455	NaN	2.565	7.565	-4.772	1510.623	1498.901	1501.832	1.053	6.092	-6.779	0.383	6.278	-7.196
235936.432	NaN	2.565	7.576	-4.761	1511.355	1498.901	1501.099	0.763	6.000	-6.779	0.383	6.124	-7.043
235937.408	NaN	2.554	7.565	-4.750	1511.355	1498.901	1501.099	0.718	5.878	-6.840	0.536	6.048	-7.043
235938.385	NaN	2.554	7.565	-4.750	1511.355	1498.901	1500.366	0.855	5.969	-6.779	0.306	6.201	-7.043
235939.362	NaN	2.533	7.554	-4.750	1510.623	1499.634	1501.099	0.901	5.908	-6.748	0.306	6.201	-7.120
235940.338	NaN	2.554	7.576	-4.750	1510.623	1501.099	1499.634	0.947	6.076	-6.580	0.459	6.201	-7.043
235941.315	NaN	2.565	7.554	-4.750	1510.623	1500.366	1500.366	0.885	6.122	-6.427	0.536	6.278	-7.043
235942.291	NaN	2.565	7.554	-4.739	1509.890	1499.634	1501.832	1.115	5.939	-6.611	0.459	6.201	-7.043
235943.268	NaN	2.565	7.565	-4.750	1510.623	1499.634	1501.832	1.084	6.000	-6.611	0.383	6.278	-7.273
235944.244	NaN	2.554	7.576	-4.750	1511.355	1499.634	1501.099	1.313	5.985	-6.519	0.459	6.201	-7.043
235945.221	NaN	2.565	7.587	-4.728	1510.623	1499.634	1500.366	1.237	5.771	-6.519	0.459	6.201	-7.120
235946.198	NaN	2.554	7.587	-4.739	1510.623	1498.168	1500.366	0.962	5.847	-6.550	0.459	6.201	-7.120
235947.174	NaN	2.543	7.587	-4.739	1509.890	1498.168	1500.366	0.931	5.969	-6.534	0.536	6.354	-7.120
235948.151	NaN	2.554	7.576	-4.728	1511.355	1498.901	1499.634	1.023	6.015	-6.611	0.306	6.201	-6.967
235949.127	NaN	2.554	7.576	-4.739	1509.890	1498.901	1500.366	1.069	6.015	-6.656	0.459	6.278	-7.043
235950.104	NaN	2.554	7.576	-4.739	1509.158	1498.901	1498.901	0.947	5.939	-6.702	0.459	6.278	-7.043
235951.080	NaN	2.565	7.576	-4.728	1510.623	1499.634	1501.832	0.870	5.832	-6.504	0.459	6.201	-6.967
235952.057	NaN	2.576	7.576	-4.728	1509.890	1499.634	1501.099	0.901	6.046	-6.458	0.536	6.124	-7.120
235953.033	NaN	2.576	7.576	-4.728	1510.623	1500.366	1499.634	0.916	6.198	-6.504	0.536	6.124	-7.043
235954.010	NaN	2.587	7.587	-4.728	1510.623	1500.366	1499.634	1.130	6.137	-6.382	0.459	6.278	-7.043
235954.987	NaN	2.576	7.576	-4.728	1510.623	1499.634	1501.099	1.053	6.046	-6.397	0.459	6.201	-7.043
235955.963	NaN	2.565	7.576	-4.739	1510.623	1499.634	1501.832	1.069	6.122	-6.366	0.383	6.354	-7.043
235956.940	NaN	2.565	7.565	-4.728	1509.890	1500.366	1499.634	0.840	6.183	-6.580	0.383	6.201	-6.967
235957.916	NaN	2.576	7.565	-4.750	1511.355	1500.366	1500.366	0.672	6.092	-6.595	0.306	6.201	-7.043
235958.893	NaN	2.565	7.565	-4.739	1510.623	1499.634	1501.832	0.916	6.137	-6.489	0.383	6.124	-7.043
235959.869	NaN	2.565	7.576	-4.739	1510.623	1499.634	1501.099	0.947	6.229	-6.565	0.459	6.124	-7.043
235960.846	NaN	2.565	7.576	-4.761	1511.355	1499.634	1500.366	0.992	6.183	-6.687	0.306	6.278	-7.043
235961.823	NaN	2.565	7.576	-4.772	1510.623	1499.634	1500.366	1.023	6.046	-6.611	0.306	6.048	-7.043
235962.799	NaN	2.576	7.576	-4.761	1510.623	1500.366	1501.099	1.069	6.031	-6.611	0.459	6.201	-7.043
235963.776	NaN	2.576	7.587	-4.761	1508.425	1500.366	1500.366	1.038	6.153	-6.489	0.459	6.201	-7.196
235964.752	NaN	2.576	7.576	-4.761	1510.623	1500.366	1500.366	1.084	6.153	-6.427	0.536	6.201	-7.043
235965.729	NaN	2.576	7.576	-4.750	1511.355	1500.366	1500.366	0.992	6.183	-6.519	0.383	6.278	-7.043
235966.705	NaN	2.565	7.565	-4.750	1510.623	1500.366	1500.366	0.840	6.153	-6.702	0.383	5.129	-7.043
235967.682	NaN	2.565	7.576	-4.750	1510.623	1499.634	1501.099	0.779	5.908	-6.748	0.536	6.201	-7.043
235968.658	NaN	2.565	7.576	-4.750	1511.355	1499.634	1501.832	0.840	5.740	-6.611	0.459	6.201	-6.967
235969.635	NaN	2.565	7.576	-4.750	1511.355	1499.634	1500.366	0.977	6.046	-6.336	0.383	6.048	-7.043
235970.612	NaN	2.576	7.565	-4.750	1510.623	1499.634	1501.099	1.160	6.198	-6.412	0.383	6.278	-7.120
235971.588	NaN	2.587	7.565	-4.739	1510.623	1500.366	1499.634	1.298	5.985	-6.656	0.536	6.124	-7.120
235972.565	NaN	2.587	7.554	-4.761	1509.890	1498.901	1500.366	1.237	5.924	-6.580	0.459	6.201	-7.196
235973.541	NaN	2.576	7.565	-4.761	1509.158	1498.901	1501.099	0.977	6.046	-6.565	0.459	6.278	-7.273
235974.518	NaN	2.576	7.565	-4.750	1509.890	1499.634	1501.832	0.779	6.107	-6.519	0.459	6.201	-7.043
235975.494	NaN	2.576	7.576	-4.750	1510.623	1500.366	1498.901	1.008	6.031	-6.550	0.536	6.278	-7.120
235976.471	NaN	2.565	7.565	-4.750	1509.890	1499.634	1499.634	1.130	6.046	-6.534	0.459	6.201	-7.120
235977.448	NaN	2.576	7.587	-4.728	1509.890	1499.634	1501.099	1.084	6.046	-6.595	0.383	6.124	-7.043
235978.424	NaN	2.576	7.576	-4.728	1510.623	1499.634	1500.366	1.053	6.137	-6.718	0.536	6.278	-6.967
235979.401	NaN	2.565	7.587	-4.739	1510.623	1498.901	1501.832	0.824	6.275	-6.565	0.459	6.278	-7.043
235980.377	NaN	2.576	7.587	-4.728	1510.623	1499.634	1503.297	0.870	6.015	-6.397	0.459	6.278	-7.196
235981.354	NaN	2.576	7.587	-4.739	1511.355	1500.366	1498.901	0.947	5.893	-6.458	0.459	6.201	-7.043
235982.330	NaN	2.565	7.587	-4.739	1510.623	1499.634	1501.832	1.053	6.183	-6.473	0.383	6.124	-7.043
235983.307	NaN	2.554	7.587	-4.739	1509.158	1500.366	1500.366	1.160	6.153	-6.519	0.306	6.278	-7.043
235984.283	NaN	2.543	7.587	-4.750	1511.355	1499.634	1499.634	1.099	5.954	-6.702	0.459	6.201	-7.273
235985.260	NaN	2.554	7.576	-4.750	1509.158	1499.634	1501.832	0.901	5.939	-6.687	0.230	6.201	-7.043
235986.237	NaN	2.554	7.565	-4.761	1511.355	1500.366	1500.366	0.947	6.092	-6.565	0.459	6.278	-7.120
235987.213	NaN	2.554	7.576	-4.761	1511.355	1499.634	1501.832	0.901	6.107	-6.656	0.459	6.124	-6.967
235988.190	NaN	2.565	7.576	-4.761	1511.355	1498.901	1500.366	1.038	6.137	-6.855	0.459	6.354	-7.043
235989.166	NaN	2.554	7.576	-4.772	1511.355	1500.366	1500.366	1.328	6.031	-6.779	0.536	6.201	-7.043
235990.143	NaN	2.554	7.565	-4.761	1511.355	1500.366	1498.901	1.450	6.046	-6.550	0.459	6.278	-7.043
235991.119	NaN	2.554	7.565	-4.750	1510.623	1499.634	1499.634	1.115	6.046	-6.412	0.306	6.278	-7.120
235992.096	NaN	2.554	7.565	-4.761	1511.355	1499.634	1501.832	0.992	6.061	-6.534	0.459	6.201	-7.043
235993.073	NaN	2.554	7.576	-4.750	1511.355	1499.634	1500.366	1.176	6.214	-6.626	0.383	6.201	-7.196
235994.049	NaN	2.554	7.587	-4.739	1512.088	1499.634	1501.832	0.947	6.290	-6.687	0.536	6.201	-6.967
235995.026	NaN	2.554	7.587	-4.739	1510.623	1499.634	1501.099	0.977	6.183	-6.763	0.459	6.278	-7.273
235996.002	NaN	2.554	7.576	-4.739	1511.355	1499.634	1501.099	1.023	5.863	-6.504	0.459	6.201	-7.043
235996.979	NaN	2.554	7.576	-4.728	1510.623	1498.901	1500.366	1.298	5.756	-6.489	0.459	6.201	-7.120
235997.955	NaN	2.554	7.576	-4.739	1510.623	1499.634	1501.832	1.176	5.878	-6.641	0.306	6.278	-7.043
235998.932	NaN	2.554	7.576	-4.728	1510.623	1499.634	1501.832	1.084	6.015	-6.748	0.459	6.201	-7.043
235999.908	NaN	2.565	7.576	-4.739	1511.355	1499.634	1500.366	1.023	6.046	-6.550	0.459	6.124	-7.120
236000.885	NaN	2.565	7.576	-4.750	1510.623	1499.634	1500.366	0.901	6.137	-6.427	0.536	6.124	-7.120
236001.862	NaN	2.565	7.576	-4.761	1510.623	1499.634	1502.564	0.947	6.168	-6.382	0.383	6.201	-7.043
236002.838	NaN	2.576	7.587	-4.750	1511.355	1500.366	1501.099	1.053	6.137	-6.580	0.383	6.278	-6.890
236003.815	NaN	2.576	7.576	-4.739	1509.890	1499.634	1500.366	1.115	6.122	-6.763	0.459	6.354	-7.043
236004.791	NaN	2.576	7.576	-4.739	1509.890	1499.634	1500.366	0.977	6.122	-6.687	0.306	6.278	-7.043
236005.768	NaN	2.565	7.576	-4.728	1510.623	1500.366	1501.832	0.824	6.076	-6.718	0.459	6.278	-6.967
236006.744	NaN	2.565	7.587	-4.739	1511.355	1500.366	1500.366	0.748	6.137	-6.687	0.459	6.201	-7.043
236007.721	NaN	2.565	7.587	-4.739	1511.355	1500.366	1500.366	0.870	6.137	-6.550	0.459	6.201	-7.043
236008.698	NaN	2.576	7.598	-4.750	1510.623	1499.634	1501.099	1.008	6.122	-6.519	0.459	6.201	-7.043
236009.674	NaN	2.576	7.587	-4.750	1510.623	1499.634	1501.832	0.992	6.015	-6.641	0.383	6.278	-7.043
236010.651	NaN	2.565	7.576	-4.750	1510.623	1499.634	1501.832	0.947	5.954	-6.580	0.536	6.278	-7.120
236011.627	NaN	2.576	7.587	-4.750	1510.623	1499.634	1500.366	1.115	6.031	-6.641	0.383	6.278	-7.196
236012.604	NaN	2.565	7.587	-4.761	1511.355	1499.634	1501.099	1.282	6.244	-6.611	0.536	6.278	-7.120
236013.580	NaN	2.576	7.587	-4.761	1510.623	1498.901	1498.901	1.206	6.244	-6.550	0.306	6.124	-6.967
236014.557	NaN	2.587	7.587	-4.739	1509.890	1500.366	1498.901	0.931	6.260	-6.595	0.306	6.201	-7.120
236015.533	NaN	2.576	7.587	-4.739	1511.355	1500.366	1500.366	0.947	6.153	-6.534	0.612	6.278	-6.890
236016.510	NaN	2.565	7.576	-4.728	1510.623	1500.366	1501.832	1.069	6.092	-6.412	0.459	6.278	-7.120
236017.487	NaN	2.565	7.576	-4.728	1511.355	1500.366	1500.366	1.023	6.076	-6.458	0.536	6.201	-6.967
236018.463	NaN	2.565	7.576	-4.728	1509.890	1501.099	1500.366	0.992	6.122	-6.595	0.383	6.201	-7.120
236019.440	NaN	2.576	7.565	-4.728	1509.890	1499.634	1501.832	0.885	6.198	-6.718	0.306	6.201	-7.043
236020.416	NaN	2.576	7.576	-4.739	1510.623	1501.099	1498.901	0.916	6.275	-6.580	0.536	6.048	-7.043
236021.393	NaN	2.576	7.565	-4.739	1511.355	1499.634	1500.366	0.885	6.198	-6.489	0.306	6.201	-7.196
236022.369	NaN	2.576	7.565	-4.739	1511.355	1500.366	1500.366	0.794	6.183	-6.565	0.383	6.201	-7.196
236023.346	NaN	2.576	7.576	-4.728	1509.890	1499.634	1500.366	1.130	6.107	-6.504	0.383	6.278	-7.043
236024.323	NaN	2.565	7.576	-4.739	1511.355	1500.366	1500.366	1.160	6.061	-6.366	0.459	6.201	-7.120
236025.299	NaN	2.587	7.576	-4.728	1510.623	1499.634	1501.099	0.977	6.107	-6.260	0.383	6.278	-7.273
236026.276	NaN	2.576	7.576	-4.728	1506.960	1500.366	1498.901	0.779	6.076	-6.321	0.459	6.124	-6.967
236027.252	NaN	2.576	7.565	-4.728	1510.623	1499.634	1501.099	0.870	6.168	-6.427	0.459	6.124	-7.196
236028.229	NaN	2.576	7.565	-4.728	1509.890	1499.634	1501.099	1.023	6.229	-6.351	0.459	6.124	-7.043
236029.205	NaN	2.576	7.565	-4.750	1511.355	1500.366	1499.634	0.916	6.153	-6.412	0.536	6.278	-7.120
236030.182	NaN	2.576	7.554	-4.750	1510.623	1499.634	1501.832	0.779	6.244	-6.534	0.459	6.201	-7.120
236031.158	NaN	2.576	7.576	-4.750	1510.623	1500.366	1500.366	0.901	6.092	-6.504	0.536	7.349	-7.196
236032.135	NaN	2.565	7.565	-4.761	1511.355	1499.634	1502.564	0.824	5.908	-6.534	0.459	6.278	-7.120
236033.112	NaN	2.554	7.576	-4.772	1510.623	1499.634	1501.832	0.824	5.939	-6.473	0.459	6.201	-7.043
236034.088	NaN	2.565	7.576	-4.772	1511.355	1499.634	1503.297	1.008	6.183	-6.489	0.536	6.201	-7.120
236035.065	NaN	2.565	7.576	-4.761	1510.623	1499.634	1501.832	1.053	6.321	-6.473	0.383	6.278	-7.043
236036.041	NaN	2.576	7.576	-4.761	1509.890	1499.634	1502.564	1.130	6.336	-6.443	0.459	6.278	-7.120
236037.018	NaN	2.565	7.576	-4.772	1510.623	1499.634	1501.832	1.023	6.382	-6.458	0.383	6.278	-6.890
236037.994	NaN	2.565	7.576	-4.761	1509.890	1500.366	1500.366	1.145	6.214	-6.458	0.459	6.201	-7.120
236038.971	NaN	2.554	7.576	-4.750	1509.890	1500.366	1499.634	1.053	6.214	-6.687	0.383	6.278	-6.967
236039.948	NaN	2.543	7.565	-4.761	1511.355	1500.366	1499.634	1.053	6.107	-6.489	0.459	6.124	-7.043
236040.924	NaN	2.543	7.565	-4.761	1510.623	1498.901	1499.634	1.084	6.092	-6.565	0.536	6.278	-7.043
236041.901	NaN	2.554	7.576	-4.750	1510.623	1499.634	1499.634	1.069	6.168	-6.550	0.383	6.278	-7.196
236042.877	NaN	2.554	7.587	-4.750	1511.355	1501.099	1499.634	1.069	6.137	-6.550	0.536	6.048	-7.196
236043.854	NaN	2.554	7.587	-4.750	1510.623	1500.366	1499.634	1.023	6.107	-6.443	0.459	6.201	-7.120
236044.830	NaN	2.565	7.587	-4.761	1510.623	1500.366	1500.366	0.947	6.137	-6.382	0.459	6.201	-7.273
236045.807	NaN	2.576	7.587	-4.761	1510.623	1499.634	1501.099	0.901	6.198	-6.321	0.536	6.201	-7.120
236046.783	NaN	2.565	7.587	-4.772	1511.355	1501.099	1499.634	1.191	6.000	-6.412	0.459	6.278	-7.043
236047.760	NaN	2.565	7.576	-4.772	1511.355	1500.366	1500.366	1.191	6.046	-6.595	0.536	6.201	-7.043
236048.737	NaN	2.565	7.576	-4.750	1509.890	1500.366	1499.634	1.053	6.229	-6.611	0.383	6.278	-7.043
236049.713	NaN	2.565	7.565	-4.739	1509.890	1499.634	1502.564	1.069	6.198	-6.519	0.459	6.278	-7.043
236050.690	NaN	2.565	7.554	-4.739	1511.355	1499.634	1501.099	1.237	6.198	-6.504	0.459	6.278	-7.196
236051.666	NaN	2.576	7.565	-4.750	1511.355	1499.634	1501.099	1.298	6.092	-6.366	0.536	6.278	-7.196
236052.643	NaN	2.576	7.565	-4.750	1510.623	1499.634	1501.099	1.069	6.031	-6.489	0.383	6.201	-7.043
236053.619	NaN	2.576	7.565	-4.761	1510.623	1499.634	1501.832	0.977	6.122	-6.351	0.383	6.278	-7.043
236054.596	NaN	2.565	7.587	-4.739	1510.623	1499.634	1499.634	1.084	6.275	-6.321	0.459	6.201	-7.196
236055.573	NaN	2.554	7.576	-4.750	1511.355	1500.366	1500.366	0.809	6.168	-6.336	0.536	6.278	-7.043
236056.549	NaN	2.565	7.587	-4.739	1510.623	1501.099	1500.366	0.718	6.153	-6.519	0.536	6.278	-7.043
236057.526	NaN	2.565	7.576	-4.739	1511.355	1500.366	1499.634	1.130	6.137	-6.443	0.536	6.124	-7.120
236058.502	NaN	2.565	7.576	-4.739	1509.158	1500.366	1500.366	1.420	6.153	-6.290	0.536	6.278	-7.043
236059.479	NaN	2.565	7.576	-4.750	1509.890	1500.366	1500.366	1.374	6.122	-6.290	0.536	6.278	-7.120
236060.455	NaN	2.576	7.576	-4.761	1511.355	1500.366	1500.366	1.099	6.229	-6.382	0.459	6.124	-7.120
236061.432	NaN	2.587	7.576	-4.750	1510.623	1499.634	1502.564	1.023	6.427	-6.534	0.383	6.201	-7.120
236062.408	NaN	2.587	7.576	-4.750	1511.355	1499.634	1501.099	0.977	6.382	-6.427	0.383	6.278	-7.120
236063.385	NaN	2.576	7.576	-4.750	1510.623	1499.634	1501.832	0.992	6.397	-6.321	0.306	6.201	-6.967
236064.362	NaN	2.576	7.565	-4.761	1511.355	1499.634	1501.099	1.145	6.366	-6.473	0.383	6.354	-7.120
236065.338	NaN	2.565	7.565	-4.761	1509.890	1498.901	1500.366	1.282	6.244	-6.580	0.536	6.278	-7.273
236066.315	NaN	2.576	7.576	-4.750	1510.623	1500.366	1498.901	1.160	6.305	-6.595	0.612	6.278	-7.120
236067.291	NaN	2.576	7.565	-4.750	1509.890	1499.634	1501.099	1.160	6.290	-6.351	0.536	6.278	-6.967
236068.268	NaN	2.554	7.565	-4.750	1511.355	1499.634	1500.366	0.962	6.214	-6.321	0.536	6.201	-7.120
236069.244	NaN	2.565	7.565	-4.761	1511.355	1500.366	1500.366	0.809	6.275	-6.550	0.536	6.124	-7.120
236070.221	NaN	2.565	7.565	-4.761	1511.355	1499.634	1501.832	1.008	6.305	-6.489	0.306	4.976	-7.196
236071.198	NaN	2.565	7.565	-4.750	1510.623	1500.366	1501.832	0.901	6.351	-6.519	0.536	6.201	-7.120
236072.174	NaN	2.565	7.554	-4.750	1511.355	1499.634	1501.099	0.947	6.366	-6.321	0.383	6.278	-7.043
236073.151	NaN	2.565	7.554	-4.750	1509.890	1500.366	1500.366	1.191	6.275	-6.076	0.383	6.278	-7.120
236074.127	NaN	2.576	7.565	-4.739	1512.088	1500.366	1501.099	1.099	6.168	-6.382	0.383	6.278	-7.120
236075.104	NaN	2.576	7.565	-4.739	1511.355	1500.366	1501.832	0.885	6.107	-6.656	0.383	6.201	-6.890
236076.080	NaN	2.565	7.576	-4.739	1510.623	1499.634	1499.634	0.901	6.122	-6.580	0.383	6.201	-6.967
236077.057	NaN	2.576	7.565	-4.750	1510.623	1500.366	1501.099	0.916	6.153	-6.443	0.459	6.124	-7.120
236078.033	NaN	2.565	7.565	-4.750	1510.623	1500.366	1501.099	0.916	6.336	-6.427	0.536	6.278	-7.120
236079.010	NaN	2.576	7.576	-4.728	1511.355	1500.366	1500.366	0.885	6.473	-6.550	0.383	6.201	-7.043
236079.987	NaN	2.576	7.576	-4.728	1510.623	1499.634	1500.366	0.809	6.382	-6.626	0.536	6.201	-7.043
236080.963	NaN	2.565	7.565	-4.728	1510.623	1499.634	1502.564	0.885	6.336	-6.504	0.536	6.278	-7.120
236081.940	NaN	2.554	7.554	-4.728	1509.890	1499.634	1500.366	0.916	6.198	-6.427	0.536	6.278	-7.043
236082.916	NaN	2.565	7.554	-4.739	1511.355	1500.366	1499.634	0.931	6.092	-6.336	0.536	6.278	-7.120
236083.893	NaN	2.576	7.565	-4.739	1509.890	1500.366	1501.099	0.947	6.061	-6.321	0.383	6.201	-7.120
236084.869	NaN	2.576	7.565	-4.739	1510.623	1499.634	1500.366	1.023	6.244	-6.382	0.383	6.201	-7.043
236085.846	NaN	2.576	7.565	-4.728	1510.623	1499.634	1501.099	0.992	6.412	-6.534	0.536	6.201	-7.120
236086.823	NaN	2.576	7.565	-4.739	1510.623	1499.634	1501.099	0.885	6.336	-6.718	0.459	6.278	-7.120
236087.799	NaN	2.576	7.565	-4.739	1510.623	1501.099	1500.366	0.901	6.260	-6.656	0.459	6.124	-6.967
236088.776	NaN	2.576	7.554	-4.750	1509.890	1500.366	1500.366	1.023	5.969	-6.550	0.383	6.201	-7.043
236089.752	NaN	2.576	7.565	-4.750	1510.623	1499.634	1501.832	1.191	6.000	-6.534	0.383	6.201	-7.120
236090.729	NaN	2.565	7.554	-4.761	1510.623	1499.634	1501.832	1.298	6.168	-6.412	0.459	6.124	-6.890
236091.705	NaN	2.565	7.554	-4.739	1509.890	1498.901	1501.099	1.267	6.214	-6.137	0.459	6.201	-6.967
236092.682	NaN	2.587	7.565	-4.739	1510.623	1500.366	1500.366	1.038	6.290	-6.336	0.536	6.278	-7.120
236093.658	NaN	2.587	7.576	-4.728	1510.623	1500.366	1499.634	0.947	6.153	-6.687	0.459	6.201	-7.120
236094.635	NaN	2.576	7.565	-4.739	1512.088	1498.901	1501.832	1.099	6.137	-6.718	0.459	6.201	-6.967
236095.612	NaN	2.565	7.576	-4.728	1511.355	1498.901	1500.366	0.992	6.183	-6.473	0.459	6.124	-7.196
236096.588	NaN	2.576	7.576	-4.728	1510.623	1499.634	1499.634	0.947	6.260	-6.565	0.459	6.201	-7.120
236097.565	NaN	2.576	7.576	-4.717	1512.088	1499.634	1501.832	0.885	6.260	-6.733	0.383	6.124	-7.043
236098.541	NaN	2.565	7.565	-4.717	1511.355	1500.366	1500.366	0.992	6.275	-6.519	0.459	6.278	-7.043
236099.518	NaN	2.565	7.565	-4.728	1509.890	1499.634	1502.564	1.221	6.183	-6.214	0.383	6.354	-7.120
236100.494	NaN	2.554	7.576	-4.750	1509.890	1498.901	1500.366	1.160	6.366	-6.214	0.306	6.124	-6.967
236101.471	NaN	2.565	7.587	-4.750	1511.355	1500.366	1500.366	1.130	6.382	-6.275	0.536	6.354	-7.043
236102.448	NaN	2.554	7.576	-4.772	1510.623	1499.634	1500.366	1.038	6.397	-6.397	0.689	6.201	-7.196
236103.424	NaN	2.554	7.576	-4.761	1509.158	1498.901	1499.634	1.191	6.382	-6.458	0.306	6.201	-7.043
236104.401	NaN	2.554	7.565	-4.761	1510.623	1500.366	1501.832	1.252	6.366	-6.412	0.459	6.201	-7.043
236105.377	NaN	2.554	7.576	-4.761	1509.890	1498.901	1500.366	1.176	6.244	-6.519	0.383	6.278	-7.120
236106.354	NaN	2.565	7.587	-4.739	1510.623	1499.634	1501.832	0.916	6.168	-6.595	0.383	6.278	-7.120
236107.330	NaN	2.565	7.576	-4.750	1511.355	1499.634	1501.832	1.008	6.305	-6.534	0.536	6.278	-7.043
236108.307	NaN	2.565	7.565	-4.739	1509.890	1499.634	1500.366	1.053	6.244	-6.443	0.536	6.201	-6.967
236109.283	NaN	2.554	7.565	-4.750	1510.623	1499.634	1501.099	0.947	6.092	-6.580	0.459	7.273	-7.120
236110.260	NaN	2.554	7.565	-4.750	1509.890	1498.901	1500.366	0.748	6.321	-6.397	0.383	6.278	-6.967
236111.237	NaN	2.565	7.576	-4.728	1510.623	1500.366	1501.099	0.885	6.382	-6.382	0.459	6.201	-6.967
236112.213	NaN	2.565	7.576	-4.739	1510.623	1499.634	1501.099	1.206	6.397	-6.611	0.459	6.124	-7.120
236113.190	NaN	2.554	7.565	-4.750	1508.425	1498.901	1501.832	1.313	6.336	-6.534	0.459	6.201	-7.120
236114.166	NaN	2.554	7.576	-4.761	1511.355	1499.634	1501.832	1.130	6.275	-6.412	0.536	6.201	-7.043
236115.143	NaN	2.554	7.565	-4.761	1509.890	1499.634	1501.832	0.855	6.321	-6.198	0.459	6.278	-6.967
236116.119	NaN	2.576	7.576	-4.750	1510.623	1499.634	1500.366	1.023	6.366	-6.458	0.459	6.201	-7.196
236117.096	NaN	2.576	7.565	-4.750	1512.088	1499.634	1501.832	1.008	6.412	-6.565	0.536	6.201	-7.043
236118.073	NaN	2.576	7.554	-4.772	1512.088	1498.901	1501.099	0.779	6.260	-6.458	0.383	6.201	-6.967
236119.049	NaN	2.587	7.554	-4.761	1510.623	1500.366	1500.366	0.840	6.076	-6.626	0.459	6.201	-7.196
236120.026	NaN	2.587	7.565	-4.761	1509.890	1499.634	1499.634	0.947	6.183	-6.595	0.459	6.201	-7.043
236121.002	NaN	2.587	7.565	-4.739	1509.890	1499.634	1501.832	0.962	6.290	-6.550	0.306	6.278	-6.967
236121.979	NaN	2.565	7.565	-4.750	1511.355	1499.634	1499.634	0.931	6.336	-6.473	0.459	6.124	-7.120
236122.955	NaN	2.554	7.554	-4.750	1510.623	1498.901	1500.366	0.885	6.305	-6.321	0.383	6.278	-7.196
236123.932	NaN	2.576	7.576	-4.728	1511.355	1501.099	1500.366	1.038	6.229	-6.397	0.459	6.201	-7.120
236124.908	NaN	2.565	7.576	-4.728	1510.623	1499.634	1501.099	1.084	6.107	-6.366	0.459	6.278	-7.043
236125.885	NaN	2.565	7.565	-4.728	1509.158	1499.634	1500.366	1.023	5.939	-6.397	0.459	6.201	-7.120
236126.862	NaN	2.565	7.565	-4.717	1512.088	1498.901	1501.099	1.084	6.107	-6.275	0.536	6.354	-7.196
236127.838	NaN	2.554	7.554	-4.728	1510.623	1498.901	1500.366	1.053	6.168	-6.275	0.383	6.201	-7.120
236128.815	NaN	2.565	7.554	-4.717	1511.355	1499.634	1501.832	1.069	6.260	-6.504	0.459	6.278	-7.120
236129.791	NaN	2.554	7.565	-4.739	1509.890	1499.634	1501.099	1.115	6.183	-6.656	0.459	6.124	-7.043
236130.768	NaN	2.565	7.565	-4.739	1509.890	1499.634	1500.366	0.947	6.137	-6.412	0.383	6.124	-7.043
236131.744	NaN	2.565	7.565	-4.750	1511.355	1500.366	1501.099	0.870	6.275	-6.336	0.383	6.278	-6.967
236132.721	NaN	2.565	7.576	-4.750	1510.623	1499.634	1501.832	0.916	6.412	-6.489	0.536	6.048	-7.196
236133.698	NaN	2.576	7.576	-4.739	1509.890	1499.634	1500.366	1.206	6.504	-6.443	0.459	6.201	-7.043
236134.674	NaN	2.576	7.565	-4.739	1510.623	1499.634	1500.366	1.191	6.443	-6.366	0.383	6.201	-7.196
236135.651	NaN	2.565	7.565	-4.750	1510.623	1499.634	1501.099	1.176	6.305	-6.382	0.459	6.278	-7.120
236136.627	NaN	2.587	7.565	-4.739	1510.623	1500.366	1501.099	1.038	6.229	-6.260	0.383	6.278	-7.196
236137.604	NaN	2.587	7.576	-4.750	1510.623	1499.634	1500.366	0.992	6.183	-6.397	0.383	6.354	-7.120
236138.580	NaN	2.587	7.576	-4.750	1510.623	1499.634	1501.099	1.069	6.336	-6.504	0.459	6.201	-7.043
236139.557	NaN	2.576	7.576	-4.750	1511.355	1499.634	1501.832	0.947	6.473	-6.534	0.383	6.201	-6.967
236140.533	NaN	2.565	7.565	-4.761	1511.355	1499.634	1500.366	0.947	6.427	-6.336	0.536	6.354	-7.196
236141.510	NaN	2.576	7.576	-4.728	1510.623	1500.366	1500.366	0.977	6.366	-6.305	0.306	6.354	-7.120
236142.487	NaN	2.576	7.576	-4.728	1510.623	1498.901	1501.099	0.931	6.336	-6.351	0.689	6.201	-7.120
236143.463	NaN	2.565	7.576	-4.728	1510.623	1499.634	1501.099	0.870	6.412	-6.260	0.459	6.124	-7.120
236144.440	NaN	2.554	7.576	-4.739	1509.890	1498.901	1501.099	0.779	6.336	-6.260	0.306	6.431	-7.120
236145.416	NaN	2.576	7.576	-4.750	1511.355	1500.366	1500.366	0.809	6.275	-6.260	0.536	6.278	-6.967
236146.393	NaN	2.565	7.565	-4.772	1510.623	1499.634	1500.366	0.824	6.351	-6.183	0.536	6.278	-7.196
236147.369	NaN	2.576	7.565	-4.772	1510.623	1500.366	1499.634	0.931	6.321	-6.290	0.459	6.278	-7.043
236148.346	NaN	2.565	7.554	-4.772	1509.890	1498.901	1499.634	0.916	6.229	-6.229	0.536	6.201	-7.120
236162.018	NaN	2.576	7.565	-4.750	1509.890	1499.634	1501.099	0.977	6.305	-6.336	0.536	6.354	-7.120
236162.994	NaN	2.576	7.576	-4.761	1512.088	1499.634	1501.832	1.176	6.275	-6.198	0.459	6.278	-7.120
236163.971	NaN	2.576	7.587	-4.761	1511.355	1500.366	1500.366	1.160	6.351	-6.336	0.459	6.201	-7.120
236164.948	NaN	2.576	7.576	-4.772	1511.355	1499.634	1501.099	1.008	6.397	-6.427	0.459	6.278	-7.043
236165.924	NaN	2.576	7.576	-4.750	1509.158	1499.634	1499.634	0.931	6.214	-6.275	0.536	6.278	-7.120
236166.901	NaN	2.576	7.565	-4.750	1509.890	1498.901	1500.366	0.855	6.244	-6.305	0.459	6.201	-7.120
236167.877	3736843562.100	2.576	7.576	-4.728	1509.890	1499.634	1500.366	0.809	6.183	-6.550	0.383	6.201	-7.120
236168.854	NaN	2.576	7.565	-4.728	1509.890	1500.366	1498.901	1.023	6.198	-6.351	0.459	6.278	-7.120
236169.830	NaN	2.587	7.554	-4.739	1509.158	1499.634	1501.099	0.885	6.443	-6.336	0.459	6.201	-7.043
236170.807	NaN	2.587	7.554	-4.728	1510.623	1499.634	1499.634	1.130	6.366	-6.305	0.306	6.201	-7.120
236171.783	NaN	2.576	7.554	-4.750	1509.890	1500.366	1500.366	1.206	6.321	-6.382	0.383	6.278	-7.196
236172.760	NaN	2.576	7.554	-4.761	1510.623	1498.901	1499.634	0.977	6.366	-6.580	0.383	6.201	-7.120
236173.737	NaN	2.576	7.565	-4.761	1509.890	1498.901	1499.634	1.038	6.244	-6.458	0.459	6.201	-7.196
236174.713	NaN	2.576	7.554	-4.750	1509.890	1499.634	1500.366	1.053	6.198	-6.336	0.383	6.278	-7.196
236175.690	NaN	2.576	7.554	-4.739	1510.623	1498.901	1498.901	1.038	6.427	-6.229	0.459	6.048	-7.120
236176.666	NaN	2.587	7.565	-4.728	1509.890	1498.901	1500.366	1.206	6.458	-6.107	0.383	6.278	-6.967
236177.643	NaN	2.587	7.576	-4.739	1512.088	1500.366	1501.099	1.206	6.382	-6.168	0.459	6.354	-7.120
236178.619	NaN	2.587	7.565	-4.750	1510.623	1499.634	1500.366	1.023	6.305	-6.321	0.459	6.278	-7.043
236179.596	NaN	2.587	7.565	-4.761	1510.623	1498.901	1501.099	0.733	6.229	-6.290	0.459	6.278	-7.043
236180.573	NaN	2.587	7.576	-4.772	1510.623	1499.634	1501.832	0.916	6.351	-6.244	0.459	7.273	-7.120
236181.549	NaN	2.587	7.576	-4.761	1509.158	1499.634	1499.634	0.977	6.397	-6.336	0.536	6.278	-7.043
236182.526	NaN	2.587	7.576	-4.772	1510.623	1500.366	1500.366	0.702	6.321	-6.321	0.536	6.124	-7.043
236183.502	NaN	2.576	7.576	-4.772	1510.623	1500.366	1499.634	0.611	6.260	-6.290	0.459	6.201	-7.196
236184.479	NaN	2.565	7.565	-4.783	1510.623	1499.634	1500.366	0.931	6.336	-6.427	0.536	6.278	-7.196
236185.455	NaN	2.576	7.576	-4.783	1510.623	1500.366	1499.634	1.145	6.168	-6.351	0.536	6.278	-7.196
236186.432	NaN	2.576	7.565	-4.761	1510.623	1499.634	1501.099	1.099	6.137	-6.397	0.459	6.201	-6.967
236187.408	NaN	2.576	7.576	-4.750	1510.623	1499.634	1499.634	1.115	6.305	-6.519	0.459	6.201	-7.120
236188.385	NaN	2.576	7.576	-4.750	1509.890	1500.366	1500.366	1.099	6.351	-6.244	0.459	6.278	-7.043
236189.362	NaN	2.565	7.576	-4.761	1510.623	1499.634	1499.634	0.931	6.366	-6.198	0.383	6.354	-6.967
236190.338	NaN	2.576	7.587	-4.750	1511.355	1500.366	1500.366	0.947	6.412	-6.260	0.459	6.201	-7.043
236191.315	NaN	2.576	7.587	-4.750	1510.623	1499.634	1501.099	0.947	6.260	-6.321	0.459	6.201	-7.120
236192.291	NaN	2.576	7.587	-4.761	1509.890	1499.634	1501.099	1.069	6.321	-6.244	0.459	6.278	-7.196
236193.268	NaN	2.576	7.576	-4.761	1509.890	1501.099	1500.366	1.008	6.489	-6.275	0.612	6.278	-7.120
236194.244	NaN	2.576	7.576	-4.772	1510.623	1500.366	1500.366	0.687	6.198	-6.290	0.459	6.278	-7.043
236195.221	NaN	2.576	7.576	-4.761	1510.623	1500.366	1501.099	0.626	6.107	-6.305	0.536	6.201	-7.120
236196.198	NaN	2.576	7.565	-4.761	1510.623	1500.366	1500.366	0.763	6.198	-6.321	0.536	6.201	-7.120
236197.174	NaN	2.554	7.565	-4.761	1510.623	1500.366	1500.366	0.947	6.290	-6.290	0.459	6.201	-7.196
236198.151	NaN	2.565	7.565	-4.761	1509.890	1499.634	1500.366	0.916	6.321	-6.321	0.306	6.278	-7.043
236199.127	NaN	2.565	7.565	-4.750	1510.623	1500.366	1500.366	0.809	6.290	-6.351	0.383	6.124	-7.273
236200.104	NaN	2.565	7.565	-4.739	1510.623	1500.366	1501.099	0.840	6.305	-6.351	0.612	6.124	-7.043
236201.080	NaN	2.565	7.565	-4.739	1511.355	1500.366	1501.099	1.115	6.351	-6.275	0.459	6.278	-7.043
236202.057	NaN	2.565	7.565	-4.739	1510.623	1499.634	1501.099	1.206	6.412	-6.061	0.306	6.354	-7.120
236203.033	NaN	2.565	7.554	-4.750	1511.355	1499.634	1499.634	1.084	6.443	-6.122	0.383	6.201	-7.043
236204.010	NaN	2.576	7.554	-4.750	1510.623	1500.366	1500.366	0.977	6.290	-6.382	0.459	6.278	-6.967
236204.987	NaN	2.576	7.565	-4.739	1510.623	1499.634	1501.099	1.160	6.153	-6.351	0.536	6.201	-7.120
236205.963	NaN	2.576	7.565	-4.728	1510.623	1499.634	1501.099	1.176	6.260	-6.336	0.536	6.201	-7.120
236206.940	NaN	2.576	7.565	-4.750	1510.623	1499.634	1501.832	0.870	6.244	-6.305	0.459	6.354	-6.890
236207.916	NaN	2.576	7.565	-4.750	1508.425	1498.901	1500.366	0.779	6.214	-6.290	0.536	6.201	-6.967
236208.893	NaN	2.587	7.576	-4.739	1509.890	1499.634	1501.099	0.916	6.412	-6.290	0.536	6.201	-6.967
236209.869	NaN	2.576	7.565	-4.739	1510.623	1499.634	1501.832	1.099	6.473	-6.397	0.536	6.201	-7.043
236210.846	NaN	2.565	7.565	-4.750	1509.158	1498.901	1500.366	1.252	6.458	-6.443	0.536	6.431	-7.120
236211.823	NaN	2.565	7.576	-4.750	1509.890	1499.634	1500.366	1.130	6.290	-6.595	0.459	6.278	-7.120
236212.799	NaN	2.565	7.576	-4.750	1510.623	1498.901	1500.366	0.931	6.168	-6.748	0.459	6.201	-7.120
236213.776	NaN	2.565	7.576	-4.728	1511.355	1499.634	1502.564	0.779	6.229	-6.427	0.383	6.278	-7.043
236214.752	NaN	2.576	7.576	-4.739	1511.355	1499.634	1500.366	0.748	6.351	-6.244	0.459	6.124	-7.043
236215.729	NaN	2.565	7.576	-4.750	1509.890	1500.366	1498.901	0.870	6.458	-6.366	0.459	6.278	-7.043
236216.705	NaN	2.565	7.565	-4.750	1509.890	1500.366	1499.634	1.084	6.702	-6.397	0.459	6.201	-7.120
236217.682	NaN	2.565	7.576	-4.739	1510.623	1499.634	1498.901	1.130	6.763	-6.489	0.383	6.278	-7.120
236218.658	NaN	2.554	7.576	-4.739	1511.355	1501.099	1500.366	0.885	6.672	-6.504	0.383	6.278	-7.043
236219.635	NaN	2.565	7.576	-4.739	1509.158	1499.634	1501.099	0.687	6.611	-6.534	0.459	5.053	-7.120
236220.612	NaN	2.565	7.565	-4.739	1511.355	1498.901	1499.634	0.870	6.519	-6.427	0.383	6.124	-7.120
236221.588	NaN	2.565	7.565	-4.728	1511.355	1499.634	1500.366	1.053	6.260	-6.366	0.459	6.201	-7.043
236222.565	NaN	2.565	7.576	-4.728	1510.623	1500.366	1501.099	0.962	6.229	-6.275	0.459	6.278	-7.043
236223.541	NaN	2.565	7.576	-4.739	1509.890	1499.634	1501.832	0.870	6.489	-6.290	0.383	6.124	-7.273
236224.518	NaN	2.554	7.576	-4.739	1510.623	1499.634	1500.366	1.069	6.427	-6.290	0.383	6.124	-7.043
236225.494	NaN	2.565	7.576	-4.761	1509.158	1498.901	1501.099	0.947	6.305	-6.366	0.536	6.201	-6.967
236226.471	NaN	2.565	7.576	-4.761	1510.623	1500.366	1499.634	1.008	6.305	-6.458	0.536	6.201	-6.967
236227.448	NaN	2.543	7.576	-4.761	1510.623	1499.634	1500.366	1.038	6.290	-6.427	0.459	6.201	-7.120
236228.424	NaN	2.543	7.576	-4.761	1509.890	1500.366	1500.366	0.962	6.382	-6.427	0.536	6.278	-7.120
236229.401	NaN	2.543	7.576	-4.761	1510.623	1498.901	1501.099	1.053	6.351	-6.412	0.383	6.201	-6.967
236230.377	NaN	2.543	7.576	-4.739	1511.355	1501.099	1500.366	0.794	6.321	-6.489	0.459	6.124	-7.196
236231.354	NaN	2.543	7.565	-4.761	1510.623	1499.634	1501.832	0.611	6.550	-6.641	0.383	6.201	-7.043
236232.330	NaN	2.554	7.587	-4.750	1509.890	1499.634	1501.099	0.824	6.550	-6.718	0.459	6.278	-6.967
236233.307	NaN	2.554	7.576	-4.750	1509.890	1499.634	1499.634	1.008	6.519	-6.412	0.459	6.278	-6.890
236234.283	NaN	2.543	7.554	-4.750	1511.355	1499.634	1500.366	0.992	6.565	-6.382	0.306	6.048	-6.967
236235.260	NaN	2.565	7.554	-4.739	1510.623	1499.634	1501.832	1.053	6.351	-6.443	0.459	6.124	-7.043
236236.237	NaN	2.554	7.554	-4.739	1510.623	1499.634	1501.832	0.962	6.366	-6.290	0.459	6.278	-7.120
236237.213	NaN	2.565	7.554	-4.739	1509.890	1499.634	1501.832	0.947	6.427	-6.275	0.383	6.431	-7.120
236238.190	NaN	2.554	7.565	-4.750	1510.623	1500.366	1498.901	0.840	6.443	-6.260	0.536	6.201	-7.043
236239.166	NaN	2.565	7.565	-4.750	1510.623	1500.366	1500.366	0.855	6.489	-6.397	0.459	6.278	-6.967
236240.143	NaN	2.565	7.576	-4.739	1509.890	1499.634	1500.366	0.840	6.611	-6.244	0.383	6.124	-7.196
236241.119	NaN	2.554	7.576	-4.739	1510.623	1500.366	1500.366	0.672	6.443	-6.168	0.536	6.278	-7.043
236242.096	NaN	2.554	7.576	-4.750	1510.623	1499.634	1500.366	0.733	6.168	-6.229	0.383	6.278	-7.120
236243.073	NaN	2.554	7.576	-4.750	1510.623	1500.366	1501.832	0.824	6.214	-6.336	0.383	6.201	-7.120
236244.049	NaN	2.554	7.587	-4.728	1510.623	1500.366	1500.366	0.702	6.382	-6.290	0.383	6.124	-7.120
236245.026	NaN	2.554	7.587	-4.728	1509.890	1499.634	1501.099	0.824	6.336	-6.260	0.536	6.278	-7.120
236246.002	NaN	2.554	7.576	-4.739	1510.623	1499.634	1501.099	1.191	6.351	-6.473	0.383	6.278	-6.967
236246.979	NaN	2.554	7.565	-4.739	1511.355	1499.634	1501.832	1.221	6.351	-6.580	0.459	6.201	-6.967
236247.955	NaN	2.554	7.576	-4.739	1510.623	1500.366	1499.634	1.252	6.336	-6.565	0.459	6.354	-7.043
236248.932	NaN	2.565	7.565	-4.739	1510.623	1499.634	1501.099	1.130	6.382	-6.595	0.383	6.201	-7.120
236249.908	NaN	2.565	7.554	-4.750	1510.623	1499.634	1501.099	0.916	6.458	-6.336	0.536	6.124	-7.043
236250.885	NaN	2.565	7.554	-4.761	1509.890	1499.634	1500.366	1.130	6.427	-6.198	0.383	6.201	-7.043
236251.862	NaN	2.554	7.554	-4.772	1509.890	1499.634	1501.832	1.221	6.366	-6.351	0.383	6.201	-7.043
236252.838	NaN	2.565	7.565	-4.761	1510.623	1499.634	1501.099	1.084	6.336	-6.397	0.536	6.278	-7.043
236253.815	NaN	2.554	7.565	-4.761	1510.623	1498.901	1501.832	0.870	6.351	-6.290	0.459	6.278	-7.120
236254.791	NaN	2.565	7.565	-4.772	1509.890	1499.634	1501.832	0.748	6.412	-6.397	0.383	6.278	-7.120
236255.768	NaN	2.565	7.565	-4.761	1511.355	1499.634	1500.366	0.885	6.458	-6.321	0.383	6.354	-7.196
236256.744	NaN	2.554	7.565	-4.772	1508.425	1499.634	1499.634	0.779	6.473	-6.366	0.459	6.124	-7.043
236257.721	NaN	2.576	7.587	-4.761	1509.890	1499.634	1501.099	0.794	6.397	-6.427	0.459	6.124	-7.120
236258.698	NaN	2.565	7.576	-4.783	1511.355	1498.901	1498.901	0.885	6.412	-6.382	0.459	6.201	-7.273
236259.674	NaN	2.565	7.565	-4.772	1510.623	1498.901	1501.832	1.008	6.534	-6.122	0.536	6.124	-7.120
236260.651	NaN	2.565	7.576	-4.772	1510.623	1498.901	1501.832	1.023	6.641	-6.092	0.459	6.354	-7.196
236261.627	NaN	2.565	7.565	-4.761	1510.623	1499.634	1501.099	0.840	6.504	-6.305	0.459	6.201	-7.043
236262.604	NaN	2.576	7.576	-4.761	1509.158	1498.901	1500.366	0.931	6.443	-6.397	0.383	6.124	-7.043
236263.580	NaN	2.587	7.587	-4.750	1509.890	1500.366	1500.366	0.992	6.489	-6.229	0.459	6.278	-7.120
236264.557	NaN	2.576	7.587	-4.761	1509.158	1499.634	1501.832	0.855	6.534	-6.214	0.459	6.124	-7.043
236265.533	NaN	2.565	7.587	-4.761	1511.355	1500.366	1500.366	0.763	6.427	-6.305	0.459	6.201	-7.043
236266.510	NaN	2.565	7.576	-4.739	1509.890	1498.901	1500.366	0.733	6.336	-6.137	0.536	6.201	-6.890
236267.487	NaN	2.565	7.576	-4.750	1509.890	1499.634	1501.099	0.672	6.290	-6.046	0.459	6.278	-7.196
236268.463	NaN	2.576	7.576	-4.728	1510.623	1498.901	1501.099	0.656	6.366	-6.137	0.459	6.278	-7.120
236269.440	NaN	2.565	7.565	-4.750	1510.623	1500.366	1499.634	0.809	6.183	-6.260	0.459	6.278	-7.043
236270.416	NaN	2.565	7.565	-4.750	1511.355	1500.366	1501.099	0.733	6.153	-6.427	0.536	6.278	-7.043
236271.393	NaN	2.554	7.565	-4.739	1510.623	1498.901	1500.366	1.115	6.366	-6.519	0.459	6.278	-7.043
236272.369	NaN	2.565	7.576	-4.750	1510.623	1499.634	1501.099	1.267	6.351	-6.534	0.459	6.201	-7.120
236273.346	NaN	2.565	7.576	-4.750	1510.623	1499.634	1501.099	1.008	6.427	-6.229	0.536	6.124	-6.967
236274.323	NaN	2.554	7.576	-4.761	1511.355	1499.634	1500.366	0.779	6.336	-6.076	0.536	6.124	-7.120
236275.299	NaN	2.565	7.576	-4.750	1512.088	1501.099	1501.099	0.962	6.305	-6.366	0.306	6.278	-7.043
236276.276	NaN	2.565	7.576	-4.750	1511.355	1500.366	1500.366	1.053	6.565	-6.580	0.536	6.431	-7.120
236277.252	NaN	2.565	7.587	-4.761	1509.890	1499.634	1500.366	1.053	6.534	-6.366	0.383	6.201	-7.196
236278.229	NaN	2.565	7.587	-4.739	1509.890	1499.634	1501.099	0.901	6.458	-6.015	0.536	6.201	-7.043
236279.205	NaN	2.565	7.587	-4.750	1510.623	1499.634	1499.634	1.053	6.519	-6.198	0.459	6.278	-7.043
236280.182	NaN	2.576	7.576	-4.739	1510.623	1499.634	1501.099	1.206	6.412	-6.504	0.459	6.201	-7.120
236281.158	NaN	2.576	7.576	-4.739	1510.623	1500.366	1498.901	0.962	6.305	-6.443	0.536	6.278	-7.043
236282.135	NaN	2.565	7.565	-4.750	1510.623	1499.634	1501.099	0.870	6.397	-6.534	0.459	6.354	-7.196
236283.112	NaN	2.565	7.576	-4.739	1509.890	1499.634	1501.099	0.992	6.473	-6.489	0.383	6.201	-7.043
236284.088	NaN	2.576	7.587	-4.717	1511.355	1499.634	1501.832	0.962	6.473	-6.519	0.383	6.278	-7.196
236285.065	NaN	2.565	7.587	-4.728	1510.623	1499.634	1502.564	0.733	6.382	-6.443	0.383	6.354	-7.120
236286.041	NaN	2.554	7.576	-4.739	1509.890	1498.901	1501.832	0.763	6.366	-6.351	0.459	6.278	-6.967
236287.018	NaN	2.554	7.587	-4.750	1510.623	1499.634	1499.634	0.733	6.336	-6.412	0.306	6.201	-7.043
236287.994	NaN	2.554	7.576	-4.750	1511.355	1500.366	1499.634	0.809	6.382	-6.336	0.459	6.124	-7.043
236288.971	3736843562.252	2.554	7.576	-4.739	1511.355	1499.634	1500.366	0.992	6.427	-6.412	0.459	6.201	-7.120
236289.948	NaN	2.565	7.565	-4.739	1510.623	1499.634	1500.366	0.947	6.366	-6.321	0.459	6.354	-7.043
236290.924	NaN	2.554	7.565	-4.750	1510.623	1498.901	1500.366	0.733	6.534	-6.305	0.383	6.278	-7.120
236291.901	NaN	2.554	7.565	-4.761	1511.355	1499.634	1501.832	0.656	6.305	-6.244	0.383	6.278	-6.967
236292.877	NaN	2.576	7.565	-4.750	1510.623	1501.099	1500.366	0.656	6.076	-6.290	0.459	6.201	-7.196
236293.854	NaN	2.565	7.565	-4.761	1509.890	1499.634	1499.634	0.641	6.168	-6.519	0.383	6.201	-6.967
236294.830	NaN	2.576	7.576	-4.750	1510.623	1499.634	1500.366	0.672	6.305	-6.366	0.383	6.201	-7.043
236295.807	NaN	2.576	7.565	-4.750	1509.890	1500.366	1501.099	0.733	6.382	-6.351	0.306	6.278	-7.120
236296.783	NaN	2.565	7.576	-4.761	1511.355	1499.634	1500.366	1.008	6.366	-6.214	0.383	6.124	-7.120
236297.760	NaN	2.576	7.565	-4.761	1511.355	1499.634	1501.099	1.023	6.137	-6.137	0.383	6.278	-7.120
236298.737	NaN	2.576	7.554	-4.750	1510.623	1500.366	1500.366	0.962	6.031	-6.336	0.383	6.124	-7.120
236315.338	NaN	2.587	7.565	-4.750	1512.088	1499.634	1501.832	1.099	6.443	-6.427	0.536	6.124	-7.120
236316.315	NaN	2.587	7.565	-4.761	1510.623	1500.366	1499.634	1.099	6.519	-6.260	0.459	6.201	-7.120
236317.291	NaN	2.576	7.565	-4.750	1509.158	1500.366	1500.366	1.023	6.534	-6.321	0.536	6.124	-7.043
236318.268	NaN	2.565	7.576	-4.761	1509.890	1498.168	1500.366	0.733	6.534	-6.366	0.459	6.201	-7.043
236319.244	NaN	2.565	7.587	-4.750	1509.890	1498.901	1499.634	0.840	6.397	-6.336	0.536	6.354	-7.120
236320.221	NaN	2.565	7.587	-4.739	1510.623	1499.634	1501.832	1.023	6.336	-6.412	0.536	6.201	-7.043
236321.198	NaN	2.554	7.576	-4.761	1510.623	1499.634	1498.901	0.992	6.412	-6.473	0.383	6.278	-7.043
236322.174	NaN	2.565	7.576	-4.750	1510.623	1499.634	1499.634	0.901	6.489	-6.443	0.459	6.124	-7.043
236323.151	NaN	2.565	7.565	-4.750	1509.158	1498.901	1501.099	0.733	6.550	-6.443	0.459	6.354	-7.043
236324.127	NaN	2.576	7.587	-4.739	1511.355	1501.099	1500.366	0.595	6.412	-6.656	0.383	6.278	-6.967
236325.104	NaN	2.565	7.576	-4.750	1509.890	1498.901	1500.366	0.718	6.321	-6.718	0.459	6.201	-7.196
236326.080	NaN	2.565	7.576	-4.750	1509.158	1498.901	1499.634	0.763	6.412	-6.519	0.459	6.278	-6.967
236327.057	NaN	2.565	7.565	-4.728	1509.890	1499.634	1501.099	0.870	6.550	-6.092	0.459	6.278	-6.967
236328.033	NaN	2.576	7.565	-4.750	1510.623	1499.634	1500.366	0.794	6.489	-6.137	0.383	6.201	-7.120
236329.010	NaN	2.565	7.565	-4.728	1510.623	1501.099	1500.366	0.718	6.214	-6.275	0.459	6.124	-6.967
236329.987	NaN	2.565	7.576	-4.728	1508.425	1500.366	1499.634	0.748	6.290	-6.397	0.459	6.124	-7.043
236330.963	NaN	2.554	7.576	-4.750	1509.890	1499.634	1500.366	0.565	6.321	-6.290	0.459	6.278	-7.120
236331.940	NaN	2.554	7.587	-4.750	1512.088	1498.901	1500.366	0.595	6.351	-6.183	0.536	6.124	-7.120
236332.916	NaN	2.576	7.576	-4.761	1510.623	1500.366	1501.832	0.611	6.351	-6.305	0.536	6.431	-7.120
236333.893	NaN	2.565	7.565	-4.772	1509.890	1498.901	1498.901	0.809	6.290	-6.336	0.383	6.201	-7.120
236334.869	NaN	2.565	7.565	-4.772	1509.158	1498.901	1500.366	0.901	6.366	-6.412	0.459	6.278	-7.120
236335.846	NaN	2.576	7.576	-4.761	1509.890	1498.901	1500.366	0.947	6.443	-6.305	0.459	6.278	-7.120
236336.823	NaN	2.565	7.565	-4.772	1510.623	1499.634	1500.366	0.656	6.305	-6.351	0.459	6.201	-7.196
236337.799	NaN	2.576	7.576	-4.750	1510.623	1501.832	1500.366	0.718	6.244	-6.489	0.612	6.354	-6.967
236338.776	NaN	2.565	7.565	-4.772	1509.158	1500.366	1500.366	0.992	6.260	-6.473	0.536	6.201	-7.043
236339.752	NaN	2.565	7.565	-4.772	1509.890	1498.901	1500.366	0.962	6.321	-6.382	0.459	6.201	-7.043
236340.729	NaN	2.576	7.565	-4.750	1509.890	1498.901	1501.099	0.947	6.458	-6.412	0.459	6.201	-7.196
236341.705	NaN	2.565	7.576	-4.750	1510.623	1499.634	1501.832	0.885	6.489	-6.427	0.536	6.354	-7.196
236342.682	NaN	2.576	7.576	-4.739	1510.623	1499.634	1500.366	0.931	6.473	-6.611	0.612	6.201	-7.196
236343.658	NaN	2.576	7.587	-4.750	1509.890	1499.634	1501.099	0.931	6.458	-6.412	0.383	6.278	-7.196
236344.635	NaN	2.565	7.576	-4.739	1509.890	1499.634	1500.366	0.794	6.550	-6.321	0.459	6.278	-7.043
236345.612	NaN	2.565	7.576	-4.750	1511.355	1498.901	1500.366	0.870	6.458	-6.137	0.459	6.354	-7.043
236346.588	NaN	2.576	7.565	-4.728	1512.088	1500.366	1501.832	0.855	6.366	-6.305	0.383	6.278	-7.120
236347.565	NaN	2.576	7.576	-4.728	1510.623	1500.366	1501.099	0.641	6.275	-6.382	0.459	6.278	-7.043
236348.541	NaN	2.587	7.565	-4.728	1510.623	1500.366	1499.634	0.687	6.214	-6.397	0.536	6.201	-7.120
236349.518	NaN	2.576	7.565	-4.728	1510.623	1499.634	1499.634	0.779	6.198	-6.504	0.459	6.278	-6.967
236350.494	NaN	2.576	7.576	-4.739	1510.623	1500.366	1499.634	0.718	6.046	-6.595	0.306	6.201	-6.967
236351.471	NaN	2.576	7.576	-4.728	1510.623	1500.366	1500.366	0.611	5.893	-6.504	0.536	6.201	-7.043
236352.448	NaN	2.565	7.576	-4.728	1510.623	1500.366	1501.099	0.626	6.061	-6.321	0.383	6.201	-7.120
236353.424	NaN	2.554	7.576	-4.739	1511.355	1499.634	1501.099	0.763	6.351	-6.198	0.383	6.278	-6.967
236354.401	NaN	2.554	7.565	-4.728	1510.623	1498.901	1501.099	0.779	6.489	-6.015	0.459	6.201	-7.120
236355.377	NaN	2.565	7.576	-4.728	1511.355	1500.366	1500.366	0.870	6.595	-6.321	0.459	6.048	-7.273
236356.354	NaN	2.565	7.576	-4.728	1510.623	1500.366	1500.366	0.840	6.595	-6.458	0.306	6.124	-7.120
236357.330	NaN	2.576	7.576	-4.717	1511.355	1498.901	1500.366	0.809	6.412	-6.534	0.383	6.354	-7.043
236358.307	NaN	2.576	7.565	-4.717	1510.623	1500.366	1498.901	0.855	6.412	-6.565	0.536	6.278	-7.043
236359.283	NaN	2.576	7.554	-4.739	1509.158	1499.634	1499.634	0.763	6.412	-6.046	0.383	6.124	-7.043
236360.260	NaN	2.576	7.554	-4.739	1512.088	1499.634	1501.832	0.489	6.412	-5.863	0.459	6.278	-7.120
236361.237	NaN	2.576	7.554	-4.728	1510.623	1499.634	1501.832	0.351	6.519	-6.229	0.383	6.354	-7.043
236362.213	NaN	2.576	7.554	-4.728	1509.890	1499.634	1501.832	0.458	6.565	-6.458	0.459	6.201	-7.120
236363.190	NaN	2.565	7.565	-4.750	1509.890	1500.366	1499.634	0.718	6.595	-6.443	0.459	6.278	-7.120
236364.166	NaN	2.565	7.565	-4.750	1512.088	1500.366	1501.099	0.947	6.595	-6.336	0.536	6.201	-7.043
236365.143	NaN	2.554	7.565	-4.750	1510.623	1500.366	1498.901	0.885	6.580	-6.260	0.459	6.124	-7.120
236366.119	NaN	2.554	7.554	-4.739	1510.623	1500.366	1501.099	0.489	6.412	-6.244	0.383	6.201	-7.120
236367.096	NaN	2.565	7.554	-4.739	1510.623	1499.634	1501.099	0.412	6.382	-6.214	0.612	6.201	-7.043
236368.073	NaN	2.565	7.565	-4.750	1510.623	1500.366	1500.366	0.595	6.458	-6.336	0.459	6.278	-6.890
236369.049	NaN	2.576	7.565	-4.750	1510.623	1499.634	1501.099	0.733	6.351	-6.489	0.459	6.201	-7.043
236370.026	NaN	2.565	7.565	-4.750	1511.355	1499.634	1501.832	0.855	6.321	-6.550	0.612	6.201	-7.043
236371.002	NaN	2.576	7.565	-4.750	1510.623	1499.634	1500.366	0.962	6.351	-6.351	0.612	6.354	-6.967
236371.979	NaN	2.576	7.554	-4.761	1510.623	1499.634	1501.099	0.534	6.244	-6.427	0.536	6.201	-7.120
236372.955	NaN	2.565	7.565	-4.761	1510.623	1500.366	1501.099	0.443	6.168	-6.550	0.459	6.124	-7.120
236373.932	NaN	2.565	7.565	-4.761	1510.623	1500.366	1500.366	0.626	6.198	-6.351	0.536	6.201	-7.120
236374.908	NaN	2.576	7.565	-4.750	1510.623	1500.366	1499.634	0.702	6.260	-6.275	0.306	6.124	-6.967
236375.885	NaN	2.576	7.576	-4.761	1509.158	1499.634	1501.099	0.824	6.214	-6.351	0.383	6.278	-7.043
236376.862	NaN	2.576	7.565	-4.772	1511.355	1499.634	1500.366	0.809	6.397	-6.290	0.536	6.278	-7.043
236377.838	NaN	2.576	7.565	-4.750	1510.623	1499.634	1502.564	0.504	6.397	-6.458	0.383	6.201	-6.890
236378.815	NaN	2.565	7.565	-4.750	1511.355	1499.634	1501.099	0.336	6.290	-6.504	0.459	6.354	-7.120
236379.791	NaN	2.576	7.565	-4.761	1509.890	1499.634	1501.832	0.382	6.427	-6.443	0.459	6.278	-7.043
236380.768	NaN	2.565	7.565	-4.761	1511.355	1500.366	1500.366	0.947	6.443	-6.351	0.612	6.124	-7.120
236381.744	NaN	2.565	7.565	-4.761	1511.355	1498.901	1500.366	1.008	6.351	-6.305	0.536	6.124	-7.120
236382.721	NaN	2.565	7.576	-4.761	1512.088	1500.366	1500.366	0.626	6.443	-6.336	0.536	6.278	-7.273
236383.698	NaN	2.576	7.565	-4.761	1511.355	1500.366	1500.366	0.550	6.519	-6.489	0.459	6.278	-7.196
236384.674	NaN	2.576	7.565	-4.772	1511.355	1499.634	1501.099	0.748	6.565	-6.489	0.383	6.201	-7.120
236385.651	NaN	2.565	7.554	-4.772	1510.623	1499.634	1500.366	0.931	6.382	-6.305	0.536	6.201	-7.120
236386.627	NaN	2.576	7.565	-4.761	1512.088	1499.634	1501.832	1.176	6.382	-6.336	0.383	6.201	-6.967
236387.604	NaN	2.576	7.554	-4.750	1511.355	1499.634	1501.099	0.855	6.382	-6.351	0.459	6.201	-7.043
236388.580	NaN	2.576	7.554	-4.750	1511.355	1499.634	1501.832	0.504	6.427	-6.366	0.383	6.124	-7.120
236389.557	NaN	2.576	7.543	-4.739	1510.623	1499.634	1501.832	0.397	6.366	-6.504	0.306	6.278	-6.967
236390.533	NaN	2.554	7.554	-4.750	1511.355	1499.634	1500.366	0.626	6.427	-6.504	0.459	6.124	-7.120
236391.510	NaN	2.565	7.543	-4.739	1511.355	1499.634	1500.366	0.702	6.550	-6.290	0.306	6.278	-7.043
236392.487	NaN	2.565	7.554	-4.739	1510.623	1499.634	1501.099	0.595	6.534	-6.198	0.536	6.201	-6.967
236393.463	NaN	2.554	7.543	-4.728	1510.623	1500.366	1500.366	0.718	6.580	-6.290	0.383	6.201	-7.120
236394.440	NaN	2.554	7.554	-4.739	1510.623	1498.901	1501.832	0.595	6.489	-6.473	0.383	6.278	-7.120
236395.416	NaN	2.565	7.565	-4.750	1511.355	1499.634	1501.832	0.519	6.168	-6.626	0.383	6.278	-7.120
236396.393	NaN	2.565	7.565	-4.739	1510.623	1500.366	1500.366	0.534	6.183	-6.504	0.536	4.976	-7.043
236397.369	NaN	2.565	7.565	-4.750	1510.623	1500.366	1500.366	0.489	6.321	-6.290	0.383	6.201	-7.196
236398.346	NaN	2.565	7.576	-4.761	1511.355	1499.634	1501.099	0.534	6.290	-6.260	0.383	6.201	-7.120
236399.323	NaN	2.565	7.565	-4.772	1510.623	1500.366	1500.366	0.595	6.305	-6.412	0.459	6.124	-7.043
236400.299	NaN	2.565	7.565	-4.772	1509.890	1499.634	1500.366	0.687	6.336	-6.443	0.459	6.124	-7.120
236401.276	NaN	2.565	7.565	-4.750	1509.890	1498.901	1500.366	0.718	6.321	-6.351	0.306	6.124	-7.120
236402.252	NaN	2.576	7.565	-4.750	1510.623	1498.901	1501.832	0.687	6.290	-6.443	0.383	6.278	-7.196
236403.229	NaN	2.576	7.565	-4.750	1509.890	1500.366	1498.901	0.626	6.321	-6.565	0.459	6.201	-7.043
236404.205	NaN	2.565	7.565	-4.750	1511.355	1500.366	1500.366	0.718	6.214	-6.427	0.383	6.201	-7.043
236405.182	NaN	2.565	7.565	-4.750	1510.623	1500.366	1500.366	0.794	6.305	-6.519	0.459	6.124	-7.196
236406.158	NaN	2.565	7.565	-4.750	1509.890	1500.366	1500.366	0.687	6.397	-6.489	0.459	6.124	-7.043
236407.135	NaN	2.554	7.576	-4.761	1511.355	1499.634	1501.832	0.473	6.534	-6.366	0.612	6.278	-7.043
236408.112	NaN	2.554	7.576	-4.772	1512.088	1498.901	1501.099	0.534	6.504	-6.260	0.536	6.201	-7.120
236409.088	NaN	2.565	7.565	-4.761	1511.355	1500.366	1500.366	0.794	6.443	-6.198	0.459	6.201	-7.196
236410.065	NaN	2.565	7.565	-4.750	1510.623	1501.099	1500.366	0.779	6.336	-6.305	0.383	6.201	-6.967
236411.041	NaN	2.565	7.554	-4.761	1510.623	1498.901	1501.099	0.763	6.366	-6.321	0.536	6.201	-7.120
236412.018	NaN	2.565	7.554	-4.761	1510.623	1499.634	1501.832	0.702	6.290	-6.366	0.306	6.354	-7.120
236412.994	NaN	2.565	7.554	-4.772	1509.890	1500.366	1500.366	0.748	6.397	-6.229	0.459	6.278	-7.120
236413.971	NaN	2.576	7.565	-4.772	1511.355	1500.366	1500.366	0.595	6.489	-6.061	0.459	6.124	-7.043
236414.948	NaN	2.576	7.576	-4.761	1510.623	1500.366	1500.366	0.443	6.458	-6.198	0.459	6.354	-7.043
236415.924	NaN	2.565	7.576	-4.761	1509.890	1499.634	1501.099	0.458	6.290	-6.275	0.536	6.278	-7.043
236416.901	NaN	2.565	7.565	-4.750	1509.158	1499.634	1500.366	0.534	6.076	-6.321	0.536	6.201	-7.120
236417.877	NaN	2.565	7.565	-4.728	1512.088	1500.366	1501.832	0.702	6.305	-6.214	0.536	6.354	-7.043
236418.854	NaN	2.576	7.565	-4.717	1512.088	1500.366	1501.099	0.672	6.550	-6.275	0.383	6.201	-6.967
236419.830	NaN	2.565	7.565	-4.728	1510.623	1499.634	1501.099	0.748	6.595	-6.290	0.612	6.201	-7.196
236420.807	NaN	2.576	7.554	-4.728	1510.623	1499.634	1501.099	0.824	6.534	-6.290	0.536	6.431	-6.967
236421.783	NaN	2.565	7.565	-4.739	1510.623	1498.901	1501.099	0.595	6.550	-6.183	0.306	6.354	-7.120
236422.760	NaN	2.565	7.565	-4.739	1509.158	1498.168	1498.901	0.412	6.412	-6.366	0.306	6.201	-7.120
236423.737	NaN	2.576	7.565	-4.728	1512.088	1500.366	1499.634	0.580	6.336	-6.244	0.383	6.354	-7.043
236424.713	NaN	2.554	7.565	-4.739	1510.623	1499.634	1500.366	0.611	6.366	-6.275	0.536	6.354	-7.196
236425.690	NaN	2.554	7.576	-4.728	1509.890	1498.901	1501.832	0.656	6.473	-6.321	0.459	6.124	-7.273
236426.666	NaN	2.543	7.576	-4.728	1511.355	1500.366	1501.099	0.763	6.427	-6.489	0.459	6.354	-6.890
236427.643	NaN	2.543	7.565	-4.728	1509.158	1499.634	1501.099	0.641	6.534	-6.534	0.536	6.124	-7.120
236428.619	NaN	2.554	7.565	-4.739	1511.355	1498.901	1501.832	0.672	6.565	-6.550	0.383	7.349	-7.120
236429.596	NaN	2.554	7.554	-4.750	1510.623	1499.634	1500.366	0.870	6.534	-6.260	0.459	6.201	-7.043
236430.573	NaN	2.554	7.565	-4.750	1509.890	1498.901	1500.366	0.931	6.504	-6.198	0.459	6.124	-6.967
236431.549	NaN	2.565	7.576	-4.750	1510.623	1499.634	1501.099	0.748	6.519	-6.321	0.459	6.201	-7.043
236432.526	NaN	2.554	7.576	-4.772	1510.623	1499.634	1501.832	0.580	6.519	-6.214	0.459	6.124	-6.890
236433.502	3736843562.368	2.565	7.587	-4.761	1509.890	1498.901	1500.366	0.458	6.489	-6.198	0.306	6.278	-6.967
236434.479	NaN	2.554	7.576	-4.750	1510.623	1499.634	1501.099	0.611	6.458	-6.275	0.383	6.278	-6.890
236435.455	NaN	2.554	7.565	-4.761	1509.890	1498.901	1499.634	0.565	6.473	-6.351	0.459	6.201	-6.967
236436.432	NaN	2.576	7.554	-4.761	1509.158	1498.901	1500.366	0.672	6.321	-6.214	0.459	6.278	-7.120
236437.408	NaN	2.576	7.565	-4.750	1509.890	1500.366	1499.634	0.672	6.366	-6.229	0.383	6.124	-7.043
236438.385	NaN	2.565	7.565	-4.750	1510.623	1499.634	1501.099	0.687	6.473	-6.290	0.306	6.278	-7.120
236439.362	NaN	2.554	7.565	-4.761	1510.623	1498.901	1501.099	0.397	6.565	-6.229	0.459	6.278	-6.967
236440.338	NaN	2.565	7.565	-4.750	1511.355	1501.099	1500.366	0.305	6.534	-6.275	0.459	6.201	-7.043
236441.315	NaN	2.565	7.565	-4.761	1509.890	1499.634	1500.366	0.626	6.443	-6.412	0.459	6.201	-7.196
236442.291	NaN	2.576	7.565	-4.750	1509.890	1498.901	1499.634	0.489	6.397	-6.290	0.536	6.201	-7.120
236443.268	NaN	2.576	7.565	-4.750	1509.890	1499.634	1500.366	0.595	6.427	-6.427	0.306	6.278	-6.967
236444.244	NaN	2.576	7.554	-4.750	1511.355	1498.901	1501.099	0.626	6.458	-6.366	0.383	6.201	-7.120
236445.221	NaN	2.587	7.565	-4.739	1510.623	1499.634	1501.099	0.885	6.504	-6.321	0.536	6.354	-7.043
236446.198	NaN	2.576	7.554	-4.750	1510.623	1499.634	1500.366	0.718	6.565	-6.168	0.383	6.124	-6.967
236447.174	NaN	2.576	7.554	-4.728	1509.158	1498.901	1500.366	0.718	6.672	-6.321	0.459	6.278	-7.043
236448.151	NaN	2.587	7.565	-4.750	1511.355	1498.901	1500.366	0.534	6.290	-6.443	0.459	6.278	-7.120
236449.127	NaN	2.587	7.565	-4.750	1510.623	1498.901	1499.634	0.382	6.275	-6.443	0.536	6.201	-7.196
236450.104	NaN	2.587	7.565	-4.728	1507.692	1498.901	1500.366	0.382	6.458	-6.336	0.306	6.201	-7.120
236451.080	NaN	2.576	7.576	-4.739	1510.623	1499.634	1501.832	0.336	6.550	-6.443	0.536	6.278	-7.196
236452.057	NaN	2.576	7.576	-4.728	1509.890	1498.168	1499.634	0.321	6.366	-6.443	0.383	6.201	-7.196
236453.033	NaN	2.587	7.565	-4.728	1510.623	1499.634	1501.832	0.458	6.275	-6.382	0.536	6.278	-7.273
236454.010	NaN	2.576	7.565	-4.739	1510.623	1498.168	1501.099	0.443	6.366	-6.290	0.383	6.201	-7.043
236454.987	NaN	2.587	7.565	-4.739	1510.623	1498.901	1499.634	0.443	6.580	-6.229	0.459	6.201	-7.120
236455.963	NaN	2.576	7.554	-4.750	1509.890	1499.634	1501.099	0.443	6.595	-6.305	0.459	6.201	-7.043
236456.940	NaN	2.576	7.565	-4.761	1509.158	1499.634	1499.634	0.473	6.534	-6.260	0.612	6.278	-7.043
236457.916	NaN	2.576	7.554	-4.761	1511.355	1500.366	1500.366	0.382	6.550	-6.382	0.383	6.201	-7.120
236458.893	NaN	2.565	7.565	-4.772	1509.890	1499.634	1500.366	0.321	6.489	-6.458	0.459	6.278	-7.120
236459.869	NaN	2.565	7.576	-4.761	1510.623	1499.634	1501.832	0.382	6.504	-6.443	0.459	6.201	-7.043
236460.846	NaN	2.576	7.576	-4.761	1510.623	1498.901	1499.634	0.275	6.275	-6.321	0.459	6.278	-7.196
236461.823	NaN	2.576	7.565	-4.783	1509.158	1498.901	1501.099	0.107	6.122	-6.137	0.536	6.048	-7.120
236462.799	NaN	2.587	7.576	-4.772	1510.623	1501.832	1499.634	0.336	6.168	-6.198	0.612	6.201	-7.196
236463.776	NaN	2.576	7.565	-4.793	1510.623	1499.634	1500.366	0.489	6.382	-6.321	0.383	6.278	-7.120
236464.752	NaN	2.587	7.565	-4.783	1509.890	1498.901	1499.634	0.626	6.519	-6.550	0.459	6.124	-7.120
236465.729	NaN	2.576	7.554	-4.772	1509.890	1498.901	1500.366	0.595	6.427	-6.427	0.536	6.201	-7.043
236466.705	NaN	2.565	7.565	-4.761	1511.355	1499.634	1501.099	0.290	6.366	-6.229	0.536	6.048	-7.120
236467.682	NaN	2.576	7.565	-4.750	1510.623	1500.366	1500.366	0.168	6.366	-6.244	0.536	7.349	-7.043
236468.658	NaN	2.565	7.565	-4.750	1511.355	1500.366	1500.366	0.229	6.611	-6.336	0.383	6.201	-7.120
236469.635	NaN	2.576	7.576	-4.728	1509.890	1499.634	1501.099	0.183	6.595	-6.351	0.459	6.201	-7.043
236470.612	NaN	2.576	7.565	-4.739	1512.088	1499.634	1500.366	0.321	6.397	-6.275	0.536	6.278	-6.967
236471.588	NaN	2.576	7.576	-4.739	1510.623	1501.099	1500.366	0.656	6.397	-6.168	0.383	6.278	-7.196
236472.565	NaN	2.576	7.587	-4.750	1509.890	1501.099	1500.366	0.504	6.427	-6.046	0.536	6.048	-7.196
236473.541	NaN	2.565	7.587	-4.750	1510.623	1500.366	1500.366	0.412	6.336	-5.954	0.383	6.278	-6.967
236474.518	NaN	2.576	7.587	-4.750	1510.623	1498.901	1501.832	0.443	6.366	-6.122	0.459	6.201	-7.120
236475.494	NaN	2.565	7.565	-4.750	1512.821	1499.634	1501.832	0.427	6.473	-6.336	0.459	6.354	-7.043
236476.471	NaN	2.565	7.565	-4.750	1510.623	1500.366	1500.366	0.489	6.626	-6.504	0.459	6.124	-7.196
236477.448	NaN	2.565	7.565	-4.761	1510.623	1499.634	1500.366	0.397	6.718	-6.473	0.383	6.201	-6.890
236478.424	NaN	2.565	7.587	-4.750	1510.623	1499.634	1501.099	0.595	6.565	-6.290	0.536	6.201	-6.967
236479.401	NaN	2.554	7.576	-4.761	1511.355	1499.634	1501.099	0.489	6.473	-6.198	0.383	6.278	-7.043
236480.377	NaN	2.565	7.576	-4.761	1511.355	1500.366	1500.366	0.565	6.458	-6.168	0.383	6.278	-6.967
236481.354	NaN	2.565	7.576	-4.761	1511.355	1499.634	1501.099	0.504	6.351	-6.412	0.536	6.278	-7.043
236482.330	NaN	2.565	7.565	-4.772	1510.623	1500.366	1498.901	0.137	6.382	-6.305	0.459	6.354	-7.043
236483.307	NaN	2.565	7.554	-4.772	1509.890	1499.634	1501.099	0.366	6.427	-6.183	0.536	6.278	-6.967
236484.283	NaN	2.554	7.554	-4.761	1510.623	1499.634	1500.366	0.504	6.473	-6.122	0.459	6.201	-6.967
236485.260	NaN	2.565	7.565	-4.750	1511.355	1499.634	1500.366	0.519	6.565	-6.260	0.536	6.124	-7.043
236486.237	NaN	2.565	7.554	-4.739	1511.355	1499.634	1500.366	0.672	6.489	-6.397	0.383	6.201	-7.196
236487.213	NaN	2.565	7.565	-4.739	1509.890	1499.634	1500.366	0.473	6.351	-6.397	0.459	6.278	-7.273
236488.190	NaN	2.565	7.554	-4.750	1509.158	1500.366	1500.366	0.794	6.366	-6.168	0.383	6.278	-6.890
236489.166	NaN	2.576	7.554	-4.750	1511.355	1500.366	1501.099	0.550	6.458	-6.107	0.459	6.124	-7.043
236490.143	NaN	2.565	7.565	-4.750	1509.890	1500.366	1501.099	0.198	6.565	-6.321	0.383	6.201	-6.967
236491.119	NaN	2.554	7.565	-4.761	1511.355	1499.634	1501.099	0.122	6.565	-6.489	0.536	6.201	-7.196
236492.096	NaN	2.554	7.565	-4.772	1510.623	1499.634	1499.634	0.275	6.580	-6.473	0.459	6.354	-7.043
236493.073	NaN	2.565	7.565	-4.772	1509.158	1499.634	1500.366	0.473	6.672	-6.229	0.459	6.278	-7.043
236494.049	NaN	2.587	7.576	-4.761	1510.623	1500.366	1500.366	0.397	6.580	-6.244	0.459	6.354	-7.120
236495.026	NaN	2.576	7.576	-4.750	1511.355	1499.634	1500.366	0.336	6.443	-6.336	0.459	6.278	-6.890
236496.002	NaN	2.576	7.565	-4.761	1510.623	1499.634	1500.366	0.534	6.504	-6.198	0.459	6.354	-6.890
236496.979	NaN	2.576	7.554	-4.761	1508.425	1498.901	1500.366	0.504	6.519	-6.137	0.383	6.201	-6.967
236497.955	NaN	2.576	7.565	-4.772	1512.088	1499.634	1501.099	0.137	6.397	-6.214	0.459	6.201	-7.273
236498.932	NaN	2.576	7.565	-4.761	1511.355	1498.901	1500.366	0.092	6.489	-6.351	0.383	6.201	-7.196
236499.908	NaN	2.565	7.576	-4.761	1509.890	1499.634	1501.832	0.351	6.672	-6.336	0.459	6.124	-6.967
236500.885	NaN	2.554	7.576	-4.750	1509.890	1499.634	1501.832	0.626	6.611	-6.458	0.459	6.201	-7.043
236501.862	NaN	2.543	7.565	-4.750	1511.355	1498.901	1500.366	0.412	6.504	-6.366	0.306	6.278	-7.196
236502.838	NaN	2.554	7.565	-4.728	1509.890	1500.366	1500.366	0.260	6.519	-6.412	0.459	6.201	-7.120
236503.815	NaN	2.554	7.565	-4.750	1511.355	1500.366	1499.634	0.366	6.489	-6.321	0.383	6.201	-7.043
236504.791	NaN	2.565	7.554	-4.750	1509.890	1501.099	1500.366	0.351	6.366	-6.260	0.306	6.048	-6.890
236505.768	NaN	2.565	7.565	-4.750	1510.623	1499.634	1501.099	0.168	6.366	-6.321	0.459	6.124	-7.196
236506.744	NaN	2.565	7.565	-4.761	1511.355	1499.634	1501.099	0.366	6.382	-6.366	0.383	6.201	-7.196
236507.721	NaN	2.565	7.576	-4.750	1511.355	1499.634	1501.832	0.504	6.427	-6.305	0.536	6.278	-7.120
236508.698	NaN	2.565	7.565	-4.750	1511.355	1499.634	1500.366	0.412	6.458	-6.336	0.459	6.201	-7.273
236509.674	NaN	2.565	7.565	-4.750	1509.890	1499.634	1500.366	0.427	6.550	-6.427	0.536	6.201	-7.196
236510.651	NaN	2.576	7.554	-4.761	1509.890	1499.634	1501.099	0.275	6.504	-6.504	0.459	6.201	-7.120
236511.627	NaN	2.576	7.565	-4.750	1510.623	1499.634	1501.099	0.015	6.595	-6.534	0.459	6.201	-7.120
236512.604	NaN	2.587	7.576	-4.739	1509.890	1499.634	1501.099	0.275	6.641	-6.504	0.536	6.278	-7.043
236513.580	NaN	2.576	7.576	-4.750	1511.355	1499.634	1501.099	0.733	6.565	-6.244	0.459	7.349	-7.120
236514.557	NaN	2.576	7.576	-4.750	1509.890	1498.901	1501.099	0.672	6.382	-6.092	0.459	6.124	-7.196
236515.533	NaN	2.576	7.576	-4.750	1510.623	1499.634	1501.099	0.351	6.260	-6.275	0.383	6.201	-6.967
236516.510	NaN	2.576	7.565	-4.750	1510.623	1500.366	1499.634	0.260	6.458	-6.519	0.459	6.201	-6.967
236517.487	NaN	2.576	7.554	-4.761	1509.890	1498.901	1499.634	0.260	6.687	-6.580	0.536	6.201	-7.196
236518.463	NaN	2.587	7.543	-4.761	1510.623	1499.634	1501.832	0.229	6.672	-6.351	0.459	6.048	-7.043
236519.440	NaN	2.576	7.565	-4.783	1510.623	1498.901	1501.099	0.397	6.672	-6.153	0.459	6.278	-6.967
236520.416	NaN	2.587	7.565	-4.772	1510.623	1499.634	1501.099	0.321	6.550	-6.076	0.536	6.124	-6.890
236521.393	NaN	2.576	7.565	-4.761	1510.623	1499.634	1501.099	0.290	6.351	-6.107	0.536	6.278	-7.120
236522.369	NaN	2.587	7.565	-4.761	1509.158	1500.366	1500.366	0.519	6.366	-6.229	0.459	6.048	-7.043
236523.346	NaN	2.587	7.565	-4.750	1510.623	1500.366	1499.634	0.580	6.427	-6.351	0.459	6.201	-7.043
236524.323	NaN	2.576	7.565	-4.761	1511.355	1499.634	1500.366	0.260	6.473	-6.473	0.383	6.124	-6.890
236525.299	NaN	2.576	7.576	-4.761	1510.623	1500.366	1501.099	0.168	6.427	-6.275	0.383	6.124	-6.890
236526.276	NaN	2.554	7.565	-4.750	1510.623	1500.366	1499.634	0.107	6.473	-6.290	0.306	6.201	-7.043
236527.252	NaN	2.543	7.554	-4.750	1510.623	1499.634	1501.099	0.183	6.611	-6.366	0.306	6.278	-7.196
236528.229	NaN	2.543	7.554	-4.750	1511.355	1498.901	1501.832	0.336	6.626	-6.351	0.536	6.278	-7.120
236529.205	NaN	2.543	7.554	-4.750	1511.355	1499.634	1501.832	0.427	6.458	-6.412	0.306	6.124	-7.120
236530.182	NaN	2.554	7.554	-4.750	1509.890	1498.901	1501.099	0.351	6.382	-6.336	0.536	6.278	-7.043
236531.158	NaN	2.554	7.565	-4.750	1509.890	1498.168	1499.634	0.046	6.382	-6.366	0.459	6.201	-7.349
236532.135	NaN	2.576	7.565	-4.739	1510.623	1499.634	1500.366	0.061	6.519	-6.229	0.459	6.201	-6.967
236533.112	NaN	2.554	7.554	-4.739	1510.623	1499.634	1500.366	0.168	6.595	-6.458	0.536	6.048	-7.043
236534.088	NaN	2.565	7.554	-4.739	1512.821	1501.099	1500.366	0.275	6.504	-6.458	0.383	6.201	-7.120
236535.065	NaN	2.565	7.565	-4.739	1510.623	1500.366	1501.099	0.351	6.550	-6.351	0.306	6.124	-7.043
236536.041	NaN	2.565	7.565	-4.739	1510.623	1500.366	1500.366	0.305	6.611	-6.183	0.383	6.278	-7.196
236537.018	NaN	2.565	7.565	-4.739	1509.890	1499.634	1500.366	0.427	6.473	-6.244	0.383	6.201	-7.120
236537.994	NaN	2.576	7.565	-4.750	1511.355	1500.366	1500.366	0.382	6.336	-6.473	0.536	6.201	-7.043
236538.971	NaN	2.565	7.565	-4.739	1511.355	1499.634	1502.564	0.244	6.305	-6.550	0.459	6.354	-7.120
236539.948	NaN	2.565	7.554	-4.750	1511.355	1500.366	1498.901	0.305	6.336	-6.473	0.383	6.278	-7.120
236540.924	NaN	2.554	7.554	-4.750	1510.623	1498.901	1500.366	0.275	6.336	-6.168	0.612	6.431	-7.120
236541.901	NaN	2.565	7.565	-4.750	1509.890	1499.634	1501.099	0.183	6.397	-6.015	0.536	6.278	-7.196
236542.877	NaN	2.554	7.565	-4.750	1510.623	1499.634	1501.099	0.092	6.443	-6.229	0.383	6.201	-7.043
236543.854	NaN	2.565	7.576	-4.739	1509.890	1498.901	1501.832	0.061	6.473	-6.366	0.459	6.278	-7.120
236544.830	NaN	2.565	7.565	-4.717	1511.355	1499.634	1501.832	0.137	6.504	-6.321	0.536	6.278	-7.043
236545.807	NaN	2.565	7.565	-4.739	1511.355	1500.366	1501.099	0.122	6.397	-6.321	0.536	6.278	-6.967
236546.783	NaN	2.565	7.565	-4.739	1511.355	1500.366	1499.634	0.092	6.366	-6.351	0.459	6.278	-7.043
236547.760	NaN	2.576	7.554	-4.728	1510.623	1500.366	1500.366	0.351	6.397	-6.275	0.459	6.278	-6.967
236548.737	NaN	2.565	7.554	-4.739	1509.158	1498.901	1500.366	0.427	6.504	-6.260	0.536	6.124	-7.120
236549.713	NaN	2.576	7.554	-4.739	1508.425	1499.634	1499.634	0.198	6.412	-6.443	0.383	6.201	-7.196
236550.690	NaN	2.576	7.565	-4.739	1509.890	1499.634	1501.099	0.214	6.473	-6.565	0.536	6.201	-7.196
236551.666	NaN	2.576	7.565	-4.750	1509.890	1498.901	1498.901	0.229	6.611	-6.458	0.383	6.124	-6.967
236552.643	3736843562.511	2.576	7.565	-4.761	1509.890	1498.901	1499.634	0.458	6.580	-6.260	0.612	6.354	-6.967
236553.619	NaN	2.587	7.565	-4.739	1509.890	1500.366	1500.366	0.153	6.489	-6.214	0.383	6.354	-7.120
236554.596	NaN	2.587	7.565	-4.750	1509.890	1500.366	1501.099	-0.076	6.611	-6.305	0.383	6.201	-7.043
236555.573	NaN	2.576	7.554	-4.761	1509.158	1499.634	1500.366	0.092	6.565	-6.214	0.383	6.278	-7.196
236556.549	NaN	2.587	7.565	-4.750	1509.890	1500.366	1498.901	0.458	6.427	-6.076	0.383	6.201	-7.043
236557.526	NaN	2.565	7.554	-4.772	1509.158	1499.634	1502.564	0.336	6.443	-6.092	0.459	6.201	-7.120
236558.502	NaN	2.565	7.554	-4.772	1510.623	1498.901	1499.634	0.427	6.519	-6.351	0.383	6.201	-7.120
236559.479	NaN	2.565	7.554	-4.761	1510.623	1499.634	1500.366	0.336	6.550	-6.397	0.459	6.201	-7.120
236560.455	NaN	2.565	7.554	-4.750	1509.890	1499.634	1500.366	0.351	6.473	-6.489	0.383	6.124	-7.120
236561.432	NaN	2.565	7.554	-4.739	1509.890	1499.634	1501.832	0.229	6.351	-6.550	0.383	6.278	-7.043
236562.408	NaN	2.565	7.554	-4.739	1510.623	1499.634	1500.366	0.244	6.443	-6.458	0.536	6.278	-7.120
236563.385	NaN	2.576	7.554	-4.750	1509.158	1499.634	1500.366	0.275	6.275	-6.290	0.459	6.201	-7.043
236564.362	NaN	2.576	7.565	-4.750	1511.355	1499.634	1501.099	0.168	6.183	-6.214	0.459	6.354	-7.043
236565.338	NaN	2.587	7.565	-4.750	1510.623	1500.366	1500.366	0.305	6.351	-6.260	0.459	6.278	-7.120
236566.315	NaN	2.576	7.565	-4.750	1510.623	1498.901	1499.634	0.473	6.550	-6.366	0.459	6.278	-7.043
236567.291	NaN	2.576	7.565	-4.761	1511.355	1499.634	1501.832	0.412	6.794	-6.382	0.459	6.201	-7.196
236568.268	NaN	2.587	7.565	-4.761	1510.623	1499.634	1501.099	0.366	6.626	-6.214	0.383	6.124	-7.043
236569.244	NaN	2.576	7.576	-4.772	1511.355	1499.634	1500.366	-0.046	6.458	-6.336	0.536	6.201	-6.967
236570.221	NaN	2.565	7.576	-4.750	1510.623	1500.366	1500.366	0.122	6.412	-6.427	0.536	6.278	-7.120
236571.198	NaN	2.554	7.565	-4.739	1510.623	1500.366	1498.901	0.321	6.260	-6.321	0.383	6.201	-6.967
236572.174	NaN	2.554	7.565	-4.739	1510.623	1499.634	1501.099	0.275	6.214	-6.260	0.459	6.278	-7.120
236573.151	NaN	2.554	7.565	-4.761	1509.890	1499.634	1502.564	0.260	6.473	-6.397	0.536	6.278	-7.120
236574.127	NaN	2.565	7.576	-4.761	1512.088	1500.366	1499.634	0.321	6.656	-6.519	0.383	6.201	-7.043
236575.104	NaN	2.565	7.565	-4.750	1511.355	1500.366	1499.634	0.305	6.611	-6.473	0.459	6.201	-6.967
236576.080	NaN	2.576	7.565	-4.739	1511.355	1499.634	1501.099	0.153	6.443	-6.351	0.459	6.278	-7.120
236577.057	NaN	2.565	7.554	-4.739	1510.623	1500.366	1499.634	0.107	6.458	-6.305	0.459	6.278	-7.120
236578.033	NaN	2.565	7.554	-4.739	1510.623	1500.366	1498.901	-0.015	6.427	-6.260	0.383	6.201	-6.967
236579.010	NaN	2.565	7.554	-4.728	1509.158	1499.634	1500.366	-0.122	6.290	-6.198	0.383	6.278	-7.120
236579.987	NaN	2.587	7.576	-4.728	1509.890	1500.366	1500.366	0.061	6.260	-6.153	0.536	6.201	-7.196
236580.963	NaN	2.587	7.565	-4.739	1510.623	1499.634	1500.366	0.198	6.244	-6.290	0.306	6.278	-7.043
236581.940	NaN	2.587	7.554	-4.750	1509.890	1498.901	1499.634	0.153	6.473	-6.214	0.459	6.201	-7.120
236582.916	NaN	2.598	7.554	-4.750	1510.623	1500.366	1500.366	-0.076	6.443	-6.305	0.536	6.278	-7.043
236583.893	NaN	2.587	7.554	-4.761	1511.355	1499.634	1500.366	-0.046	6.336	-6.412	0.612	6.278	-7.043
236584.869	NaN	2.587	7.554	-4.761	1510.623	1498.901	1499.634	0.168	6.290	-6.351	0.383	6.201	-7.120
236585.846	NaN	2.587	7.554	-4.761	1510.623	1499.634	1501.099	0.351	6.260	-6.473	0.459	6.124	-6.967
236586.823	NaN	2.587	7.554	-4.772	1509.890	1498.901	1500.366	0.443	6.443	-6.489	0.536	6.201	-7.196
236587.799	NaN	2.587	7.565	-4.750	1510.623	1500.366	1500.366	0.046	6.504	-6.351	0.459	6.431	-7.120
236588.776	NaN	2.565	7.565	-4.761	1510.623	1498.901	1502.564	-0.168	6.366	-6.336	0.383	5.971	-7.043
236589.752	NaN	2.576	7.554	-4.772	1509.158	1499.634	1501.099	-0.198	6.550	-6.443	0.459	6.201	-7.043
236590.729	NaN	2.576	7.554	-4.761	1509.890	1499.634	1500.366	0.031	6.473	-6.427	0.536	6.201	-7.043
236591.705	NaN	2.576	7.565	-4.750	1509.890	1498.901	1499.634	0.397	6.504	-6.489	0.459	6.124	-7.043
236592.682	NaN	2.587	7.565	-4.739	1509.890	1499.634	1501.099	0.290	6.260	-6.351	0.383	6.278	-6.890
236593.658	NaN	2.576	7.554	-4.761	1510.623	1499.634	1501.099	0.015	6.351	-6.305	0.536	6.201	-7.043
236594.635	NaN	2.587	7.565	-4.750	1509.890	1499.634	1501.099	-0.122	6.427	-6.336	0.459	6.201	-7.043
236595.612	NaN	2.576	7.565	-4.761	1510.623	1499.634	1500.366	-0.015	6.351	-6.336	0.459	6.278	-7.273
236596.588	NaN	2.576	7.565	-4.739	1511.355	1499.634	1501.832	0.000	6.382	-6.351	0.459	6.278	-7.043
236597.565	NaN	2.576	7.565	-4.739	1511.355	1499.634	1501.832	-0.031	6.366	-6.443	0.383	6.124	-7.043
236598.541	NaN	2.576	7.565	-4.750	1511.355	1499.634	1501.099	-0.046	6.321	-6.504	0.383	6.278	-7.043
236599.518	NaN	2.565	7.554	-4.739	1511.355	1498.168	1499.634	-0.122	6.351	-6.397	0.459	6.278	-7.120
236600.494	NaN	2.565	7.554	-4.750	1511.355	1499.634	1500.366	-0.076	6.427	-6.275	0.459	6.201	-7.120
236601.471	NaN	2.587	7.565	-4.739	1510.623	1500.366	1499.634	-0.122	6.534	-6.351	0.383	6.278	-7.043
236602.448	NaN	2.587	7.554	-4.739	1509.890	1499.634	1501.099	0.000	6.489	-6.473	0.536	6.201	-7.120
236603.424	NaN	2.576	7.554	-4.728	1510.623	1499.634	1501.832	0.244	6.427	-6.534	0.459	6.201	-7.043
236604.401	NaN	2.576	7.543	-4.739	1511.355	1499.634	1501.832	0.229	6.351	-6.489	0.536	6.048	-7.120
236605.377	NaN	2.587	7.565	-4.728	1512.088	1500.366	1500.366	0.153	6.336	-6.275	0.536	6.201	-7.120
236606.354	NaN	2.576	7.565	-4.739	1511.355	1499.634	1500.366	-0.046	6.336	-6.153	0.459	6.124	-7.120
236607.330	NaN	2.576	7.565	-4.739	1509.890	1499.634	1501.099	-0.046	6.611	-6.290	0.459	6.278	-6.967
236608.307	NaN	2.576	7.565	-4.739	1510.623	1499.634	1501.099	-0.168	6.519	-6.397	0.459	6.278	-7.273
236609.283	NaN	2.576	7.565	-4.750	1511.355	1500.366	1499.634	-0.046	6.427	-6.489	0.383	6.278	-7.196
236610.260	NaN	2.587	7.565	-4.739	1511.355	1499.634	1501.099	0.122	6.290	-6.458	0.459	6.201	-7.120
236611.237	NaN	2.587	7.576	-4.750	1510.623	1498.901	1500.366	-0.031	6.305	-6.366	0.383	6.278	-7.043
236612.213	NaN	2.587	7.565	-4.750	1510.623	1498.901	1501.099	-0.107	6.473	-6.305	0.459	6.354	-7.120
236613.190	NaN	2.587	7.554	-4.739	1510.623	1500.366	1499.634	0.061	6.366	-6.336	0.383	6.201	-7.196
236614.166	NaN	2.598	7.554	-4.739	1511.355	1500.366	1500.366	0.183	6.412	-6.397	0.459	6.201	-6.967
236615.143	NaN	2.587	7.554	-4.728	1510.623	1499.634	1501.099	0.168	6.489	-6.260	0.459	6.124	-6.967
236616.119	NaN	2.576	7.554	-4.728	1510.623	1499.634	1501.099	0.168	6.427	-6.229	0.459	6.201	-7.120
236617.096	NaN	2.565	7.565	-4.728	1510.623	1499.634	1501.099	0.153	6.489	-6.550	0.459	6.278	-7.043
236618.073	NaN	2.565	7.565	-4.739	1510.623	1499.634	1501.099	0.107	6.550	-6.626	0.306	6.124	-7.043
236619.049	NaN	2.565	7.554	-4.750	1509.158	1499.634	1501.099	0.229	6.321	-6.443	0.536	6.201	-7.120
236620.026	NaN	2.576	7.565	-4.728	1510.623	1500.366	1500.366	0.046	6.244	-6.260	0.536	6.201	-7.043
236621.002	NaN	2.576	7.576	-4.739	1511.355	1499.634	1501.832	-0.076	6.351	-6.351	0.536	6.048	-7.043
236621.979	NaN	2.565	7.565	-4.750	1510.623	1499.634	1501.099	0.076	6.443	-6.382	0.536	6.124	-7.120
236622.955	NaN	2.576	7.565	-4.761	1510.623	1499.634	1500.366	0.153	6.595	-6.412	0.536	6.201	-7.120
236623.932	NaN	2.576	7.565	-4.750	1511.355	1500.366	1501.099	-0.076	6.504	-6.275	0.536	5.053	-7.120
236624.908	NaN	2.565	7.565	-4.761	1509.158	1500.366	1500.366	-0.076	6.412	-6.260	0.383	6.278	-7.043
236625.885	NaN	2.576	7.554	-4.739	1510.623	1499.634	1501.099	0.000	6.534	-6.504	0.383	6.201	-7.273
236626.862	NaN	2.565	7.565	-4.750	1510.623	1498.901	1501.832	0.015	6.534	-6.458	0.383	6.278	-7.120
236627.838	NaN	2.587	7.576	-4.728	1510.623	1500.366	1500.366	-0.092	6.489	-6.458	0.612	6.124	-7.043
236628.815	NaN	2.587	7.576	-4.728	1510.623	1499.634	1499.634	-0.015	6.580	-6.275	0.459	6.278	-7.120
236629.791	NaN	2.587	7.576	-4.739	1509.890	1498.901	1500.366	0.122	6.427	-6.214	0.459	6.124	-7.120
236630.768	NaN	2.587	7.576	-4.739	1510.623	1500.366	1500.366	0.168	6.366	-6.443	0.612	6.124	-7.043
236631.744	NaN	2.576	7.587	-4.739	1510.623	1500.366	1499.634	0.305	6.580	-6.504	0.459	6.124	-7.043
236632.721	NaN	2.576	7.576	-4.750	1511.355	1500.366	1499.634	0.336	6.366	-6.397	0.459	6.278	-7.120
236633.698	NaN	2.565	7.576	-4.761	1510.623	1499.634	1500.366	0.137	6.260	-6.168	0.536	6.201	-7.120
236634.674	NaN	2.565	7.576	-4.761	1509.158	1498.901	1498.168	0.092	6.519	-6.305	0.459	6.124	-6.967
236635.651	NaN	2.576	7.565	-4.772	1510.623	1499.634	1501.099	-0.015	6.550	-6.305	0.383	6.278	-7.196
236636.627	NaN	2.576	7.576	-4.761	1509.158	1499.634	1501.832	-0.153	6.550	-6.336	0.536	6.201	-6.967
236637.604	NaN	2.587	7.576	-4.761	1510.623	1499.634	1500.366	-0.153	6.550	-6.382	0.536	6.124	-6.890
236638.580	NaN	2.565	7.576	-4.750	1508.425	1499.634	1501.099	0.000	6.443	-6.382	0.536	6.278	-7.120
236639.557	NaN	2.554	7.576	-4.761	1509.890	1499.634	1500.366	0.000	6.397	-6.473	0.612	6.124	-7.043
236640.533	NaN	2.554	7.565	-4.750	1511.355	1499.634	1501.099	0.092	6.473	-6.382	0.536	6.278	-7.196
236641.510	NaN	2.565	7.565	-4.728	1511.355	1499.634	1501.099	0.000	6.504	-6.336	0.459	6.201	-7.043
236642.487	NaN	2.576	7.565	-4.728	1510.623	1500.366	1499.634	-0.229	6.382	-6.229	0.459	6.201	-7.120
236643.463	NaN	2.565	7.565	-4.750	1509.890	1499.634	1500.366	-0.153	6.489	-6.473	0.536	6.201	-7.273
236644.440	NaN	2.565	7.565	-4.739	1511.355	1500.366	1500.366	0.076	6.473	-6.351	0.383	6.278	-7.196
236645.416	NaN	2.587	7.576	-4.728	1510.623	1499.634	1500.366	-0.076	6.443	-6.244	0.459	6.201	-7.120
236646.393	NaN	2.587	7.576	-4.728	1509.890	1500.366	1500.366	-0.046	6.412	-6.305	0.536	6.278	-7.043
236647.369	NaN	2.576	7.565	-4.739	1510.623	1500.366	1500.366	0.061	6.305	-6.351	0.306	6.278	-7.043
236648.346	NaN	2.576	7.587	-4.761	1510.623	1498.901	1499.634	0.183	6.366	-6.137	0.459	6.201	-6.967
236649.323	NaN	2.565	7.576	-4.761	1511.355	1499.634	1501.099	0.076	6.321	-6.031	0.459	6.124	-7.196
236662.994	NaN	2.576	7.565	-4.750	1511.355	1499.634	1501.099	-0.122	6.458	-6.412	0.383	6.278	-7.120
236663.971	NaN	2.576	7.565	-4.750	1511.355	1500.366	1499.634	-0.046	6.382	-6.275	0.383	6.278	-7.120
236664.948	NaN	2.565	7.554	-4.761	1510.623	1499.634	1499.634	0.046	6.244	-6.260	0.230	6.201	-7.120
236665.924	NaN	2.565	7.554	-4.750	1509.158	1499.634	1501.099	-0.015	6.168	-6.534	0.459	6.124	-6.890
236666.901	NaN	2.565	7.554	-4.761	1510.623	1498.901	1501.099	-0.290	6.260	-6.595	0.536	6.354	-7.196
236667.877	NaN	2.565	7.554	-4.772	1509.890	1498.901	1500.366	-0.214	6.275	-6.565	0.306	6.201	-7.043
236668.854	NaN	2.576	7.565	-4.761	1510.623	1500.366	1500.366	0.031	6.244	-6.458	0.459	6.201	-7.120
236669.830	NaN	2.576	7.554	-4.761	1509.890	1499.634	1499.634	0.214	6.275	-6.489	0.459	6.278	-7.120
236670.807	NaN	2.565	7.554	-4.750	1509.890	1498.901	1499.634	0.122	6.214	-6.397	0.459	6.278	-7.120
236671.783	NaN	2.565	7.543	-4.761	1511.355	1500.366	1500.366	-0.046	6.229	-6.321	0.536	6.278	-7.043
236672.760	NaN	2.565	7.543	-4.750	1511.355	1499.634	1501.099	-0.046	6.305	-6.351	0.536	6.201	-7.043
236673.737	NaN	2.554	7.554	-4.761	1510.623	1500.366	1499.634	-0.031	6.351	-6.351	0.383	6.278	-7.043
236674.713	NaN	2.554	7.554	-4.750	1509.890	1498.901	1499.634	0.076	6.260	-6.458	0.612	6.278	-7.120
236675.690	NaN	2.554	7.554	-4.750	1510.623	1499.634	1503.297	0.122	6.168	-6.550	0.459	6.201	-7.196
236676.666	NaN	2.565	7.554	-4.750	1511.355	1499.634	1501.099	-0.015	6.244	-6.397	0.306	6.354	-7.043
236677.643	NaN	2.565	7.565	-4.739	1511.355	1499.634	1501.099	-0.229	6.275	-6.275	0.536	6.278	-6.813
236678.619	NaN	2.554	7.565	-4.761	1510.623	1499.634	1501.099	-0.137	6.336	-6.489	0.536	6.354	-7.196
236679.596	NaN	2.565	7.576	-4.761	1510.623	1498.901	1501.099	0.000	6.290	-6.534	0.459	6.278	-7.273
236680.573	NaN	2.554	7.576	-4.772	1511.355	1500.366	1500.366	0.031	6.366	-6.489	0.459	6.278	-7.120
236681.549	NaN	2.565	7.576	-4.761	1510.623	1501.099	1500.366	-0.229	6.443	-6.458	0.459	6.278	-7.196
236682.526	NaN	2.554	7.554	-4.772	1511.355	1500.366	1500.366	-0.321	6.443	-6.290	0.459	6.124	-7.043
236683.502	NaN	2.543	7.554	-4.772	1510.623	1499.634	1501.099	-0.244	6.397	-6.412	0.383	6.201	-7.196
236684.479	NaN	2.554	7.554	-4.772	1510.623	1500.366	1500.366	-0.336	6.336	-6.702	0.459	6.278	-6.890
236685.455	NaN	2.565	7.565	-4.783	1511.355	1501.099	1500.366	0.000	6.214	-6.519	0.536	6.124	-7.043
236686.432	NaN	2.565	7.565	-4.783	1510.623	1499.634	1500.366	0.031	6.229	-6.443	0.459	6.278	-7.196
236687.408	NaN	2.565	7.554	-4.772	1509.890	1500.366	1501.099	0.031	6.244	-6.504	0.536	6.354	-7.120
236688.385	NaN	2.576	7.554	-4.772	1510.623	1500.366	1500.366	0.061	6.305	-6.565	0.383	6.201	-7.043
236689.362	NaN	2.576	7.554	-4.772	1510.623	1498.901	1500.366	-0.031	6.244	-6.565	0.383	6.278	-7.273
236690.338	NaN	2.587	7.565	-4.750	1511.355	1500.366	1501.099	-0.183	6.290	-6.565	0.383	6.201	-6.967
236691.315	NaN	2.576	7.565	-4.739	1511.355	1499.634	1500.366	-0.260	6.305	-6.580	0.536	6.201	-6.967
236692.291	NaN	2.576	7.565	-4.739	1510.623	1500.366	1499.634	-0.122	6.244	-6.382	0.536	6.278	-7.043
236693.268	NaN	2.587	7.565	-4.739	1510.623	1500.366	1501.099	-0.061	6.244	-6.366	0.536	6.201	-7.120
236694.244	NaN	2.576	7.576	-4.761	1511.355	1500.366	1501.099	-0.092	6.122	-6.473	0.536	6.278	-7.273
236695.221	NaN	2.587	7.576	-4.750	1511.355	1501.099	1502.564	-0.046	6.214	-6.489	0.383	6.354	-7.120
236696.198	NaN	2.587	7.576	-4.739	1510.623	1500.366	1500.366	-0.092	6.382	-6.412	0.306	6.278	-6.967
236697.174	NaN	2.587	7.587	-4.750	1509.890	1499.634	1501.099	-0.260	6.397	-6.504	0.459	6.278	-7.196
236698.151	NaN	2.576	7.576	-4.750	1509.890	1499.634	1501.099	-0.229	6.260	-6.565	0.459	6.124	-7.120
236699.127	NaN	2.565	7.576	-4.728	1511.355	1501.099	1501.099	-0.244	6.092	-6.656	0.459	6.201	-7.196
236700.104	NaN	2.565	7.565	-4.728	1511.355	1500.366	1501.099	-0.183	6.198	-6.641	0.612	6.354	-7.120
236701.080	NaN	2.576	7.554	-4.728	1509.158	1500.366	1501.099	-0.290	6.336	-6.504	0.459	6.278	-7.043
236702.057	NaN	2.576	7.554	-4.728	1510.623	1499.634	1501.099	-0.244	6.427	-6.198	0.459	6.201	-7.273
236703.033	NaN	2.576	7.554	-4.750	1512.088	1499.634	1501.099	-0.275	6.382	-6.260	0.459	6.124	-7.196
236704.010	NaN	2.587	7.554	-4.750	1511.355	1500.366	1501.099	-0.397	6.305	-6.290	0.306	6.124	-7.043
236704.987	NaN	2.576	7.554	-4.750	1510.623	1500.366	1500.366	-0.351	6.153	-6.504	0.383	6.124	-6.967
236705.963	NaN	2.565	7.554	-4.750	1510.623	1500.366	1500.366	-0.290	6.092	-6.595	0.459	6.124	-7.120
236706.940	NaN	2.565	7.554	-4.750	1509.158	1498.901	1501.099	-0.412	6.137	-6.580	0.459	6.201	-7.043
236707.916	NaN	2.576	7.565	-4.750	1509.890	1498.168	1499.634	-0.214	6.153	-6.611	0.383	6.201	-7.196
236708.893	NaN	2.576	7.565	-4.750	1510.623	1498.168	1499.634	-0.122	6.198	-6.519	0.459	6.201	-7.043
236709.869	NaN	2.576	7.576	-4.739	1509.890	1499.634	1501.099	-0.015	6.168	-6.351	0.459	6.048	-7.120
236710.846	NaN	2.576	7.576	-4.728	1509.158	1498.901	1501.099	-0.092	6.183	-6.382	0.459	6.201	-7.043
236711.823	NaN	2.587	7.576	-4.728	1509.158	1499.634	1500.366	-0.260	6.321	-6.504	0.536	6.201	-7.043
236712.799	NaN	2.587	7.576	-4.728	1511.355	1501.099	1500.366	-0.382	6.244	-6.534	0.459	6.278	-7.120
236713.776	NaN	2.576	7.576	-4.750	1509.158	1500.366	1498.168	-0.275	6.198	-6.534	0.306	6.278	-7.043
236714.752	NaN	2.576	7.565	-4.739	1509.158	1499.634	1500.366	-0.198	6.260	-6.565	0.459	6.201	-7.043
236715.729	NaN	2.587	7.565	-4.728	1510.623	1498.901	1501.099	0.015	6.229	-6.656	0.459	6.278	-7.196
236716.705	NaN	2.587	7.565	-4.739	1509.158	1499.634	1500.366	-0.015	6.260	-6.779	0.536	6.278	-7.120
236717.682	NaN	2.576	7.565	-4.739	1508.425	1498.168	1501.099	-0.076	6.275	-6.611	0.459	6.278	-7.349
236718.658	NaN	2.565	7.565	-4.739	1510.623	1499.634	1501.099	0.031	6.122	-6.534	0.383	6.278	-7.120
236719.635	NaN	2.565	7.565	-4.728	1509.890	1498.901	1500.366	-0.076	6.168	-6.305	0.383	6.201	-7.120
236720.612	NaN	2.565	7.565	-4.739	1510.623	1500.366	1501.099	0.000	6.092	-6.290	0.383	6.201	-7.120
236721.588	NaN	2.565	7.554	-4.750	1509.890	1498.901	1501.099	-0.046	6.015	-6.397	0.536	6.278	-6.967
236722.565	NaN	2.565	7.565	-4.750	1511.355	1500.366	1500.366	-0.397	6.061	-6.611	0.383	6.278	-7.120
236723.541	NaN	2.565	7.554	-4.750	1509.890	1500.366	1501.099	-0.305	6.183	-6.550	0.383	6.124	-6.967
236724.518	NaN	2.576	7.565	-4.750	1509.158	1499.634	1500.366	-0.046	6.031	-6.489	0.383	6.124	-7.120
236725.494	NaN	2.576	7.565	-4.761	1511.355	1500.366	1500.366	0.031	5.893	-6.519	0.306	6.201	-7.043
236726.471	NaN	2.576	7.554	-4.772	1509.890	1498.901	1500.366	-0.061	6.061	-6.534	0.383	6.278	-7.273
236727.448	NaN	2.576	7.565	-4.750	1509.890	1499.634	1501.099	-0.260	6.198	-6.412	0.612	6.201	-7.120
236728.424	NaN	2.587	7.576	-4.739	1510.623	1499.634	1501.832	-0.290	6.290	-6.534	0.536	6.201	-7.043
236729.401	NaN	2.587	7.565	-4.739	1510.623	1498.901	1501.832	-0.275	6.321	-6.443	0.306	6.278	-7.196
236730.377	NaN	2.587	7.565	-4.717	1512.088	1500.366	1500.366	-0.366	6.473	-6.519	0.383	6.278	-6.967
236731.354	NaN	2.598	7.554	-4.739	1509.890	1500.366	1500.366	-0.183	6.626	-6.550	0.459	6.201	-7.120
236732.330	NaN	2.576	7.565	-4.750	1511.355	1500.366	1501.099	-0.153	6.382	-6.458	0.383	6.201	-7.120
236733.307	NaN	2.576	7.554	-4.750	1511.355	1499.634	1501.832	-0.229	6.153	-6.595	0.536	6.201	-7.196
236734.283	NaN	2.576	7.554	-4.750	1510.623	1500.366	1500.366	-0.260	6.168	-6.687	0.459	5.053	-7.120
236735.260	NaN	2.565	7.554	-4.750	1511.355	1500.366	1500.366	-0.168	6.214	-6.534	0.383	6.124	-7.043
236736.237	NaN	2.565	7.565	-4.761	1509.890	1500.366	1500.366	-0.046	6.305	-6.489	0.306	6.124	-7.120
236737.213	NaN	2.565	7.565	-4.761	1510.623	1500.366	1500.366	-0.183	6.275	-6.504	0.459	6.354	-7.043
236738.190	NaN	2.565	7.565	-4.750	1511.355	1500.366	1500.366	-0.366	6.015	-6.718	0.459	6.278	-7.120
236739.166	NaN	2.576	7.565	-4.750	1512.088	1500.366	1501.099	-0.153	5.985	-6.550	0.459	6.278	-7.043
236740.143	NaN	2.576	7.565	-4.728	1511.355	1499.634	1501.832	-0.290	5.985	-6.504	0.383	6.354	-7.043
236741.119	NaN	2.576	7.554	-4.739	1510.623	1500.366	1500.366	-0.183	6.046	-6.595	0.536	6.278	-6.967
236742.096	NaN	2.576	7.554	-4.739	1510.623	1499.634	1502.564	-0.168	6.275	-6.611	0.459	6.431	-6.967
236743.073	NaN	2.576	7.554	-4.750	1509.890	1499.634	1501.099	-0.366	6.412	-6.626	0.459	6.201	-7.043
236744.049	NaN	2.587	7.565	-4.728	1511.355	1500.366	1501.099	-0.321	6.305	-6.534	0.459	6.278	-6.890
236745.026	NaN	2.587	7.565	-4.728	1509.890	1500.366	1500.366	0.000	6.046	-6.550	0.459	6.201	-7.196
236746.002	NaN	2.576	7.565	-4.728	1510.623	1499.634	1501.099	-0.122	5.893	-6.412	0.459	6.431	-7.043
236746.979	NaN	2.576	7.565	-4.728	1510.623	1499.634	1501.099	-0.275	5.924	-6.412	0.306	6.278	-7.043
236747.955	NaN	2.576	7.565	-4.739	1512.088	1499.634	1502.564	-0.214	6.153	-6.504	0.383	6.201	-7.273
236748.932	NaN	2.576	7.565	-4.728	1510.623	1501.099	1500.366	-0.107	6.198	-6.473	0.383	6.201	-6.967
236749.908	NaN	2.576	7.576	-4.739	1511.355	1500.366	1501.099	-0.198	6.214	-6.489	0.459	6.354	-7.196
236750.885	NaN	2.576	7.565	-4.739	1509.890	1499.634	1502.564	-0.397	6.366	-6.397	0.459	6.201	-7.120
236751.862	NaN	2.554	7.565	-4.739	1511.355	1500.366	1498.901	-0.244	6.336	-6.382	0.459	6.278	-7.120
236752.838	NaN	2.576	7.554	-4.728	1511.355	1500.366	1501.099	-0.031	6.168	-6.565	0.459	6.278	-7.120
236753.815	NaN	2.565	7.554	-4.739	1509.890	1499.634	1499.634	-0.168	6.107	-6.687	0.459	6.201	-7.043
236754.791	NaN	2.565	7.543	-4.739	1509.890	1499.634	1499.634	-0.305	6.382	-6.748	0.459	6.278	-7.196
236755.768	NaN	2.576	7.554	-4.728	1510.623	1498.901	1501.099	-0.229	6.351	-6.641	0.536	6.354	-6.967
236756.744	3736843562.680	2.565	7.554	-4.739	1512.088	1499.634	1501.099	-0.321	6.168	-6.687	0.612	6.124	-7.043
236757.721	NaN	2.565	7.565	-4.728	1512.821	1499.634	1500.366	-0.336	6.015	-6.656	0.459	6.124	-7.273
236758.698	NaN	2.576	7.565	-4.728	1510.623	1499.634	1501.099	-0.397	6.061	-6.550	0.306	6.278	-7.043
236759.674	NaN	2.565	7.565	-4.739	1510.623	1499.634	1501.832	-0.504	6.031	-6.565	0.536	6.278	-7.120
236760.651	NaN	2.554	7.576	-4.739	1509.890	1500.366	1499.634	-0.412	6.076	-6.595	0.536	6.201	-7.120
236761.627	NaN	2.576	7.565	-4.728	1511.355	1499.634	1501.832	-0.458	6.076	-6.748	0.383	6.278	-7.196
236762.604	NaN	2.576	7.565	-4.739	1511.355	1500.366	1500.366	-0.427	6.198	-6.809	0.459	6.278	-7.043
236763.580	NaN	2.576	7.565	-4.739	1510.623	1499.634	1499.634	-0.336	5.908	-6.611	0.459	6.278	-7.043
236764.557	NaN	2.576	7.554	-4.728	1509.890	1499.634	1502.564	-0.290	5.908	-6.473	0.459	6.278	-7.120
236765.533	NaN	2.565	7.565	-4.750	1511.355	1499.634	1501.832	-0.336	5.847	-6.763	0.459	6.201	-7.043
236766.510	NaN	2.576	7.576	-4.739	1507.692	1499.634	1501.832	-0.351	5.985	-6.855	0.612	6.431	-7.043
236767.487	NaN	2.576	7.576	-4.750	1510.623	1500.366	1500.366	-0.260	6.168	-6.641	0.459	6.201	-7.196
236768.463	NaN	2.576	7.576	-4.750	1510.623	1500.366	1500.366	-0.275	6.092	-6.427	0.536	6.201	-7.120
236769.440	NaN	2.576	7.565	-4.750	1510.623	1499.634	1501.099	-0.076	5.969	-6.351	0.383	6.048	-6.967
236770.416	NaN	2.576	7.565	-4.750	1511.355	1500.366	1500.366	0.076	6.015	-6.687	0.459	6.278	-6.967
236771.393	NaN	2.587	7.565	-4.728	1511.355	1498.901	1501.099	-0.122	6.107	-6.718	0.459	6.278	-7.120
236772.369	NaN	2.576	7.554	-4.739	1509.890	1499.634	1501.099	-0.305	6.321	-6.672	0.459	6.201	-7.043
236773.346	NaN	2.576	7.554	-4.750	1509.890	1500.366	1500.366	-0.427	6.275	-6.550	0.459	7.349	-7.196
236774.323	NaN	2.565	7.554	-4.750	1510.623	1498.901	1500.366	-0.595	6.092	-6.458	0.612	6.354	-7.120
236775.299	NaN	2.565	7.554	-4.739	1511.355	1500.366	1499.634	-0.534	5.954	-6.565	0.536	6.201	-7.043
236776.276	NaN	2.565	7.554	-4.739	1511.355	1499.634	1501.099	-0.290	5.939	-6.656	0.536	6.201	-7.043
236777.252	NaN	2.565	7.554	-4.739	1509.890	1500.366	1500.366	-0.321	5.969	-6.718	0.536	6.201	-7.273
236778.229	NaN	2.554	7.554	-4.728	1509.890	1498.901	1502.564	-0.412	6.046	-6.779	0.383	6.431	-7.043
236779.205	NaN	2.565	7.565	-4.739	1510.623	1500.366	1500.366	-0.458	6.046	-6.763	0.383	6.201	-7.196
236780.182	NaN	2.565	7.554	-4.728	1510.623	1499.634	1501.832	-0.458	6.031	-6.611	0.459	6.124	-7.043
236781.158	NaN	2.554	7.554	-4.717	1512.088	1499.634	1500.366	-0.412	6.107	-6.718	0.459	6.048	-7.120
236782.135	NaN	2.554	7.554	-4.717	1509.890	1499.634	1501.099	-0.275	6.122	-6.641	0.536	6.278	-7.196
236783.112	NaN	2.565	7.576	-4.717	1511.355	1498.901	1499.634	-0.244	6.076	-6.672	0.459	6.201	-6.967
236784.088	NaN	2.565	7.576	-4.717	1512.821	1498.901	1501.099	-0.427	6.076	-6.702	0.383	6.278	-7.120
236785.065	NaN	2.565	7.565	-4.728	1511.355	1500.366	1501.099	-0.336	6.153	-6.779	0.383	6.201	-7.043
236786.041	NaN	2.565	7.554	-4.739	1510.623	1498.901	1501.832	-0.336	6.061	-6.809	0.383	6.124	-7.273
236787.018	NaN	2.565	7.554	-4.739	1510.623	1500.366	1500.366	-0.275	6.000	-6.794	0.459	6.201	-6.967
236787.994	NaN	2.576	7.565	-4.750	1509.158	1498.901	1501.099	-0.641	6.031	-6.626	0.459	6.124	-6.967
236788.971	NaN	2.565	7.565	-4.739	1510.623	1498.901	1500.366	-0.504	6.198	-6.595	0.459	6.124	-6.967
236789.948	NaN	2.576	7.576	-4.761	1511.355	1499.634	1500.366	-0.580	6.183	-6.824	0.383	6.201	-7.273
236790.924	NaN	2.565	7.565	-4.761	1509.890	1498.901	1499.634	-0.489	6.244	-6.763	0.383	6.201	-7.120
236791.901	NaN	2.576	7.565	-4.750	1510.623	1501.099	1500.366	-0.321	6.107	-6.763	0.459	6.201	-7.196
236792.877	NaN	2.565	7.565	-4.739	1509.158	1499.634	1499.634	-0.214	6.046	-6.718	0.536	6.278	-7.043
236793.854	NaN	2.576	7.576	-4.739	1509.890	1500.366	1499.634	-0.076	5.908	-6.611	0.536	6.354	-7.120
236794.830	NaN	2.565	7.565	-4.750	1510.623	1499.634	1500.366	-0.092	5.847	-6.443	0.383	6.278	-7.043
236795.807	NaN	2.565	7.565	-4.728	1510.623	1498.901	1501.099	-0.489	6.031	-6.672	0.383	6.201	-7.120
236796.783	NaN	2.554	7.576	-4.750	1510.623	1500.366	1500.366	-0.656	6.031	-6.855	0.459	6.201	-6.967
236797.760	NaN	2.565	7.565	-4.761	1509.890	1499.634	1498.168	-0.565	5.740	-6.763	0.383	6.354	-6.890
236798.737	NaN	2.576	7.576	-4.739	1510.623	1499.634	1501.099	-0.412	5.786	-6.763	0.306	6.278	-7.120
236799.713	NaN	2.576	7.565	-4.739	1508.425	1499.634	1501.099	-0.382	6.046	-6.855	0.383	6.278	-7.043
236800.690	NaN	2.576	7.576	-4.739	1509.890	1498.901	1500.366	-0.565	6.061	-6.702	0.383	6.278	-7.120
236801.666	NaN	2.587	7.576	-4.728	1511.355	1499.634	1502.564	-0.580	5.954	-6.626	0.383	6.124	-6.967
236802.643	NaN	2.565	7.565	-4.750	1511.355	1498.901	1499.634	-0.275	5.832	-6.473	0.459	6.278	-7.120
236803.619	NaN	2.576	7.565	-4.739	1509.890	1498.901	1501.099	-0.305	6.000	-6.412	0.459	6.278	-6.890
236804.596	NaN	2.576	7.565	-4.750	1509.890	1499.634	1501.832	-0.473	6.000	-6.534	0.459	6.278	-7.120
236805.573	NaN	2.576	7.565	-4.761	1509.158	1498.901	1500.366	-0.824	5.969	-6.672	0.459	7.349	-7.273
236806.549	NaN	2.587	7.576	-4.739	1511.355	1500.366	1500.366	-0.626	6.015	-6.595	0.536	6.124	-7.043
236807.526	NaN	2.576	7.565	-4.761	1511.355	1499.634	1500.366	-0.443	6.092	-6.504	0.383	6.278	-6.967
236808.502	NaN	2.576	7.576	-4.761	1510.623	1498.901	1502.564	-0.336	6.122	-6.672	0.536	6.278	-7.043
236809.479	NaN	2.576	7.576	-4.761	1509.890	1499.634	1501.832	-0.473	6.168	-6.809	0.536	6.201	-6.967
236810.455	NaN	2.576	7.565	-4.761	1509.890	1499.634	1500.366	-0.534	6.183	-6.595	0.536	6.278	-7.196
236811.432	NaN	2.576	7.565	-4.739	1510.623	1499.634	1501.832	-0.321	6.000	-6.565	0.383	6.201	-6.967
236812.408	NaN	2.565	7.576	-4.739	1510.623	1499.634	1500.366	-0.427	5.802	-6.748	0.459	6.201	-7.043
236813.385	NaN	2.576	7.565	-4.739	1509.890	1498.901	1501.099	-0.321	5.878	-6.641	0.383	6.048	-7.043
236814.362	NaN	2.576	7.565	-4.739	1510.623	1500.366	1499.634	-0.412	6.092	-6.718	0.383	6.278	-7.043
236815.338	NaN	2.576	7.554	-4.728	1509.890	1498.901	1500.366	-0.321	6.137	-6.840	0.459	6.201	-7.120
236816.315	NaN	2.576	7.576	-4.717	1511.355	1499.634	1502.564	-0.443	6.031	-6.809	0.459	6.278	-6.967
236817.291	NaN	2.576	7.565	-4.728	1510.623	1499.634	1502.564	-0.397	6.153	-6.824	0.459	6.124	-7.120
236818.268	NaN	2.576	7.554	-4.728	1510.623	1499.634	1500.366	-0.458	6.198	-6.672	0.536	6.201	-7.120
236819.244	NaN	2.576	7.554	-4.739	1511.355	1500.366	1499.634	-0.504	6.183	-6.382	0.383	6.278	-7.120
236820.221	NaN	2.576	7.554	-4.728	1510.623	1500.366	1499.634	-0.443	6.046	-6.397	0.536	6.201	-7.043
236821.198	NaN	2.565	7.554	-4.728	1510.623	1499.634	1501.832	-0.611	6.031	-6.611	0.383	6.201	-7.120
236822.174	NaN	2.576	7.565	-4.717	1511.355	1498.901	1501.832	-0.550	5.847	-6.748	0.459	6.124	-7.120
236823.151	NaN	2.565	7.565	-4.739	1511.355	1499.634	1501.099	-0.473	5.908	-6.794	0.383	6.201	-7.043
236824.127	NaN	2.587	7.554	-4.739	1511.355	1500.366	1500.366	-0.458	5.954	-6.779	0.459	6.278	-7.120
236825.104	NaN	2.598	7.554	-4.728	1511.355	1498.901	1502.564	-0.519	5.786	-6.779	0.383	6.124	-7.043
236826.080	NaN	2.587	7.565	-4.728	1510.623	1499.634	1500.366	-0.702	5.893	-6.641	0.459	6.201	-7.120
236827.057	NaN	2.598	7.565	-4.739	1510.623	1499.634	1499.634	-0.687	5.954	-6.656	0.459	6.201	-7.273
236828.033	NaN	2.587	7.565	-4.750	1511.355	1499.634	1501.099	-0.489	6.198	-6.611	0.459	6.201	-7.120
236829.010	NaN	2.576	7.554	-4.728	1509.890	1499.634	1501.832	-0.244	6.168	-6.580	0.536	6.278	-6.967
236829.987	NaN	2.576	7.565	-4.750	1511.355	1498.901	1500.366	-0.412	5.924	-6.748	0.536	6.124	-7.043
236830.963	NaN	2.576	7.543	-4.739	1509.890	1498.168	1501.099	-0.504	6.015	-6.809	0.383	6.201	-7.120
236831.940	NaN	2.587	7.554	-4.750	1510.623	1498.901	1500.366	-0.397	5.878	-6.901	0.536	6.201	-7.120
236832.916	NaN	2.598	7.554	-4.750	1511.355	1500.366	1500.366	-0.366	5.847	-6.733	0.383	6.201	-7.120
236833.893	NaN	2.598	7.565	-4.750	1510.623	1500.366	1500.366	-0.305	5.969	-6.656	0.612	6.201	-7.043
236834.869	NaN	2.587	7.554	-4.750	1509.890	1499.634	1501.099	-0.443	6.031	-6.794	0.383	6.278	-6.967
236835.846	NaN	2.587	7.554	-4.750	1510.623	1499.634	1501.099	-0.534	5.954	-6.611	0.459	6.201	-7.043
236836.823	NaN	2.576	7.554	-4.761	1510.623	1500.366	1500.366	-0.550	5.908	-6.611	0.536	6.201	-7.120
236837.799	NaN	2.576	7.554	-4.739	1511.355	1500.366	1500.366	-0.626	6.000	-6.687	0.536	6.278	-7.120
236838.776	NaN	2.565	7.554	-4.739	1510.623	1500.366	1500.366	-0.534	5.985	-6.550	0.459	6.201	-7.043
236839.752	NaN	2.565	7.565	-4.750	1509.890	1499.634	1501.099	-0.336	5.893	-6.565	0.612	6.201	-7.273
236840.729	NaN	2.576	7.565	-4.739	1509.890	1498.901	1499.634	-0.366	6.031	-6.489	0.459	6.201	-7.120
236841.705	NaN	2.587	7.565	-4.750	1510.623	1500.366	1500.366	-0.824	6.031	-6.733	0.459	6.201	-6.967
236842.682	NaN	2.576	7.576	-4.750	1510.623	1500.366	1500.366	-0.855	6.076	-6.824	0.459	6.124	-6.967
236843.658	NaN	2.576	7.565	-4.750	1510.623	1500.366	1499.634	-0.733	6.137	-6.824	0.230	6.201	-7.120
236844.635	NaN	2.576	7.565	-4.750	1509.890	1499.634	1501.832	-0.611	6.000	-6.824	0.536	5.053	-7.196
236845.612	NaN	2.565	7.554	-4.761	1509.890	1500.366	1498.901	-0.550	6.000	-6.855	0.536	6.201	-7.043
236846.588	NaN	2.565	7.554	-4.761	1509.890	1498.901	1500.366	-0.489	5.771	-6.672	0.459	6.124	-7.196
236847.565	NaN	2.587	7.554	-4.750	1512.088	1499.634	1501.099	-0.580	5.786	-6.687	0.536	6.201	-7.196
236848.541	NaN	2.587	7.554	-4.750	1509.890	1499.634	1501.099	-0.779	6.031	-6.885	0.306	6.124	-7.196
236849.518	NaN	2.576	7.554	-4.750	1509.158	1499.634	1501.099	-0.534	6.153	-6.779	0.383	6.278	-7.120
236850.494	NaN	2.565	7.565	-4.761	1511.355	1500.366	1500.366	-0.519	5.893	-6.763	0.612	6.201	-7.043
236851.471	NaN	2.576	7.565	-4.739	1511.355	1500.366	1498.901	-0.473	5.878	-6.702	0.306	6.201	-6.967
236852.448	NaN	2.565	7.554	-4.750	1510.623	1499.634	1500.366	-0.504	5.863	-6.779	0.536	6.201	-7.120
236853.424	NaN	2.565	7.554	-4.739	1511.355	1499.634	1499.634	-0.626	6.061	-6.763	0.306	6.201	-6.967
236854.401	NaN	2.565	7.543	-4.761	1510.623	1499.634	1501.832	-0.672	5.939	-6.931	0.459	6.278	-7.196
236855.377	NaN	2.576	7.554	-4.739	1512.088	1500.366	1501.099	-0.504	5.893	-6.763	0.459	6.124	-7.120
236856.354	NaN	2.576	7.565	-4.728	1510.623	1499.634	1500.366	-0.611	5.924	-6.656	0.459	6.278	-7.120
236857.330	NaN	2.576	7.565	-4.728	1510.623	1499.634	1500.366	-0.779	5.847	-6.718	0.536	6.124	-7.120
236858.307	NaN	2.576	7.565	-4.728	1510.623	1499.634	1500.366	-0.718	5.878	-6.702	0.383	6.124	-7.043
236859.283	NaN	2.576	7.565	-4.739	1510.623	1499.634	1501.099	-0.565	5.725	-6.779	0.459	6.278	-7.120
236860.260	NaN	2.576	7.565	-4.739	1511.355	1500.366	1501.099	-0.412	5.710	-6.733	0.612	6.124	-6.967
236861.237	NaN	2.576	7.565	-4.761	1509.890	1499.634	1499.634	-0.672	5.740	-6.595	0.383	6.354	-7.043
236862.213	NaN	2.576	7.565	-4.761	1510.623	1498.901	1500.366	-0.779	5.832	-6.641	0.536	6.201	-6.967
236863.190	NaN	2.576	7.565	-4.750	1509.158	1498.901	1498.901	-0.779	5.847	-6.672	0.536	6.124	-7.120
236864.166	NaN	2.576	7.554	-4.761	1510.623	1500.366	1500.366	-0.733	5.924	-6.672	0.536	6.124	-7.196
236865.143	NaN	2.576	7.554	-4.761	1510.623	1500.366	1501.832	-0.656	6.000	-6.718	0.383	6.201	-7.043
236866.119	NaN	2.576	7.554	-4.772	1509.890	1499.634	1500.366	-0.565	5.893	-6.565	0.536	6.354	-7.196
236867.096	NaN	2.565	7.554	-4.750	1509.890	1499.634	1500.366	-0.427	5.893	-6.580	0.383	6.048	-6.890
236868.073	NaN	2.565	7.554	-4.761	1509.890	1500.366	1500.366	-0.427	5.954	-6.611	0.383	6.278	-7.120
236869.049	NaN	2.587	7.543	-4.750	1509.890	1500.366	1500.366	-0.580	6.031	-6.718	0.459	6.354	-6.967
236870.026	NaN	2.587	7.554	-4.761	1510.623	1500.366	1500.366	-0.733	5.863	-6.931	0.459	6.278	-7.120
236871.002	NaN	2.587	7.554	-4.761	1510.623	1499.634	1501.099	-0.809	5.817	-6.916	0.383	6.278	-7.043
236871.979	NaN	2.587	7.554	-4.761	1508.425	1499.634	1500.366	-0.763	5.893	-6.855	0.383	6.124	-6.967
236872.955	NaN	2.576	7.565	-4.739	1509.158	1498.901	1500.366	-0.687	6.214	-6.824	0.459	6.354	-6.890
236873.932	NaN	2.576	7.565	-4.739	1510.623	1499.634	1500.366	-0.763	6.198	-6.885	0.383	6.201	-7.196
236874.908	NaN	2.576	7.565	-4.750	1511.355	1499.634	1501.832	-0.702	5.832	-6.809	0.383	6.124	-7.043
236875.885	NaN	2.576	7.576	-4.761	1511.355	1498.168	1501.099	-0.580	5.695	-6.809	0.306	6.278	-7.120
236876.862	NaN	2.576	7.576	-4.750	1511.355	1498.901	1501.099	-0.672	5.939	-6.824	0.459	6.278	-7.043
236877.838	NaN	2.565	7.576	-4.750	1510.623	1498.901	1501.099	-0.794	6.031	-6.702	0.459	6.278	-6.890
236878.815	NaN	2.565	7.576	-4.728	1509.890	1499.634	1499.634	-0.931	6.107	-6.779	0.459	6.201	-7.043
236879.791	NaN	2.565	7.554	-4.728	1510.623	1500.366	1500.366	-0.855	5.924	-6.763	0.383	6.278	-7.196
236880.768	NaN	2.565	7.554	-4.728	1509.158	1498.901	1499.634	-0.870	5.817	-6.672	0.459	6.124	-7.120
236881.744	NaN	2.576	7.554	-4.728	1510.623	1498.901	1501.099	-0.763	5.725	-6.534	0.383	6.201	-7.120
236882.721	NaN	2.565	7.554	-4.750	1509.890	1499.634	1501.099	-0.748	5.863	-6.595	0.536	6.201	-7.120
236883.698	NaN	2.576	7.554	-4.750	1509.890	1498.901	1500.366	-0.824	5.985	-6.702	0.459	5.129	-7.196
236884.674	NaN	2.576	7.565	-4.739	1509.890	1498.168	1499.634	-0.824	6.046	-6.809	0.536	6.201	-7.043
236885.651	NaN	2.576	7.554	-4.739	1509.890	1498.901	1500.366	-0.718	6.092	-6.748	0.459	6.278	-7.196
236886.627	NaN	2.576	7.565	-4.739	1510.623	1498.901	1499.634	-0.733	6.015	-6.626	0.459	6.124	-7.043
236887.604	NaN	2.576	7.554	-4.739	1509.158	1498.901	1500.366	-0.687	5.924	-6.565	0.459	6.278	-7.043
236888.580	NaN	2.576	7.565	-4.739	1511.355	1499.634	1501.099	-0.519	5.969	-6.534	0.459	6.201	-7.043
236889.557	NaN	2.576	7.565	-4.750	1509.158	1499.634	1500.366	-0.702	6.061	-6.550	0.459	6.201	-7.043
236890.533	NaN	2.587	7.565	-4.750	1511.355	1499.634	1499.634	-0.779	6.107	-6.687	0.536	6.278	-7.120
236891.510	NaN	2.587	7.565	-4.750	1509.890	1499.634	1499.634	-0.534	6.046	-6.763	0.459	6.354	-6.967
236892.487	NaN	2.598	7.565	-4.739	1509.890	1498.901	1499.634	-0.504	5.863	-6.656	0.536	6.278	-7.043
236893.463	NaN	2.598	7.554	-4.739	1509.890	1500.366	1501.099	-0.718	5.771	-6.626	0.383	6.278	-7.120
236894.440	NaN	2.587	7.554	-4.750	1510.623	1499.634	1500.366	-0.840	5.817	-6.672	0.383	6.278	-7.043
236895.416	NaN	2.598	7.554	-4.739	1512.821	1500.366	1500.366	-0.656	5.771	-6.779	0.383	6.201	-6.967
236896.393	NaN	2.576	7.565	-4.739	1510.623	1498.901	1500.366	-0.427	5.771	-6.748	0.459	6.201	-6.967
236897.369	NaN	2.587	7.565	-4.750	1510.623	1499.634	1502.564	-0.427	5.740	-6.733	0.383	6.278	-7.120
236898.346	NaN	2.598	7.565	-4.750	1510.623	1499.634	1501.099	-0.611	5.802	-6.702	0.459	6.278	-7.043
236899.323	NaN	2.587	7.565	-4.750	1511.355	1499.634	1501.832	-0.656	5.786	-6.947	0.383	6.201	-7.120
236900.299	NaN	2.598	7.565	-4.728	1510.623	1499.634	1501.832	-0.550	5.847	-6.840	0.383	6.354	-7.196
236901.276	NaN	2.587	7.554	-4.750	1509.890	1499.634	1501.099	-0.611	5.832	-6.595	0.459	6.124	-7.196
236902.252	NaN	2.576	7.554	-4.750	1509.890	1499.634	1501.832	-0.763	5.725	-6.595	0.459	6.278	-7.120
236903.229	NaN	2.576	7.554	-4.750	1509.890	1499.634	1500.366	-0.718	5.924	-6.580	0.536	6.278	-7.043
236904.205	NaN	2.565	7.576	-4.750	1511.355	1501.099	1498.901	-0.656	5.939	-6.687	0.459	6.201	-7.043
236905.182	NaN	2.565	7.576	-4.739	1510.623	1500.366	1501.099	-0.824	5.832	-6.824	0.383	6.201	-7.120
236906.158	NaN	2.565	7.576	-4.750	1511.355	1500.366	1499.634	-0.916	5.832	-6.931	0.536	6.201	-7.043
236907.135	NaN	2.576	7.576	-4.750	1509.890	1499.634	1501.832	-0.718	5.802	-6.947	0.383	6.124	-6.967
236908.112	NaN	2.576	7.576	-4.761	1511.355	1501.099	1498.901	-0.687	5.771	-6.962	0.306	6.278	-7.120
236909.088	NaN	2.576	7.565	-4.750	1510.623	1500.366	1499.634	-0.702	5.756	-6.672	0.459	6.278	-7.120
236910.065	NaN	2.576	7.565	-4.750	1511.355	1499.634	1501.099	-0.718	5.939	-6.672	0.459	6.354	-7.196
236911.041	NaN	2.587	7.554	-4.728	1511.355	1499.634	1500.366	-0.626	5.924	-6.687	0.383	6.201	-7.196
236912.018	NaN	2.587	7.554	-4.739	1510.623	1499.634	1501.099	-0.718	5.786	-6.794	0.536	6.278	-7.120
236912.994	NaN	2.576	7.565	-4.750	1510.623	1499.634	1501.099	-0.962	5.679	-6.947	0.383	6.201	-6.967
236913.971	NaN	2.587	7.565	-4.739	1510.623	1499.634	1502.564	-0.870	5.679	-6.947	0.612	6.278	-7.043
236914.948	NaN	2.598	7.565	-4.728	1510.623	1500.366	1500.366	-1.008	5.863	-6.656	0.383	6.201	-7.043
236915.924	NaN	2.587	7.565	-4.728	1509.890	1499.634	1500.366	-0.870	6.000	-6.550	0.612	6.354	-7.196
236916.901	NaN	2.576	7.565	-4.739	1510.623	1499.634	1501.099	-0.809	5.924	-6.458	0.459	6.201	-7.043
236917.877	NaN	2.576	7.565	-4.739	1511.355	1499.634	1501.099	-0.748	5.878	-6.504	0.459	6.201	-7.120
236918.854	NaN	2.565	7.565	-4.761	1510.623	1498.901	1500.366	-0.931	5.893	-6.656	0.459	6.124	-7.120
236919.830	NaN	2.576	7.565	-4.739	1512.088	1499.634	1501.832	-1.069	5.878	-6.885	0.459	6.201	-6.967
236920.807	3736843562.846	2.576	7.565	-4.750	1510.623	1499.634	1500.366	-0.794	5.847	-7.084	0.536	6.124	-7.196
236921.783	NaN	2.576	7.565	-4.750	1511.355	1499.634	1500.366	-0.733	5.832	-6.992	0.536	6.354	-7.043
236922.760	NaN	2.576	7.565	-4.750	1512.088	1500.366	1500.366	-0.824	5.939	-6.794	0.459	6.124	-6.967
236923.737	NaN	2.565	7.565	-4.761	1509.890	1500.366	1500.366	-0.779	6.137	-6.534	0.459	6.278	-7.043
236924.713	NaN	2.565	7.565	-4.750	1510.623	1499.634	1498.901	-0.855	6.031	-6.473	0.383	6.201	-6.967
236925.690	NaN	2.565	7.554	-4.750	1510.623	1498.901	1501.099	-0.809	5.985	-6.595	0.459	6.278	-6.967
236926.666	NaN	2.565	7.565	-4.750	1510.623	1498.168	1500.366	-0.931	5.908	-6.794	0.459	6.278	-7.043
236927.643	NaN	2.576	7.565	-4.739	1509.890	1499.634	1500.366	-0.901	5.908	-6.870	0.459	6.278	-7.043
236928.619	NaN	2.576	7.565	-4.739	1510.623	1499.634	1500.366	-0.748	5.893	-6.916	0.459	6.201	-7.043
236929.596	NaN	2.587	7.565	-4.739	1509.890	1499.634	1501.099	-0.809	5.985	-6.870	0.536	6.278	-7.043
236930.573	NaN	2.587	7.565	-4.739	1509.158	1498.901	1499.634	-0.748	5.985	-6.992	0.383	6.278	-7.043
236931.549	NaN	2.598	7.554	-4.739	1510.623	1500.366	1501.099	-0.779	6.076	-6.885	0.383	6.278	-7.120
236932.526	NaN	2.576	7.565	-4.728	1510.623	1500.366	1500.366	-0.656	5.954	-6.672	0.459	6.124	-6.967
236933.502	NaN	2.576	7.554	-4.750	1509.890	1499.634	1500.366	-1.038	5.908	-6.702	0.536	6.278	-7.043
236934.479	NaN	2.565	7.554	-4.750	1509.890	1499.634	1501.099	-1.099	5.939	-6.824	0.459	6.278	-7.120
236935.455	NaN	2.576	7.554	-4.761	1510.623	1500.366	1500.366	-0.977	5.985	-6.947	0.383	6.201	-7.043
236936.432	NaN	2.576	7.554	-4.761	1510.623	1500.366	1500.366	-0.916	5.710	-6.885	0.383	6.278	-7.043
236937.408	NaN	2.565	7.554	-4.772	1510.623	1500.366	1498.901	-1.023	5.725	-6.687	0.459	6.201	-7.120
236938.385	NaN	2.565	7.565	-4.772	1510.623	1500.366	1500.366	-1.130	5.878	-6.626	0.383	6.124	-7.120
236939.362	NaN	2.565	7.565	-4.772	1510.623	1500.366	1498.901	-1.008	6.000	-6.702	0.383	6.201	-7.196
236940.338	NaN	2.576	7.565	-4.750	1510.623	1500.366	1499.634	-0.947	5.924	-6.733	0.459	6.278	-7.196
236941.315	NaN	2.576	7.565	-4.750	1511.355	1500.366	1501.099	-0.916	5.893	-6.534	0.536	6.201	-6.890
236942.291	NaN	2.565	7.576	-4.750	1510.623	1499.634	1499.634	-0.962	6.031	-6.626	0.383	6.278	-7.196
236943.268	NaN	2.565	7.565	-4.750	1509.890	1500.366	1500.366	-0.763	5.893	-6.718	0.459	6.354	-7.043
236944.244	NaN	2.554	7.565	-4.750	1511.355	1500.366	1500.366	-0.550	5.756	-6.656	0.383	6.201	-6.967
236945.221	NaN	2.554	7.565	-4.750	1511.355	1500.366	1500.366	-0.718	5.771	-6.733	0.383	6.278	-7.043
236946.198	NaN	2.565	7.576	-4.750	1510.623	1499.634	1501.099	-1.145	6.015	-6.794	0.459	6.201	-7.120
236947.174	NaN	2.554	7.554	-4.750	1510.623	1499.634	1501.099	-1.267	5.969	-6.916	0.459	6.278	-7.196
236948.151	NaN	2.554	7.554	-4.750	1509.890	1498.901	1499.634	-1.160	5.863	-6.992	0.459	6.124	-7.273
236949.127	NaN	2.565	7.554	-4.739	1509.890	1500.366	1500.366	-0.947	5.786	-6.687	0.459	6.201	-7.043
236950.104	NaN	2.554	7.565	-4.728	1509.890	1500.366	1500.366	-0.931	5.771	-6.626	0.383	6.278	-7.120
236951.080	NaN	2.554	7.565	-4.739	1511.355	1498.901	1500.366	-1.053	5.756	-6.855	0.536	6.278	-7.120
236952.057	NaN	2.565	7.576	-4.750	1509.890	1499.634	1499.634	-1.038	5.954	-6.977	0.383	6.201	-7.043
236953.033	NaN	2.565	7.565	-4.761	1510.623	1499.634	1501.099	-0.931	5.954	-6.840	0.459	6.201	-7.043
236954.010	NaN	2.576	7.565	-4.750	1511.355	1499.634	1501.832	-0.855	5.924	-6.809	0.383	6.124	-7.043
236954.987	NaN	2.587	7.576	-4.750	1510.623	1500.366	1500.366	-0.947	5.985	-6.962	0.459	6.278	-7.120
236955.963	NaN	2.576	7.587	-4.750	1509.890	1499.634	1501.832	-1.069	6.061	-6.916	0.459	6.354	-6.967
236956.940	NaN	2.576	7.576	-4.761	1511.355	1499.634	1500.366	-0.931	6.107	-6.718	0.459	6.201	-7.196
236957.916	NaN	2.587	7.576	-4.761	1512.088	1500.366	1499.634	-0.947	6.153	-6.824	0.536	6.278	-7.120
236958.893	NaN	2.576	7.565	-4.750	1511.355	1500.366	1500.366	-1.145	5.985	-6.748	0.383	6.201	-7.196
236959.869	NaN	2.576	7.576	-4.739	1510.623	1499.634	1501.099	-0.931	5.618	-6.702	0.459	6.201	-7.043
236960.846	NaN	2.587	7.576	-4.750	1510.623	1500.366	1501.832	-0.947	5.679	-6.656	0.536	6.201	-7.120
236961.823	NaN	2.576	7.565	-4.761	1510.623	1500.366	1499.634	-0.916	5.832	-6.733	0.459	6.048	-7.120
236962.799	NaN	2.576	7.565	-4.750	1510.623	1500.366	1500.366	-1.099	5.924	-6.840	0.459	6.201	-7.120
236963.776	NaN	2.587	7.576	-4.750	1511.355	1499.634	1500.366	-1.221	5.924	-6.855	0.459	6.201	-7.120
236964.752	NaN	2.587	7.565	-4.750	1510.623	1499.634	1500.366	-1.145	5.985	-6.824	0.536	6.201	-7.196
236965.729	NaN	2.587	7.576	-4.750	1509.890	1499.634	1501.832	-0.931	5.710	-6.794	0.536	6.278	-7.196
236966.705	NaN	2.587	7.576	-4.739	1510.623	1498.901	1500.366	-0.855	5.710	-6.824	0.536	6.354	-7.120
236967.682	NaN	2.609	7.576	-4.728	1509.890	1499.634	1501.832	-0.702	5.847	-6.687	0.459	6.124	-7.120
236968.658	NaN	2.598	7.565	-4.761	1509.158	1500.366	1500.366	-0.733	5.969	-6.595	0.383	6.201	-7.196
236969.635	NaN	2.598	7.554	-4.761	1508.425	1499.634	1500.366	-1.115	5.817	-6.672	0.612	6.278	-7.043
236970.612	NaN	2.598	7.554	-4.761	1510.623	1499.634	1499.634	-1.023	5.802	-6.824	0.459	6.278	-6.967
236971.588	NaN	2.598	7.543	-4.750	1509.890	1500.366	1501.832	-1.115	5.756	-6.809	0.459	6.278	-7.043
236972.565	NaN	2.587	7.543	-4.761	1511.355	1499.634	1501.099	-1.282	5.649	-6.855	0.383	6.201	-7.196
236973.541	NaN	2.587	7.543	-4.761	1510.623	1498.901	1500.366	-1.298	5.588	-6.824	0.459	6.124	-7.043
236974.518	NaN	2.587	7.554	-4.750	1511.355	1498.901	1501.099	-1.252	5.832	-6.733	0.459	6.278	-7.043
236975.494	NaN	2.587	7.554	-4.761	1511.355	1500.366	1499.634	-1.206	5.863	-6.809	0.536	6.278	-7.043
236976.471	NaN	2.598	7.554	-4.750	1509.890	1500.366	1501.832	-1.237	5.878	-7.023	0.459	6.278	-6.967
236977.448	NaN	2.598	7.554	-4.761	1510.623	1500.366	1499.634	-1.206	6.000	-7.023	0.536	6.124	-6.967
236978.424	NaN	2.587	7.565	-4.761	1510.623	1499.634	1501.099	-1.084	5.878	-7.053	0.383	6.278	-7.043
236979.401	NaN	2.587	7.565	-4.750	1511.355	1499.634	1501.099	-1.084	5.664	-6.885	0.536	6.278	-7.043
236980.377	NaN	2.587	7.565	-4.739	1510.623	1499.634	1501.099	-0.962	5.847	-6.763	0.383	6.201	-7.043
236981.354	NaN	2.587	7.554	-4.750	1510.623	1498.901	1501.099	-0.947	5.817	-6.702	0.459	6.124	-7.120
236982.330	NaN	2.576	7.554	-4.750	1510.623	1499.634	1501.099	-1.145	5.817	-6.702	0.612	6.201	-7.043
236983.307	NaN	2.576	7.554	-4.761	1509.158	1499.634	1500.366	-1.237	5.802	-6.885	0.536	6.201	-7.120
236984.283	NaN	2.576	7.543	-4.750	1509.890	1498.168	1501.099	-0.962	5.924	-7.023	0.536	6.124	-7.043
236985.260	NaN	2.576	7.565	-4.739	1512.088	1500.366	1499.634	-0.992	5.985	-6.870	0.459	6.278	-7.120
236986.237	NaN	2.576	7.554	-4.750	1511.355	1499.634	1500.366	-1.084	5.893	-6.824	0.459	6.124	-7.043
236987.213	NaN	2.587	7.565	-4.739	1510.623	1499.634	1502.564	-1.023	5.817	-6.809	0.306	6.201	-6.967
236988.190	NaN	2.576	7.554	-4.739	1510.623	1499.634	1501.832	-0.885	5.832	-6.733	0.536	6.201	-7.196
236989.166	NaN	2.587	7.554	-4.750	1511.355	1499.634	1501.099	-0.931	5.847	-6.611	0.459	6.278	-6.890
236990.143	NaN	2.587	7.554	-4.739	1510.623	1499.634	1501.099	-0.947	5.725	-6.733	0.459	6.201	-7.120
236991.119	NaN	2.576	7.565	-4.750	1510.623	1499.634	1501.832	-0.901	5.908	-6.885	0.383	6.201	-6.967
236992.096	NaN	2.565	7.554	-4.750	1509.890	1499.634	1500.366	-1.023	5.908	-6.809	0.383	6.278	-7.120
236993.073	NaN	2.576	7.554	-4.750	1510.623	1500.366	1499.634	-1.008	5.908	-6.779	0.383	6.201	-7.120
236994.049	NaN	2.576	7.554	-4.750	1510.623	1500.366	1500.366	-0.931	5.878	-6.809	0.459	6.201	-6.890
236995.026	NaN	2.565	7.565	-4.739	1509.890	1499.634	1500.366	-1.115	5.786	-6.824	0.536	6.048	-7.043
236996.002	NaN	2.565	7.565	-4.739	1511.355	1499.634	1500.366	-1.252	5.771	-6.748	0.459	6.201	-7.043
236996.979	NaN	2.576	7.554	-4.728	1510.623	1500.366	1499.634	-1.038	5.878	-6.718	0.306	6.201	-7.043
236997.955	NaN	2.587	7.565	-4.728	1512.088	1499.634	1501.832	-0.947	5.924	-6.779	0.536	6.278	-7.349
236998.932	NaN	2.576	7.576	-4.739	1511.355	1499.634	1500.366	-1.130	5.954	-6.885	0.536	6.201	-7.120
236999.908	NaN	2.576	7.565	-4.728	1509.158	1499.634	1500.366	-1.191	5.756	-6.718	0.383	6.124	-7.120
237000.885	NaN	2.576	7.565	-4.739	1510.623	1498.901	1498.901	-1.237	5.695	-6.702	0.459	6.278	-6.967
237001.862	NaN	2.576	7.565	-4.739	1511.355	1498.168	1501.099	-1.023	5.786	-6.702	0.459	6.354	-7.043
237002.838	NaN	2.587	7.587	-4.728	1509.890	1500.366	1501.832	-1.038	5.908	-6.748	0.383	6.201	-7.043
237003.815	NaN	2.587	7.576	-4.739	1510.623	1498.901	1501.099	-1.008	5.969	-6.733	0.306	6.278	-6.967
237004.791	NaN	2.587	7.576	-4.761	1510.623	1498.901	1500.366	-1.099	5.985	-6.901	0.383	6.201	-7.120
237005.768	NaN	2.576	7.565	-4.761	1510.623	1499.634	1500.366	-1.282	5.954	-6.931	0.383	6.201	-6.967
237006.744	NaN	2.576	7.587	-4.750	1510.623	1500.366	1500.366	-1.298	5.969	-7.008	0.459	6.278	-7.043
237007.721	NaN	2.565	7.576	-4.750	1510.623	1499.634	1500.366	-1.221	5.832	-6.794	0.536	6.201	-7.196
237008.698	NaN	2.554	7.576	-4.750	1511.355	1499.634	1501.832	-1.115	5.893	-6.641	0.383	6.354	-6.967
237009.674	NaN	2.565	7.565	-4.750	1509.158	1499.634	1500.366	-1.115	5.908	-6.580	0.459	6.278	-7.043
237010.651	NaN	2.565	7.565	-4.739	1509.890	1498.901	1501.832	-1.221	5.802	-6.641	0.383	6.278	-7.273
237011.627	NaN	2.576	7.565	-4.739	1511.355	1499.634	1500.366	-1.221	5.557	-6.931	0.459	6.201	-7.120
237012.604	NaN	2.576	7.565	-4.739	1510.623	1500.366	1500.366	-1.221	5.618	-6.824	0.536	6.201	-7.120
237013.580	NaN	2.576	7.576	-4.739	1511.355	1499.634	1501.099	-1.038	5.863	-6.794	0.459	6.201	-6.967
237014.557	NaN	2.565	7.576	-4.750	1510.623	1500.366	1499.634	-0.977	5.908	-6.840	0.383	6.201	-7.120
237015.533	NaN	2.565	7.565	-4.750	1511.355	1499.634	1501.832	-1.069	5.939	-6.840	0.383	6.124	-7.273
237016.510	NaN	2.576	7.576	-4.761	1510.623	1499.634	1499.634	-1.099	5.893	-6.947	0.383	6.278	-7.043
237018.463	NaN	2.576	7.576	-4.772	1510.623	1500.366	1500.366	-0.855	5.847	-6.763	0.536	6.278	-6.967
237019.440	NaN	2.576	7.587	-4.772	1508.425	1499.634	1500.366	-0.992	5.771	-6.641	0.459	6.278	-7.120
237020.416	NaN	2.565	7.576	-4.761	1510.623	1498.901	1499.634	-1.221	5.710	-6.840	0.306	6.278	-7.043
237021.393	NaN	2.576	7.576	-4.750	1510.623	1499.634	1500.366	-1.206	5.908	-6.779	0.536	6.201	-7.120
237022.369	NaN	2.565	7.576	-4.761	1509.890	1499.634	1501.099	-1.099	6.000	-6.702	0.459	6.201	-7.043
237023.346	NaN	2.554	7.576	-4.750	1509.158	1499.634	1501.099	-1.023	5.954	-6.656	0.459	6.201	-7.043
237024.323	NaN	2.554	7.576	-4.750	1509.890	1499.634	1501.832	-1.069	5.725	-6.672	0.306	6.278	-7.273
237025.299	NaN	2.565	7.576	-4.750	1511.355	1500.366	1501.099	-1.176	5.664	-6.763	0.459	6.201	-7.120
237026.276	NaN	2.565	7.554	-4.750	1511.355	1499.634	1501.099	-1.267	5.725	-6.748	0.459	6.124	-7.273
237027.252	NaN	2.565	7.565	-4.750	1509.890	1500.366	1500.366	-1.191	5.725	-6.748	0.306	6.201	-7.120
237028.229	NaN	2.565	7.565	-4.739	1510.623	1500.366	1500.366	-1.099	5.649	-6.779	0.459	6.278	-7.120
237029.205	NaN	2.576	7.576	-4.739	1510.623	1500.366	1500.366	-1.191	5.664	-6.870	0.459	6.048	-7.196
237030.182	NaN	2.576	7.587	-4.728	1510.623	1498.901	1501.099	-1.237	5.710	-6.763	0.383	6.048	-6.967
237031.158	NaN	2.576	7.576	-4.739	1509.890	1499.634	1500.366	-1.038	5.771	-6.779	0.306	6.201	-6.967
237032.135	NaN	2.576	7.576	-4.739	1510.623	1499.634	1501.099	-0.794	5.756	-6.779	0.459	6.201	-7.120
237033.112	NaN	2.576	7.576	-4.739	1509.890	1499.634	1501.099	-0.840	5.802	-6.947	0.536	6.201	-6.967
237034.088	NaN	2.576	7.576	-4.739	1509.890	1500.366	1500.366	-1.069	5.832	-6.962	0.383	6.124	-7.196
237035.065	NaN	2.565	7.587	-4.739	1509.890	1500.366	1499.634	-1.298	5.771	-7.023	0.459	6.124	-7.196
237036.041	NaN	2.565	7.576	-4.739	1509.158	1499.634	1501.099	-1.206	5.756	-6.977	0.383	6.201	-7.196
237037.018	NaN	2.554	7.576	-4.750	1510.623	1500.366	1499.634	-0.824	5.618	-6.718	0.459	6.354	-7.120
237037.994	NaN	2.554	7.576	-4.739	1511.355	1500.366	1498.901	-1.023	5.588	-6.855	0.383	6.354	-6.890
237038.971	NaN	2.565	7.587	-4.728	1512.088	1500.366	1499.634	-1.130	5.649	-7.084	0.536	6.124	-6.967
237039.948	NaN	2.554	7.587	-4.739	1510.623	1498.901	1500.366	-1.176	5.664	-6.977	0.383	6.201	-7.120
237040.924	NaN	2.565	7.587	-4.750	1508.425	1499.634	1500.366	-1.313	5.649	-6.885	0.459	6.278	-7.120
237041.901	NaN	2.587	7.576	-4.772	1510.623	1498.901	1501.099	-1.282	5.557	-6.947	0.459	6.201	-7.196
237042.877	NaN	2.587	7.576	-4.750	1510.623	1500.366	1500.366	-1.282	5.649	-6.992	0.459	6.278	-7.043
237043.854	NaN	2.587	7.565	-4.750	1509.890	1499.634	1501.099	-1.389	5.603	-6.885	0.459	6.201	-6.967
237044.830	NaN	2.587	7.554	-4.739	1509.890	1499.634	1501.832	-1.145	5.634	-6.916	0.459	6.201	-7.120
237045.807	NaN	2.587	7.543	-4.739	1511.355	1499.634	1501.099	-1.313	5.756	-6.901	0.459	6.201	-7.120
237046.783	NaN	2.587	7.543	-4.739	1512.088	1498.901	1501.099	-1.374	5.603	-6.962	0.306	6.354	-6.890
237047.760	NaN	2.587	7.554	-4.728	1510.623	1500.366	1501.099	-1.313	5.786	-7.038	0.536	6.278	-7.043
237048.737	NaN	2.587	7.565	-4.728	1510.623	1499.634	1500.366	-1.267	5.878	-7.176	0.383	6.124	-7.196
237049.713	NaN	2.565	7.554	-4.728	1510.623	1500.366	1499.634	-1.176	5.679	-6.962	0.459	6.048	-7.043
237050.690	NaN	2.565	7.554	-4.739	1509.158	1498.168	1499.634	-1.252	5.710	-6.931	0.459	6.278	-6.890
237051.666	NaN	2.576	7.543	-4.728	1511.355	1500.366	1498.901	-1.359	5.771	-6.931	0.383	6.201	-7.043
237052.643	NaN	2.576	7.554	-4.717	1511.355	1499.634	1501.099	-1.420	5.786	-6.763	0.459	6.278	-7.120
237053.619	NaN	2.576	7.554	-4.717	1511.355	1500.366	1499.634	-1.405	5.847	-6.748	0.383	6.278	-7.120
237054.596	NaN	2.576	7.554	-4.717	1511.355	1499.634	1500.366	-1.298	5.817	-6.947	0.306	6.278	-7.043
237055.573	NaN	2.554	7.565	-4.728	1511.355	1499.634	1500.366	-1.099	5.756	-6.885	0.459	6.278	-7.120
237056.549	NaN	2.576	7.576	-4.728	1510.623	1499.634	1501.099	-0.962	5.679	-6.870	0.383	6.201	-7.043
237057.526	NaN	2.576	7.576	-4.728	1511.355	1499.634	1501.099	-1.008	5.664	-6.885	0.459	6.201	-7.120
237058.502	NaN	2.576	7.565	-4.750	1509.890	1498.901	1500.366	-1.038	5.634	-6.809	0.383	6.431	-6.890
237068.268	NaN	2.576	7.543	-4.739	1510.623	1499.634	1501.099	-1.069	5.618	-6.931	0.459	6.124	-6.890
237069.244	NaN	2.576	7.543	-4.750	1510.623	1499.634	1499.634	-1.084	5.679	-7.008	0.230	6.201	-7.120
237070.221	NaN	2.576	7.543	-4.750	1509.158	1498.901	1501.099	-1.176	5.618	-6.885	0.383	6.278	-7.043
237071.198	NaN	2.587	7.554	-4.750	1510.623	1499.634	1500.366	-1.282	5.786	-6.763	0.459	6.201	-7.043
237072.174	NaN	2.576	7.554	-4.772	1510.623	1499.634	1501.099	-1.313	5.878	-7.038	0.459	6.278	-7.120
237073.151	NaN	2.576	7.565	-4.761	1510.623	1499.634	1501.099	-1.344	5.863	-6.977	0.383	6.278	-7.196
237074.127	NaN	2.587	7.576	-4.750	1509.890	1500.366	1500.366	-1.176	5.786	-6.931	0.383	6.278	-7.196
237075.104	NaN	2.587	7.576	-4.761	1510.623	1499.634	1500.366	-1.267	5.786	-7.053	0.383	6.124	-7.196
237076.080	NaN	2.587	7.576	-4.750	1510.623	1499.634	1501.832	-1.298	5.786	-7.023	0.306	6.124	-6.890
237077.057	NaN	2.576	7.576	-4.750	1510.623	1498.901	1501.099	-1.282	5.756	-7.023	0.383	6.354	-7.043
237078.033	NaN	2.565	7.565	-4.750	1510.623	1500.366	1500.366	-1.374	5.802	-6.992	0.383	6.201	-7.043
237079.010	NaN	2.576	7.576	-4.750	1511.355	1499.634	1501.099	-1.359	5.878	-6.992	0.383	6.354	-7.273
237079.987	NaN	2.565	7.565	-4.750	1510.623	1499.634	1501.832	-1.389	5.863	-6.855	0.383	6.201	-7.120
237080.963	NaN	2.576	7.565	-4.750	1509.890	1499.634	1502.564	-1.176	5.710	-6.794	0.306	6.278	-7.196
237081.940	NaN	2.576	7.554	-4.750	1510.623	1499.634	1501.832	-1.084	5.618	-6.824	0.536	6.048	-7.043
237082.916	NaN	2.576	7.565	-4.728	1511.355	1500.366	1501.099	-1.084	5.573	-6.962	0.459	6.048	-7.120
237083.893	NaN	2.576	7.565	-4.728	1510.623	1499.634	1500.366	-1.160	5.573	-6.855	0.383	6.278	-7.196
237084.869	3736843563.013	2.576	7.576	-4.739	1510.623	1499.634	1501.099	-1.206	5.603	-6.947	0.536	6.278	-7.120
237085.846	NaN	2.576	7.576	-4.739	1511.355	1499.634	1502.564	-1.344	5.527	-6.916	0.459	6.201	-6.890
237086.823	NaN	2.576	7.576	-4.739	1510.623	1499.634	1501.099	-1.191	5.649	-6.840	0.459	6.048	-6.967
237087.799	NaN	2.576	7.576	-4.728	1510.623	1500.366	1501.099	-1.099	5.679	-6.809	0.536	6.354	-7.043
237088.776	NaN	2.576	7.576	-4.728	1510.623	1499.634	1500.366	-1.359	5.695	-6.901	0.459	6.278	-7.120
237089.752	NaN	2.565	7.565	-4.739	1509.890	1500.366	1501.832	-1.496	5.557	-7.023	0.536	6.354	-7.120
237090.729	NaN	2.565	7.565	-4.750	1509.158	1498.901	1500.366	-1.557	5.511	-7.023	0.383	6.124	-7.120
237091.705	NaN	2.576	7.565	-4.739	1510.623	1498.901	1500.366	-1.237	5.481	-7.023	0.459	6.201	-7.120
237092.682	NaN	2.587	7.565	-4.728	1510.623	1500.366	1500.366	-1.191	5.511	-7.038	0.459	6.124	-7.196
237093.658	NaN	2.576	7.565	-4.750	1511.355	1499.634	1499.634	-1.160	5.695	-7.053	0.612	6.278	-6.967
237094.635	NaN	2.576	7.565	-4.739	1510.623	1499.634	1499.634	-1.206	5.679	-7.023	0.459	6.048	-7.196
237095.612	NaN	2.576	7.554	-4.739	1511.355	1498.901	1501.099	-1.481	5.542	-6.763	0.612	6.278	-7.043
237096.588	NaN	2.576	7.565	-4.717	1512.088	1500.366	1501.099	-1.557	5.573	-6.901	0.459	6.278	-7.043
237097.565	NaN	2.576	7.554	-4.717	1511.355	1499.634	1501.099	-1.496	5.618	-7.191	0.383	6.124	-7.120
237098.541	NaN	2.587	7.554	-4.717	1511.355	1499.634	1500.366	-1.481	5.710	-7.176	0.536	6.278	-7.043
237099.518	NaN	2.576	7.554	-4.728	1510.623	1499.634	1502.564	-1.405	5.710	-6.931	0.306	6.278	-7.043
237100.494	NaN	2.576	7.554	-4.739	1511.355	1500.366	1500.366	-1.221	5.496	-6.809	0.383	6.278	-7.043
237101.471	NaN	2.587	7.565	-4.739	1510.623	1500.366	1500.366	-1.237	5.450	-6.611	0.306	6.278	-6.967
237102.448	NaN	2.587	7.576	-4.750	1510.623	1499.634	1501.099	-1.313	5.466	-6.656	0.536	6.201	-7.120
237103.424	NaN	2.576	7.565	-4.750	1509.890	1500.366	1501.832	-1.374	5.450	-6.855	0.536	6.278	-7.120
237104.401	NaN	2.576	7.554	-4.750	1510.623	1498.901	1501.099	-1.267	5.450	-6.962	0.383	6.278	-7.196
237105.377	NaN	2.587	7.565	-4.728	1511.355	1500.366	1499.634	-1.038	5.405	-6.901	0.536	6.201	-7.043
237106.354	NaN	2.587	7.565	-4.728	1511.355	1500.366	1499.634	-1.374	5.450	-6.885	0.459	6.124	-7.196
237107.330	NaN	2.587	7.554	-4.728	1510.623	1499.634	1501.832	-1.695	5.450	-7.115	0.383	6.048	-7.120
237108.307	NaN	2.576	7.565	-4.750	1512.088	1499.634	1500.366	-1.573	5.496	-7.191	0.459	6.201	-6.967
237109.283	NaN	2.565	7.565	-4.761	1511.355	1501.099	1500.366	-1.206	5.450	-7.008	0.383	6.278	-7.043
237110.260	NaN	2.565	7.576	-4.750	1510.623	1500.366	1501.832	-1.328	5.511	-6.794	0.536	6.124	-7.043
237111.237	NaN	2.576	7.576	-4.750	1510.623	1499.634	1501.832	-1.511	5.588	-6.702	0.459	6.354	-7.120
237112.213	NaN	2.565	7.576	-4.750	1510.623	1498.901	1501.832	-1.389	5.573	-6.733	0.459	6.201	-7.120
237113.190	NaN	2.565	7.576	-4.750	1509.158	1500.366	1500.366	-1.359	5.481	-6.947	0.536	6.201	-7.120
237114.166	NaN	2.576	7.565	-4.739	1510.623	1501.099	1501.099	-1.191	5.450	-7.099	0.383	6.278	-7.043
237115.143	NaN	2.576	7.565	-4.750	1511.355	1500.366	1498.901	-1.099	5.725	-7.084	0.383	6.201	-7.196
237116.119	NaN	2.587	7.554	-4.750	1512.088	1499.634	1501.099	-1.344	5.863	-7.038	0.536	6.278	-7.043
237117.096	NaN	2.587	7.554	-4.750	1511.355	1499.634	1502.564	-1.405	5.802	-6.885	0.306	6.124	-7.196
237118.073	NaN	2.576	7.554	-4.750	1511.355	1500.366	1499.634	-1.496	5.618	-6.870	0.383	4.976	-7.043
237119.049	NaN	2.576	7.554	-4.750	1510.623	1500.366	1499.634	-1.389	5.389	-7.160	0.459	6.124	-7.196
237120.026	NaN	2.565	7.554	-4.750	1509.890	1500.366	1499.634	-1.221	5.405	-7.282	0.383	6.201	-7.120
237121.002	NaN	2.554	7.554	-4.761	1511.355	1499.634	1501.099	-1.298	5.511	-7.160	0.536	6.278	-7.043
237121.979	NaN	2.554	7.554	-4.761	1510.623	1499.634	1500.366	-1.481	5.695	-7.038	0.459	6.201	-7.120
237122.955	NaN	2.554	7.576	-4.761	1511.355	1500.366	1500.366	-1.450	5.634	-7.023	0.459	6.201	-6.967
237123.932	NaN	2.565	7.576	-4.761	1509.890	1501.099	1499.634	-1.252	5.557	-7.023	0.612	6.048	-7.120
237124.908	NaN	2.565	7.565	-4.750	1509.890	1500.366	1499.634	-1.374	5.603	-7.038	0.459	6.201	-7.043
237125.885	NaN	2.565	7.565	-4.750	1511.355	1499.634	1500.366	-1.573	5.557	-7.130	0.459	6.278	-7.120
