Timestamp	PC Timestamp	Low Noise Accelerometer X	Low Noise Accelerometer Y	Low Noise Accelerometer Z	Int A12	Int A13	Int A14	Gyroscope X	Gyroscope Y	Gyroscope Z	Wide Range Accelerometer X	Wide Range Accelerometer Y	Wide Range Accelerometer Z
144075.287	NaN	-5.815	2.457	20.957	1504.029	1501.099	1495.971	-2.626	0.916	3.359	-0.383	-1.148	-9.263
144076.263	NaN	-5.837	2.457	20.967	1504.029	1501.099	1495.971	-2.595	0.962	3.389	-0.383	-1.072	-9.416
144077.240	NaN	-5.826	2.489	20.946	1503.297	1500.366	1493.040	-2.733	0.947	3.496	-0.306	-1.148	-9.569
144078.217	NaN	-5.826	2.478	20.978	1505.495	1501.099	1495.971	-2.611	0.855	3.542	-0.383	-1.072	-9.340
144079.193	NaN	-5.804	2.467	20.978	1504.029	1501.099	1495.238	-2.244	0.931	3.573	-0.306	-1.148	-9.493
144080.170	NaN	-5.870	2.457	21.000	1504.029	1500.366	1495.971	-2.305	0.916	3.588	-0.306	-1.148	-9.416
144081.146	NaN	-5.859	2.457	21.022	1504.762	1500.366	1494.505	-2.641	1.053	3.435	-0.459	-1.148	-9.263
144082.123	NaN	-5.891	2.467	20.989	1504.762	1500.366	1496.703	-2.565	1.069	3.374	-0.459	-1.148	-9.340
144083.099	NaN	-5.848	2.446	20.957	1504.029	1500.366	1495.971	-2.458	0.916	3.420	-0.383	-1.301	-9.340
144084.076	NaN	-5.859	2.446	20.957	1503.297	1501.099	1495.971	-2.458	0.733	3.282	-0.459	-1.148	-9.340
144085.052	NaN	-5.837	2.435	20.967	1504.029	1501.099	1495.238	-2.672	0.748	3.344	-0.153	-0.995	-9.340
144086.029	NaN	-5.815	2.424	21.011	1504.029	1501.099	1495.238	-2.656	0.855	3.374	-0.383	-1.072	-9.340
144087.006	NaN	-5.826	2.413	20.989	1504.762	1500.366	1495.971	-2.779	0.840	3.405	-0.459	-1.072	-9.263
144087.982	NaN	-5.848	2.424	20.913	1504.762	1500.366	1495.238	-2.718	0.992	3.527	-0.536	-1.148	-9.340
144088.959	NaN	-5.815	2.435	20.989	1503.297	1500.366	1496.703	-2.550	0.855	3.649	-0.459	-1.072	-9.340
144089.935	NaN	-5.783	2.435	20.946	1504.762	1500.366	1497.436	-2.672	0.779	3.588	-0.383	-1.072	-9.416
144090.912	NaN	-5.880	2.424	21.043	1504.762	1500.366	1495.238	-2.748	0.977	3.435	-0.383	-1.148	-9.493
144091.888	NaN	-5.870	2.446	21.022	1504.762	1501.099	1495.971	-2.412	0.992	3.420	-0.306	-0.995	-9.416
144092.865	NaN	-5.880	2.478	20.989	1505.495	1500.366	1495.238	-2.153	0.916	3.527	-0.383	-1.148	-9.340
144093.842	NaN	-5.804	2.478	20.978	1503.297	1501.099	1495.971	-2.244	0.870	3.420	-0.306	-1.225	-9.416
144094.818	NaN	-5.815	2.446	21.033	1503.297	1501.099	1495.238	-2.534	1.008	3.237	-0.459	-1.225	-9.340
144095.795	NaN	-5.870	2.446	21.043	1504.029	1500.366	1496.703	-2.779	1.115	3.298	-0.383	-0.995	-9.416
144096.771	NaN	-5.826	2.467	20.967	1504.029	1501.099	1495.971	-2.748	0.977	3.420	-0.306	-1.072	-9.416
144097.748	NaN	-5.783	2.478	20.957	1504.762	1500.366	1496.703	-2.443	0.901	3.496	-0.383	-1.148	-9.493
144098.724	NaN	-5.902	2.457	21.000	1504.762	1500.366	1495.238	-2.473	0.947	3.603	-0.306	-1.072	-9.416
144099.701	NaN	-5.859	2.467	21.000	1503.297	1500.366	1495.238	-2.519	0.809	3.389	-0.306	-1.225	-9.493
144100.677	NaN	-5.826	2.467	20.957	1504.762	1501.099	1496.703	-2.260	0.763	3.466	-0.383	-1.148	-9.493
144101.654	NaN	-5.859	2.467	20.902	1505.495	1500.366	1495.238	-2.351	0.824	3.573	-0.459	-1.148	-9.416
144102.631	NaN	-5.859	2.457	20.957	1503.297	1500.366	1495.971	-2.656	0.794	3.405	-0.459	-1.148	-9.416
144103.607	NaN	-5.870	2.467	21.011	1504.029	1499.634	1495.238	-2.733	0.870	3.344	-0.383	-1.148	-9.340
144104.584	NaN	-5.870	2.446	20.957	1505.495	1500.366	1495.238	-2.366	0.916	3.435	-0.459	-1.072	-9.340
144105.560	NaN	-5.848	2.446	20.946	1504.029	1500.366	1495.971	-2.427	1.145	3.481	-0.383	-1.072	-9.340
144106.537	NaN	-5.859	2.478	21.000	1504.029	1500.366	1496.703	-2.534	1.176	3.481	-0.306	-1.301	-9.493
144107.513	NaN	-5.859	2.457	20.967	1503.297	1500.366	1495.971	-2.672	1.099	3.588	-0.383	-1.301	-9.340
144108.490	NaN	-5.826	2.446	20.946	1503.297	1499.634	1497.436	-2.580	0.809	3.649	-0.459	-1.072	-9.416
144109.467	NaN	-5.913	2.457	21.022	1504.029	1501.099	1497.436	-2.473	0.901	3.344	-0.459	-1.072	-9.416
144110.443	NaN	-5.859	2.446	20.967	1504.762	1501.099	1495.238	-2.611	0.931	3.206	-0.383	-1.072	-9.416
144111.420	NaN	-5.815	2.489	20.978	1504.762	1501.099	1495.238	-2.718	0.916	3.344	-0.306	-1.148	-9.416
144112.396	NaN	-5.815	2.489	21.000	1504.029	1500.366	1496.703	-2.672	0.916	3.313	-0.459	-1.301	-9.493
144113.373	NaN	-5.837	2.446	21.033	1506.227	1500.366	1497.436	-2.641	0.885	3.450	-0.306	-1.072	-9.340
144114.349	NaN	-5.815	2.467	20.946	1504.029	1501.099	1495.971	-2.641	0.901	3.481	-0.383	-1.072	-9.493
144115.326	NaN	-5.761	2.446	20.989	1504.029	1501.099	1495.238	-2.458	0.809	3.450	-0.383	-1.148	-9.340
144116.302	NaN	-5.783	2.457	20.989	1503.297	1500.366	1495.971	-2.565	0.718	3.450	-0.383	-1.148	-9.493
144117.279	NaN	-5.815	2.467	20.989	1503.297	1501.099	1494.505	-2.626	0.901	3.359	-0.459	-1.225	-9.416
144118.256	NaN	-5.870	2.467	20.946	1505.495	1500.366	1495.238	-2.702	1.008	3.221	-0.459	-1.148	-9.263
144119.232	NaN	-5.870	2.489	20.946	1504.029	1500.366	1497.436	-2.702	0.947	3.221	-0.383	-1.148	-9.340
144120.209	NaN	-5.935	2.467	20.967	1504.029	1500.366	1495.971	-2.702	0.748	3.389	-0.383	-1.301	-9.416
144121.185	NaN	-5.880	2.457	21.033	1504.029	1500.366	1495.238	-2.519	0.870	3.634	-0.383	-1.072	-9.416
144122.162	NaN	-5.880	2.435	20.967	1504.029	1500.366	1494.505	-2.504	1.023	3.420	-0.306	-1.148	-9.416
144123.138	NaN	-5.859	2.446	20.946	1504.029	1501.099	1495.971	-2.672	0.855	3.328	-0.306	-1.148	-9.416
144124.115	NaN	-5.815	2.489	20.967	1504.029	1500.366	1495.238	-2.779	0.794	3.313	-0.306	-1.148	-9.263
144125.092	NaN	-5.870	2.478	21.022	1503.297	1500.366	1495.971	-2.504	0.947	3.313	-0.459	-1.148	-9.416
144126.068	NaN	-5.837	2.478	21.000	1502.564	1498.901	1495.971	-2.672	0.916	3.374	-0.383	-1.225	-9.416
144127.045	NaN	-5.826	2.478	21.033	1503.297	1500.366	1495.238	-2.702	0.779	3.481	-0.459	-1.148	-9.416
144128.021	NaN	-5.837	2.478	21.033	1504.762	1501.099	1494.505	-2.687	0.733	3.252	-0.383	-1.072	-9.263
144128.998	NaN	-5.880	2.478	21.022	1504.762	1500.366	1495.238	-2.565	0.687	3.359	-0.230	-1.148	-9.416
144129.974	NaN	-5.826	2.478	20.946	1504.029	1501.099	1496.703	-2.580	0.779	3.344	-0.306	-1.072	-9.416
144130.951	NaN	-5.848	2.500	20.957	1504.029	1500.366	1495.971	-2.824	0.901	3.359	-0.459	-1.148	-9.340
144131.927	NaN	-5.891	2.467	20.989	1504.762	1500.366	1496.703	-2.901	0.992	3.420	-0.383	-1.301	-9.416
144132.904	NaN	-5.859	2.467	20.978	1503.297	1499.634	1495.971	-2.901	0.840	3.435	-0.383	-1.225	-9.263
144133.881	NaN	-5.815	2.478	21.022	1503.297	1501.832	1495.238	-2.763	0.870	3.252	-0.383	-1.072	-9.493
144134.857	NaN	-5.870	2.500	21.043	1502.564	1500.366	1495.971	-2.962	0.870	3.374	-0.383	-1.148	-9.416
144135.834	NaN	-5.826	2.489	20.967	1504.029	1500.366	1495.971	-2.916	0.733	3.435	-0.383	-1.072	-9.416
144136.810	NaN	-5.837	2.489	21.033	1504.029	1500.366	1495.971	-2.809	0.718	3.282	-0.383	-1.225	-9.187
144137.787	NaN	-5.848	2.457	20.967	1504.029	1500.366	1495.971	-2.748	0.595	3.267	-0.306	-1.225	-9.416
144138.763	NaN	-5.826	2.457	21.022	1504.762	1499.634	1496.703	-2.763	0.519	3.298	-0.306	-1.148	-9.416
144139.740	NaN	-5.870	2.478	21.043	1503.297	1499.634	1496.703	-2.779	0.794	3.328	-0.383	-1.148	-9.416
144140.717	NaN	-5.870	2.446	21.022	1503.297	1501.099	1496.703	-2.870	1.038	3.313	-0.459	-1.378	-9.416
144141.693	NaN	-5.848	2.478	21.043	1504.762	1501.099	1495.238	-2.824	0.855	3.298	-0.383	-1.148	-9.416
144142.670	NaN	-5.848	2.467	20.967	1504.029	1500.366	1495.971	-2.840	0.702	3.252	-0.459	-1.072	-9.416
144143.646	NaN	-5.880	2.446	21.076	1503.297	1499.634	1496.703	-2.550	0.733	3.359	-0.383	-1.148	-9.569
144144.623	NaN	-5.859	2.467	21.000	1504.762	1500.366	1495.238	-2.672	0.733	3.359	-0.459	-1.148	-9.416
144145.599	NaN	-5.804	2.489	21.011	1502.564	1500.366	1495.238	-2.687	0.733	3.160	-0.383	-1.225	-9.493
144146.576	NaN	-5.826	2.511	20.989	1504.762	1500.366	1494.505	-2.763	0.611	3.221	-0.383	-1.225	-9.416
144147.552	NaN	-5.826	2.489	21.011	1504.762	1500.366	1495.238	-2.733	0.824	3.282	-0.306	-1.072	-9.340
144148.529	NaN	-5.837	2.478	20.967	1504.029	1500.366	1495.238	-2.672	0.855	3.344	-0.306	-1.072	-9.416
144149.506	NaN	-5.804	2.467	20.967	1504.029	1499.634	1495.238	-2.733	0.763	3.511	-0.459	-1.225	-9.416
144150.482	NaN	-5.870	2.435	21.000	1504.029	1498.901	1497.436	-2.626	0.718	3.496	-0.536	-1.225	-9.493
144151.459	NaN	-5.891	2.435	20.935	1503.297	1500.366	1495.238	-2.412	0.702	3.466	-0.230	-0.919	-9.340
144152.435	NaN	-5.902	2.467	20.957	1504.029	1501.099	1495.971	-2.702	0.779	3.298	-0.459	-1.148	-9.416
144153.412	NaN	-5.880	2.457	21.022	1503.297	1499.634	1495.971	-2.733	0.794	3.374	-0.383	-1.225	-9.416
144154.388	NaN	-5.837	2.435	20.957	1504.762	1501.099	1496.703	-2.794	0.702	3.511	-0.383	-1.072	-9.340
144155.365	NaN	-5.848	2.489	20.978	1504.029	1500.366	1495.238	-2.763	0.595	3.466	-0.306	-1.301	-9.416
144156.342	NaN	-5.826	2.467	21.000	1504.029	1500.366	1495.971	-2.763	0.672	3.313	-0.459	-1.072	-9.416
144157.318	NaN	-5.837	2.457	21.011	1504.029	1501.099	1496.703	-2.656	0.824	3.267	-0.383	-0.995	-9.340
144158.295	NaN	-5.859	2.478	21.011	1504.762	1501.099	1495.238	-2.580	0.794	3.252	-0.459	-1.225	-9.416
144159.271	NaN	-5.804	2.457	21.076	1503.297	1500.366	1495.238	-2.580	0.748	3.221	-0.306	-1.072	-9.493
144160.248	NaN	-5.804	2.457	21.076	1504.029	1500.366	1495.971	-2.626	0.733	3.374	-0.306	-1.148	-9.340
144161.224	NaN	-5.815	2.457	21.033	1503.297	1499.634	1496.703	-2.763	0.595	3.206	-0.230	-1.225	-9.263
144162.201	NaN	-5.870	2.446	21.033	1504.029	1500.366	1495.238	-2.733	0.565	3.344	-0.383	-0.919	-9.187
144163.177	NaN	-5.848	2.478	21.000	1504.762	1500.366	1496.703	-2.840	0.641	3.374	-0.459	-1.225	-9.493
144164.154	NaN	-5.891	2.478	20.957	1503.297	1500.366	1495.238	-2.794	0.672	3.420	-0.306	-1.072	-9.340
144165.131	NaN	-5.826	2.489	21.011	1504.029	1500.366	1497.436	-2.718	0.702	3.496	-0.383	-1.148	-9.263
144166.107	NaN	-5.859	2.467	21.076	1504.029	1500.366	1495.971	-2.931	0.656	3.435	-0.306	-1.148	-9.263
144167.084	NaN	-5.848	2.467	21.011	1502.564	1499.634	1495.238	-2.992	0.702	3.344	-0.459	-1.225	-9.416
144168.060	NaN	-5.837	2.478	20.989	1504.029	1500.366	1496.703	-2.962	0.626	3.389	-0.383	-1.148	-9.340
144169.037	NaN	-5.837	2.467	21.043	1504.029	1500.366	1495.971	-2.977	0.718	3.389	-0.306	-1.225	-9.416
144170.013	NaN	-5.793	2.478	20.978	1502.564	1500.366	1494.505	-2.748	0.870	3.130	-0.306	-1.072	-9.263
144170.990	NaN	-5.837	2.478	20.978	1502.564	1500.366	1495.971	-2.855	0.824	3.099	-0.230	-1.148	-9.263
144171.967	NaN	-5.880	2.478	21.043	1503.297	1499.634	1495.238	-2.763	0.733	3.313	-0.383	-1.148	-9.340
144172.943	NaN	-5.859	2.467	21.000	1503.297	1500.366	1495.971	-2.748	0.626	3.237	-0.459	-1.225	-9.416
144173.920	NaN	-5.837	2.457	20.957	1504.029	1500.366	1496.703	-2.901	0.718	3.298	-0.383	-1.148	-9.416
144174.896	NaN	-5.859	2.478	21.000	1504.762	1500.366	1495.238	-2.947	0.763	3.389	-0.459	-1.225	-9.416
144175.873	NaN	-5.891	2.467	20.946	1501.832	1500.366	1494.505	-2.870	0.733	3.496	-0.383	-1.148	-9.493
144176.849	NaN	-5.848	2.489	21.011	1503.297	1500.366	1495.238	-2.840	0.718	3.359	-0.459	-1.148	-9.340
144177.826	NaN	-5.815	2.446	21.011	1503.297	1501.099	1496.703	-2.763	0.550	3.298	-0.459	-1.225	-9.493
144178.802	NaN	-5.826	2.457	21.000	1504.029	1501.832	1495.971	-2.748	0.534	3.221	-0.306	-1.072	-9.493
144179.779	NaN	-5.859	2.478	20.957	1504.029	1500.366	1496.703	-2.809	0.611	3.160	-0.306	-1.148	-9.493
144180.756	NaN	-5.826	2.424	21.033	1504.762	1501.099	1495.971	-2.870	0.672	3.237	-0.383	-1.225	-9.263
144181.732	NaN	-5.815	2.467	20.967	1504.029	1501.099	1494.505	-2.901	0.504	3.282	-0.383	-1.072	-9.340
144182.709	NaN	-5.946	2.446	21.043	1504.029	1501.099	1495.238	-3.130	0.489	3.267	-0.306	-1.072	-9.187
144183.685	NaN	-5.902	2.457	21.011	1504.762	1500.366	1494.505	-3.084	0.595	3.130	-0.383	-1.148	-9.340
144184.662	NaN	-5.902	2.446	21.043	1503.297	1499.634	1495.971	-2.840	0.702	3.191	-0.383	-1.072	-9.340
144185.638	NaN	-5.880	2.446	21.000	1504.029	1501.099	1495.971	-2.763	0.702	3.450	-0.459	-1.148	-9.493
144186.615	NaN	-5.848	2.457	21.022	1504.762	1499.634	1497.436	-2.809	0.733	3.466	-0.459	-1.072	-9.416
144187.592	NaN	-5.859	2.467	20.913	1503.297	1499.634	1493.773	-2.885	0.656	3.481	-0.536	-1.148	-9.416
144188.568	NaN	-5.859	2.467	20.935	1504.029	1500.366	1494.505	-2.855	0.611	3.420	-0.459	-1.072	-9.416
144189.545	NaN	-5.848	2.467	20.913	1503.297	1499.634	1495.238	-2.870	0.595	3.298	-0.306	-1.148	-9.340
144190.521	NaN	-5.880	2.467	20.935	1504.029	1500.366	1497.436	-2.824	0.733	3.176	-0.383	-1.072	-9.263
144191.498	NaN	-5.837	2.478	21.033	1504.029	1500.366	1495.238	-2.840	0.626	3.115	-0.383	-1.225	-9.416
144192.474	NaN	-5.793	2.457	21.000	1503.297	1500.366	1495.971	-2.947	0.656	3.191	-0.383	-1.148	-9.416
144193.451	NaN	-5.804	2.457	20.978	1504.029	1500.366	1497.436	-2.870	0.733	3.389	-0.383	-1.072	-9.416
144194.427	NaN	-5.913	2.489	20.957	1504.762	1501.099	1495.971	-2.824	0.519	3.389	-0.383	-1.072	-9.416
144195.404	NaN	-5.826	2.489	20.946	1504.762	1501.099	1495.238	-2.931	0.550	3.267	-0.306	-1.072	-9.416
144196.381	NaN	-5.826	2.478	20.935	1503.297	1500.366	1495.238	-2.947	0.580	3.359	-0.383	-1.072	-9.416
144197.357	NaN	-5.793	2.435	20.978	1503.297	1501.099	1495.238	-2.840	0.519	3.435	-0.383	-1.148	-9.416
144198.334	NaN	-5.848	2.446	20.902	1503.297	1501.099	1496.703	-2.840	0.595	3.145	-0.383	-1.148	-9.340
144199.310	NaN	-5.870	2.457	20.978	1503.297	1500.366	1494.505	-2.992	0.855	3.053	-0.306	-1.148	-9.416
144200.287	NaN	-5.837	2.478	20.967	1504.029	1501.099	1495.238	-3.069	0.763	3.130	-0.306	-0.995	-9.340
144201.263	NaN	-5.902	2.467	20.957	1504.029	1501.099	1495.238	-2.931	0.565	3.237	-0.306	-1.148	-9.493
144202.240	NaN	-5.880	2.489	20.946	1502.564	1499.634	1495.238	-2.824	0.550	3.267	-0.459	-1.072	-9.416
144203.217	NaN	-5.848	2.500	20.957	1504.029	1501.099	1495.971	-2.962	0.443	3.298	-0.306	-1.072	-9.416
144204.193	NaN	-5.859	2.457	21.011	1503.297	1499.634	1495.238	-2.992	0.611	3.282	-0.306	-1.072	-9.263
144205.170	NaN	-5.804	2.478	20.946	1503.297	1499.634	1497.436	-2.901	0.794	3.191	-0.383	-1.225	-9.340
144206.146	NaN	-5.859	2.489	20.967	1504.029	1500.366	1495.238	-2.870	0.794	3.053	-0.306	-1.072	-9.340
144207.123	NaN	-5.837	2.478	20.978	1502.564	1499.634	1496.703	-2.977	0.748	3.115	-0.383	-1.072	-9.416
144208.099	NaN	-5.826	2.457	21.022	1504.762	1501.099	1495.238	-2.977	0.763	3.038	-0.306	-1.148	-9.340
144209.076	NaN	-5.837	2.435	20.967	1503.297	1499.634	1495.971	-2.931	0.641	3.069	-0.383	-1.148	-9.416
144210.052	NaN	-5.815	2.457	20.989	1503.297	1499.634	1495.238	-2.702	0.534	3.328	-0.383	-1.072	-9.416
144211.029	NaN	-5.848	2.467	21.054	1502.564	1500.366	1495.971	-2.626	0.458	3.389	-0.459	-1.301	-9.493
144212.006	NaN	-5.826	2.446	21.043	1503.297	1500.366	1495.238	-2.702	0.504	3.389	-0.306	-1.225	-9.340
144212.982	NaN	-5.837	2.467	21.065	1503.297	1500.366	1493.773	-2.962	0.672	3.420	-0.459	-1.148	-9.416
144213.959	NaN	-5.859	2.467	21.054	1503.297	1500.366	1495.971	-2.992	0.550	3.328	-0.383	-0.995	-9.416
144214.935	NaN	-5.804	2.478	20.989	1504.762	1500.366	1495.971	-2.763	0.580	3.221	-0.383	-1.148	-9.340
144215.912	3731583041.682	-5.848	2.446	20.978	1504.029	1500.366	1495.238	-2.519	0.611	3.191	-0.306	-1.072	-9.340
144216.888	NaN	-5.793	2.457	21.065	1504.762	1500.366	1495.238	-2.748	0.489	3.282	-0.383	-1.148	-9.263
144217.865	NaN	-5.804	2.478	21.022	1504.762	1501.099	1495.971	-3.069	0.412	3.252	-0.306	-1.148	-9.416
144218.842	NaN	-5.804	2.489	20.978	1504.029	1500.366	1495.238	-2.809	0.519	3.191	-0.459	-1.148	-9.263
144219.818	NaN	-5.804	2.478	21.011	1504.029	1500.366	1496.703	-2.763	0.626	2.977	-0.383	-1.072	-9.340
144220.795	NaN	-5.837	2.467	20.967	1505.495	1501.099	1495.971	-2.870	0.687	2.931	-0.383	-1.225	-9.416
144221.771	NaN	-5.891	2.478	21.011	1502.564	1501.099	1494.505	-3.008	0.595	3.160	-0.459	-1.148	-9.263
144222.748	NaN	-5.826	2.500	21.043	1503.297	1500.366	1495.238	-3.008	0.641	3.450	-0.459	-1.072	-9.340
144223.724	NaN	-5.837	2.467	21.043	1504.029	1500.366	1495.971	-3.206	0.626	3.282	-0.306	-1.148	-9.416
144224.701	NaN	-5.848	2.489	20.989	1502.564	1499.634	1495.238	-2.962	0.672	3.130	-0.383	-1.072	-9.416
144225.677	NaN	-5.804	2.500	20.957	1504.029	1501.832	1496.703	-2.840	0.947	3.160	-0.459	-1.072	-9.493
144226.654	NaN	-5.804	2.467	21.043	1504.029	1500.366	1495.238	-2.702	0.901	3.160	-0.306	-1.225	-9.416
144227.631	NaN	-5.826	2.489	21.054	1501.832	1500.366	1495.238	-2.718	0.656	2.992	-0.459	-1.072	-9.340
144228.607	NaN	-5.804	2.457	21.065	1503.297	1501.099	1495.238	-2.916	0.382	3.145	-0.306	-1.148	-9.340
144229.584	NaN	-5.837	2.467	20.989	1504.029	1500.366	1493.040	-3.145	0.534	3.176	-0.459	-1.225	-9.416
144230.560	NaN	-5.837	2.467	21.043	1505.495	1500.366	1494.505	-3.053	0.489	3.206	-0.306	-1.225	-9.340
144231.537	NaN	-5.848	2.457	21.011	1504.762	1499.634	1496.703	-2.840	0.504	3.221	-0.306	-1.148	-9.340
144232.513	NaN	-5.880	2.457	21.065	1503.297	1498.901	1495.971	-2.885	0.473	3.130	-0.383	-1.148	-9.493
144233.490	NaN	-5.859	2.446	21.033	1503.297	1500.366	1495.971	-2.962	0.458	3.130	-0.383	-0.995	-9.340
144234.467	NaN	-5.902	2.467	20.978	1504.029	1501.099	1497.436	-2.565	0.473	3.145	-0.536	-1.148	-9.340
144235.443	NaN	-5.902	2.478	20.978	1504.029	1501.099	1496.703	-2.534	0.748	3.145	-0.383	-1.148	-9.263
144236.420	NaN	-5.848	2.500	20.946	1504.029	1501.099	1495.971	-2.916	0.687	3.099	-0.230	-1.072	-9.416
144237.396	NaN	-5.848	2.500	20.989	1504.029	1500.366	1494.505	-3.221	0.473	3.008	-0.383	-1.225	-9.340
144238.373	NaN	-5.870	2.478	21.000	1504.029	1500.366	1495.238	-3.115	0.504	2.947	-0.306	-1.072	-9.493
144239.349	NaN	-5.859	2.478	21.000	1503.297	1501.832	1495.971	-2.794	0.504	3.267	-0.383	-1.225	-9.416
144240.326	NaN	-5.859	2.467	20.978	1504.029	1501.099	1495.971	-2.626	0.443	3.221	-0.459	-1.072	-9.340
144241.302	NaN	-5.804	2.457	20.978	1503.297	1501.832	1494.505	-2.931	0.473	3.008	-0.306	-1.148	-9.263
144242.279	NaN	-5.826	2.457	21.000	1503.297	1499.634	1496.703	-2.977	0.473	3.160	-0.383	-1.148	-9.416
144243.256	NaN	-5.804	2.489	21.022	1504.762	1500.366	1495.971	-2.885	0.595	3.267	-0.383	-0.995	-9.416
144244.232	NaN	-5.793	2.446	21.043	1503.297	1500.366	1493.773	-2.885	0.763	3.206	-0.383	-1.072	-9.263
144245.209	NaN	-5.859	2.478	21.043	1503.297	1500.366	1495.971	-2.763	0.702	3.191	-0.459	-1.225	-9.340
144246.185	NaN	-5.848	2.457	21.076	1504.762	1500.366	1495.238	-2.611	0.626	3.069	-0.306	-1.225	-9.493
144247.162	NaN	-5.804	2.457	21.000	1502.564	1500.366	1494.505	-2.656	0.702	3.069	-0.459	-1.148	-9.263
144248.138	NaN	-5.859	2.457	21.076	1503.297	1501.099	1495.971	-2.779	0.626	3.115	-0.383	-1.148	-9.263
144249.115	NaN	-5.870	2.457	21.000	1504.029	1499.634	1495.971	-2.947	0.366	3.374	-0.383	-1.072	-9.416
144250.092	NaN	-5.880	2.489	21.000	1503.297	1500.366	1495.238	-2.855	0.351	3.176	-0.459	-1.148	-9.493
144251.068	NaN	-5.880	2.478	21.000	1503.297	1500.366	1495.238	-2.962	0.565	3.008	-0.306	-1.072	-9.263
144252.045	NaN	-5.815	2.457	20.989	1504.029	1499.634	1495.238	-2.855	0.641	3.099	-0.459	-1.225	-9.416
144253.021	NaN	-5.848	2.467	21.065	1504.029	1501.099	1495.971	-2.901	0.565	3.115	-0.383	-1.225	-9.416
144253.998	NaN	-5.848	2.467	21.011	1502.564	1500.366	1495.971	-2.947	0.427	3.160	-0.383	-1.148	-9.340
144254.974	NaN	-5.891	2.467	21.011	1503.297	1499.634	1497.436	-3.008	0.382	3.206	-0.306	-1.225	-9.340
144255.951	NaN	-5.859	2.446	20.989	1504.029	1500.366	1495.238	-2.718	0.427	3.069	-0.383	-1.225	-9.263
144256.927	NaN	-5.913	2.467	21.011	1503.297	1501.099	1497.436	-2.672	0.534	3.084	-0.383	-1.148	-9.416
144257.904	NaN	-5.902	2.489	21.011	1503.297	1501.099	1495.238	-2.519	0.580	3.298	-0.383	-2.297	-9.493
144258.881	NaN	-5.804	2.489	21.022	1504.029	1500.366	1494.505	-2.870	0.611	3.252	-0.306	-1.148	-9.340
144259.857	NaN	-5.826	2.457	21.000	1504.029	1500.366	1495.971	-3.084	0.519	2.901	-0.383	-1.225	-9.493
144260.834	NaN	-5.837	2.478	21.011	1502.564	1501.099	1495.971	-3.130	0.427	2.855	-0.459	-0.919	-9.416
144261.810	NaN	-5.913	2.478	21.011	1504.029	1501.099	1496.703	-2.885	0.458	3.130	-0.459	-1.072	-9.493
144262.787	NaN	-5.880	2.478	21.076	1504.762	1500.366	1495.971	-2.733	0.565	3.191	-0.306	-1.072	-9.416
144263.763	NaN	-5.793	2.478	21.011	1504.029	1500.366	1495.971	-2.763	0.427	3.206	-0.383	-1.148	-9.416
144264.740	NaN	-5.848	2.478	21.022	1502.564	1500.366	1495.238	-2.794	0.504	3.267	-0.459	-1.072	-9.416
144265.717	NaN	-5.848	2.489	20.989	1504.029	1501.832	1496.703	-2.855	0.473	3.145	-0.383	-1.148	-9.416
144266.693	NaN	-5.902	2.478	20.978	1501.832	1501.099	1496.703	-2.885	0.519	3.145	-0.306	-1.148	-9.340
144267.670	NaN	-5.880	2.500	20.989	1504.029	1500.366	1496.703	-2.977	0.489	3.115	-0.383	-0.995	-9.340
144268.646	NaN	-5.848	2.467	20.946	1504.029	1500.366	1495.971	-2.870	0.565	3.084	-0.230	-1.225	-9.340
144269.623	NaN	-5.880	2.457	21.000	1504.029	1500.366	1495.238	-2.931	0.519	3.053	-0.383	-1.225	-9.416
144270.599	NaN	-5.804	2.478	20.957	1504.029	1501.832	1496.703	-2.794	0.550	3.191	-0.536	-1.225	-9.416
144271.576	NaN	-5.837	2.467	20.967	1504.029	1501.099	1495.971	-2.947	0.397	3.237	-0.536	-2.373	-9.416
144272.552	NaN	-5.870	2.500	21.022	1504.029	1500.366	1495.238	-2.916	0.275	3.176	-0.383	-1.148	-9.416
144273.529	NaN	-5.880	2.489	21.011	1504.762	1500.366	1495.971	-2.885	0.351	2.977	-0.536	-1.072	-9.416
144274.506	NaN	-5.848	2.478	20.946	1504.762	1500.366	1495.238	-2.809	0.519	2.947	-0.383	-1.148	-9.340
144275.482	NaN	-5.793	2.446	20.989	1503.297	1501.099	1495.971	-2.977	0.458	2.962	-0.383	-1.225	-9.416
144276.459	NaN	-5.848	2.446	20.967	1504.029	1500.366	1494.505	-3.053	0.351	3.053	-0.383	-1.148	-9.263
144277.435	NaN	-5.870	2.467	21.000	1504.029	1501.099	1495.238	-3.038	0.519	3.069	-0.306	-1.148	-9.340
144278.412	NaN	-5.848	2.489	20.935	1504.762	1501.099	1495.238	-2.977	0.534	3.053	-0.459	-2.373	-9.493
144279.388	NaN	-5.804	2.478	20.978	1504.029	1501.099	1495.238	-2.855	0.427	2.931	-0.306	-1.148	-9.416
144280.365	NaN	-5.815	2.467	20.989	1503.297	1501.099	1495.238	-2.916	0.611	2.962	-0.459	-1.225	-9.416
144281.342	NaN	-5.837	2.478	21.000	1504.029	1500.366	1495.971	-2.870	0.580	2.977	-0.383	-1.148	-9.263
144282.318	NaN	-5.848	2.457	21.011	1503.297	1501.832	1496.703	-2.824	0.595	3.115	-0.383	-1.072	-9.416
144283.295	NaN	-5.848	2.489	20.946	1504.762	1501.099	1495.971	-2.870	0.641	2.947	-0.230	-0.995	-9.493
144284.271	NaN	-5.859	2.467	21.022	1504.029	1501.832	1496.703	-2.855	0.534	2.962	-0.306	-1.072	-9.263
144285.248	NaN	-5.859	2.457	21.043	1504.029	1501.099	1495.238	-2.702	0.443	2.977	-0.383	-1.148	-9.263
144286.224	NaN	-5.891	2.457	21.011	1504.029	1500.366	1495.238	-2.824	0.412	3.130	-0.383	-1.072	-9.263
144287.201	3731583041.954	-5.913	2.457	21.033	1503.297	1500.366	1495.238	-2.824	0.504	3.176	-0.459	-1.225	-9.416
144288.177	NaN	-5.793	2.478	21.011	1504.029	1501.832	1495.971	-2.947	0.550	2.962	-0.459	-0.995	-9.416
144289.154	NaN	-5.826	2.446	21.054	1504.029	1501.099	1496.703	-3.069	0.565	2.977	-0.459	-1.148	-9.263
144290.131	NaN	-5.891	2.435	21.011	1504.762	1501.099	1494.505	-3.221	0.641	2.870	-0.306	-1.225	-9.416
144291.107	NaN	-5.902	2.457	20.978	1504.762	1500.366	1495.238	-3.282	0.855	2.977	-0.383	-1.072	-9.340
144292.084	NaN	-5.957	2.489	20.946	1504.029	1500.366	1495.971	-2.855	0.580	3.008	-0.383	-1.148	-9.416
144293.060	NaN	-5.924	2.500	20.924	1504.029	1501.832	1497.436	-2.855	0.458	3.023	-0.383	-1.225	-9.416
144294.037	NaN	-5.848	2.478	20.913	1504.762	1501.099	1495.971	-2.947	0.412	2.855	-0.383	-1.072	-9.340
144295.013	NaN	-5.859	2.457	21.000	1504.029	1501.099	1495.238	-2.947	0.611	2.840	-0.306	-1.072	-9.416
144295.990	NaN	-5.859	2.467	21.065	1502.564	1500.366	1495.238	-2.840	0.611	2.779	-0.459	-1.225	-9.340
144296.967	NaN	-5.859	2.467	20.978	1504.762	1501.099	1496.703	-2.656	0.580	2.992	-0.383	-1.225	-9.416
144297.943	NaN	-5.848	2.467	20.989	1504.762	1500.366	1496.703	-2.626	0.626	3.176	-0.383	-0.995	-9.416
144298.920	NaN	-5.891	2.489	20.989	1504.762	1500.366	1495.238	-2.824	0.626	3.191	-0.383	-1.072	-9.340
144299.896	NaN	-5.859	2.457	20.967	1503.297	1500.366	1495.971	-2.916	0.550	2.962	-0.383	-1.148	-9.493
144300.873	NaN	-5.924	2.446	20.946	1504.762	1500.366	1495.238	-2.855	0.580	2.824	-0.459	-1.148	-9.416
144301.849	NaN	-5.837	2.457	21.000	1503.297	1501.099	1495.238	-2.794	0.473	2.992	-0.383	-1.225	-9.416
144302.826	NaN	-5.826	2.467	21.000	1504.029	1500.366	1495.238	-2.779	0.519	3.115	-0.459	-1.148	-9.416
144303.802	NaN	-5.815	2.489	21.011	1503.297	1501.099	1495.238	-2.687	0.534	2.962	-0.383	-1.072	-9.416
144304.779	NaN	-5.880	2.457	21.022	1502.564	1501.099	1495.238	-2.595	0.565	2.855	-0.459	-1.072	-9.493
144305.756	NaN	-5.848	2.478	20.946	1504.029	1500.366	1496.703	-2.565	0.550	2.885	-0.459	-1.225	-9.340
144306.732	NaN	-5.859	2.489	21.054	1504.029	1500.366	1495.238	-2.763	0.595	2.931	-0.459	-1.225	-9.340
144307.709	NaN	-5.804	2.446	21.022	1504.762	1500.366	1495.971	-2.702	0.580	3.130	-0.383	-0.995	-9.416
144308.685	NaN	-5.837	2.467	20.967	1503.297	1500.366	1495.238	-2.687	0.672	2.977	-0.383	-1.225	-9.263
144309.662	NaN	-5.826	2.457	20.935	1504.762	1500.366	1495.238	-2.748	0.733	2.916	-0.459	-1.072	-9.416
144310.638	NaN	-5.837	2.500	21.054	1504.029	1500.366	1495.238	-2.870	0.656	2.855	-0.536	-1.072	-9.493
144311.615	NaN	-5.837	2.467	21.065	1502.564	1499.634	1496.703	-2.840	0.626	2.748	-0.306	-1.148	-9.493
144312.592	NaN	-5.902	2.467	20.978	1503.297	1500.366	1495.238	-2.611	0.656	2.885	-0.306	-1.072	-9.493
144313.568	NaN	-5.870	2.457	20.978	1504.029	1500.366	1495.971	-2.473	0.809	2.992	-0.383	-1.225	-9.416
144314.545	NaN	-5.815	2.478	21.011	1504.029	1501.099	1496.703	-2.718	0.870	3.084	-0.383	-1.072	-9.340
144315.521	NaN	-5.815	2.467	21.000	1504.029	1500.366	1495.971	-2.809	0.809	2.916	-0.306	-1.072	-9.416
144316.498	NaN	-5.870	2.489	21.011	1504.029	1499.634	1495.971	-2.718	0.809	2.870	-0.306	-1.225	-9.340
144317.474	NaN	-5.859	2.467	21.043	1503.297	1500.366	1495.971	-2.641	0.656	2.824	-0.383	-1.225	-9.416
144318.451	NaN	-5.815	2.478	21.033	1503.297	1499.634	1495.238	-2.672	0.656	2.901	-0.383	-1.072	-9.340
144319.427	NaN	-5.826	2.500	20.967	1504.762	1501.099	1497.436	-2.855	0.687	3.053	-0.459	-1.225	-9.416
144320.404	NaN	-5.891	2.457	20.967	1503.297	1499.634	1497.436	-2.794	0.611	2.901	-0.383	-0.995	-9.340
144321.381	NaN	-5.870	2.446	20.967	1499.634	1500.366	1495.238	-2.763	0.672	2.870	-0.459	-1.072	-9.416
144322.357	NaN	-5.848	2.457	21.011	1504.029	1500.366	1496.703	-2.855	0.656	2.947	-0.306	-1.072	-9.263
144323.334	NaN	-5.826	2.478	21.011	1503.297	1500.366	1494.505	-2.611	0.641	3.130	-0.459	-1.148	-9.263
144324.310	NaN	-5.826	2.457	21.011	1503.297	1500.366	1495.971	-2.443	0.473	3.313	-0.306	-1.072	-9.493
144325.287	NaN	-5.826	2.457	21.076	1504.762	1500.366	1494.505	-2.519	0.565	3.221	-0.459	-1.225	-9.340
144326.263	NaN	-5.837	2.457	20.946	1504.029	1500.366	1495.971	-2.641	0.656	2.977	-0.383	-1.072	-9.416
144327.240	NaN	-5.880	2.489	21.076	1503.297	1500.366	1495.238	-2.687	0.718	2.779	-0.383	-1.225	-9.416
144328.217	NaN	-5.902	2.489	21.011	1504.029	1499.634	1495.971	-2.916	0.733	2.687	-0.383	-0.995	-9.416
144329.193	NaN	-5.859	2.489	20.989	1504.762	1501.099	1495.971	-2.794	0.626	2.794	-0.459	-0.995	-9.340
144330.170	NaN	-5.848	2.478	21.043	1504.029	1499.634	1496.703	-2.824	0.565	2.794	-0.383	-1.148	-9.493
144331.146	NaN	-5.815	2.489	21.033	1502.564	1500.366	1494.505	-2.733	0.595	2.840	-0.459	-0.995	-9.187
144332.123	NaN	-5.859	2.489	21.033	1504.762	1500.366	1495.238	-2.840	0.595	2.885	-0.459	-1.301	-9.187
144333.099	NaN	-5.848	2.500	21.076	1501.832	1500.366	1495.238	-2.962	0.672	2.840	-0.306	-0.995	-9.416
144334.076	NaN	-5.826	2.478	21.011	1503.297	1500.366	1496.703	-2.809	0.687	2.901	-0.306	-1.225	-9.340
144335.052	NaN	-5.870	2.489	21.043	1503.297	1499.634	1496.703	-2.626	0.656	3.038	-0.459	-1.072	-9.340
144336.029	NaN	-5.837	2.478	20.957	1502.564	1500.366	1494.505	-2.763	0.580	3.084	-0.536	-1.072	-9.340
144337.006	NaN	-5.837	2.500	20.989	1504.029	1501.832	1497.436	-2.931	0.611	2.901	-0.383	-1.148	-9.187
144337.982	NaN	-5.859	2.478	20.967	1502.564	1500.366	1495.238	-2.733	0.626	2.870	-0.383	-1.148	-9.569
144338.959	NaN	-5.848	2.511	20.989	1502.564	1500.366	1494.505	-2.840	0.595	2.977	-0.459	-1.225	-9.493
144339.935	NaN	-5.859	2.489	21.033	1504.029	1501.099	1496.703	-2.840	0.687	3.023	-0.536	-1.072	-9.416
144340.912	NaN	-5.870	2.446	21.130	1501.832	1501.099	1494.505	-2.718	0.611	2.992	-0.306	-1.225	-9.416
144341.888	NaN	-5.859	2.446	21.000	1503.297	1501.099	1495.971	-2.718	0.641	2.855	-0.383	-1.148	-9.340
144342.865	NaN	-5.891	2.478	21.043	1504.029	1500.366	1494.505	-2.626	0.473	2.840	-0.306	-0.995	-9.493
144343.842	NaN	-5.902	2.457	21.011	1502.564	1501.099	1495.971	-2.656	0.626	2.855	-0.306	-1.148	-9.416
144344.818	NaN	-5.870	2.457	20.967	1503.297	1501.099	1495.971	-2.916	0.779	2.840	-0.383	-1.072	-9.340
144345.795	NaN	-5.826	2.457	20.989	1505.495	1501.099	1495.971	-2.855	0.824	2.809	-0.306	-1.148	-9.340
144346.771	NaN	-5.848	2.457	20.957	1504.762	1500.366	1495.971	-2.779	0.672	2.779	-0.383	-1.148	-9.340
144347.748	NaN	-5.848	2.446	20.957	1504.762	1501.099	1495.238	-2.733	0.504	2.626	-0.306	-1.148	-9.340
144348.724	NaN	-5.859	2.478	20.978	1504.029	1500.366	1496.703	-2.489	0.626	2.565	-0.459	-0.995	-9.340
144349.701	NaN	-5.826	2.457	20.946	1504.029	1499.634	1497.436	-2.672	0.656	2.595	-0.383	-1.072	-9.416
144350.677	NaN	-5.837	2.489	21.011	1504.029	1500.366	1495.238	-2.855	0.702	2.840	-0.536	-1.148	-9.263
144351.654	NaN	-5.848	2.489	21.000	1504.029	1500.366	1495.971	-2.626	0.748	3.099	-0.383	-1.148	-9.416
144352.631	NaN	-5.935	2.478	20.967	1504.762	1500.366	1496.703	-2.275	0.748	2.992	-0.383	-1.225	-9.493
144353.607	NaN	-5.880	2.500	21.033	1502.564	1499.634	1495.238	-2.214	0.687	2.672	-0.383	-1.148	-9.340
144354.584	NaN	-5.848	2.467	20.967	1504.029	1501.099	1494.505	-2.763	0.748	2.687	-0.383	-1.072	-9.340
144355.560	NaN	-5.870	2.467	20.935	1503.297	1499.634	1496.703	-2.550	0.763	2.779	-0.383	-1.072	-9.340
144356.537	NaN	-5.815	2.457	20.978	1502.564	1498.901	1496.703	-2.595	0.626	2.733	-0.383	-1.148	-9.416
144357.513	NaN	-5.783	2.467	21.043	1503.297	1500.366	1495.971	-2.427	0.595	2.687	-0.459	-1.225	-9.340
144358.490	NaN	-5.804	2.467	20.989	1504.029	1500.366	1495.971	-2.275	0.626	2.779	-0.459	-1.072	-9.493
144359.467	NaN	-5.870	2.457	21.022	1504.762	1501.832	1496.703	-2.260	0.702	2.824	-0.383	-1.072	-9.340
144360.443	NaN	-5.859	2.435	21.000	1505.495	1500.366	1495.238	-2.580	0.824	2.809	-0.459	-1.148	-9.416
144361.420	NaN	-5.891	2.489	21.000	1504.762	1500.366	1495.971	-2.763	0.672	2.885	-0.383	-1.148	-9.416
144362.396	NaN	-5.891	2.446	21.022	1502.564	1501.099	1495.971	-2.733	0.565	2.824	-0.383	-1.072	-9.416
144363.373	NaN	-5.837	2.457	21.000	1503.297	1500.366	1495.971	-2.595	0.595	2.687	-0.459	-1.148	-9.493
144364.349	NaN	-5.870	2.500	21.011	1504.029	1501.099	1495.971	-2.504	0.824	2.656	-0.383	-1.072	-9.416
144365.326	NaN	-5.848	2.489	21.011	1503.297	1500.366	1495.238	-2.748	0.809	2.641	-0.383	-1.072	-9.416
144366.302	NaN	-5.870	2.457	21.022	1502.564	1500.366	1495.238	-2.855	0.748	2.840	-0.383	-1.148	-9.416
144367.279	NaN	-5.891	2.478	21.022	1504.029	1500.366	1495.238	-2.763	0.687	2.824	-0.306	-1.148	-9.493
144368.256	NaN	-5.859	2.457	20.978	1504.029	1500.366	1496.703	-2.702	0.672	2.901	-0.383	-1.148	-9.340
144369.232	NaN	-5.870	2.467	20.957	1504.762	1500.366	1495.971	-2.641	0.794	2.794	-0.383	-1.148	-9.416
144370.209	NaN	-5.870	2.489	20.902	1504.029	1501.099	1494.505	-2.595	0.824	2.733	-0.383	-1.072	-9.340
144371.185	NaN	-5.804	2.478	20.913	1504.029	1500.366	1495.238	-2.550	0.718	2.748	-0.230	-1.148	-9.416
144372.162	NaN	-5.826	2.467	20.957	1504.029	1500.366	1494.505	-2.580	0.672	2.870	-0.536	-0.995	-9.416
144373.138	NaN	-5.815	2.478	20.978	1504.029	1501.099	1497.436	-2.595	0.611	2.901	-0.383	-1.072	-9.263
144374.115	NaN	-5.902	2.478	20.924	1504.029	1501.099	1495.971	-2.733	0.504	2.855	-0.383	-1.148	-9.340
144375.092	NaN	-5.870	2.457	20.967	1504.762	1500.366	1495.238	-2.931	0.580	2.748	-0.383	-1.148	-9.340
144376.068	NaN	-5.848	2.478	21.022	1504.029	1501.099	1495.238	-2.733	0.641	2.580	-0.383	-1.148	-9.340
144377.045	NaN	-5.826	2.467	21.011	1504.762	1501.099	1496.703	-2.702	0.672	2.550	-0.383	-1.225	-9.340
144378.021	NaN	-5.815	2.478	21.011	1503.297	1501.099	1496.703	-2.641	0.656	2.748	-0.383	-1.072	-9.416
144378.998	NaN	-5.880	2.467	21.011	1504.029	1500.366	1495.971	-2.626	0.916	2.901	-0.306	-1.072	-9.493
144379.974	NaN	-5.848	2.457	20.946	1504.029	1500.366	1495.238	-2.595	0.870	2.885	-0.383	-1.072	-9.416
144380.951	NaN	-5.848	2.457	21.033	1504.029	1500.366	1495.238	-2.947	0.763	2.702	-0.306	-1.148	-9.416
144381.927	NaN	-5.793	2.467	20.957	1504.029	1501.099	1494.505	-2.901	0.641	2.763	-0.383	-1.225	-9.416
144382.904	NaN	-5.783	2.446	20.967	1504.762	1500.366	1495.238	-2.748	0.763	2.702	-0.383	-1.148	-9.416
144383.881	NaN	-5.837	2.489	20.946	1504.029	1500.366	1495.238	-2.473	0.885	2.641	-0.459	-1.225	-9.416
144384.857	NaN	-5.902	2.478	21.022	1504.762	1500.366	1494.505	-2.336	0.809	2.901	-0.306	-1.072	-9.340
144385.834	NaN	-5.837	2.457	21.000	1504.762	1500.366	1495.238	-2.412	0.748	2.977	-0.383	-1.148	-9.187
144386.810	NaN	-5.826	2.489	20.935	1504.762	1500.366	1495.238	-2.595	0.626	2.931	-0.306	-1.148	-9.340
144387.787	NaN	-5.870	2.467	21.065	1504.762	1500.366	1495.238	-2.702	0.641	2.901	-0.459	-1.148	-9.416
144388.763	NaN	-5.848	2.478	20.989	1503.297	1501.099	1495.971	-2.595	0.702	2.885	-0.306	-1.148	-9.416
144389.740	NaN	-5.837	2.478	21.000	1504.029	1500.366	1495.971	-2.687	0.718	2.656	-0.383	-1.301	-9.187
144390.717	NaN	-5.870	2.478	21.033	1504.029	1501.099	1496.703	-2.809	0.794	2.641	-0.383	-1.072	-9.340
144391.693	NaN	-5.880	2.489	20.989	1504.029	1500.366	1495.971	-2.916	0.779	2.672	-0.306	-1.148	-9.416
144392.670	NaN	-5.859	2.467	21.000	1504.029	1501.099	1496.703	-2.733	0.687	2.809	-0.383	-1.225	-9.416
144393.646	NaN	-5.815	2.467	20.957	1504.762	1501.099	1495.238	-2.473	0.656	2.931	-0.459	-1.148	-9.493
144394.623	NaN	-5.815	2.457	20.978	1504.029	1500.366	1495.971	-2.565	0.779	2.962	-0.459	-1.225	-9.493
144395.599	NaN	-5.848	2.489	21.033	1504.762	1501.099	1495.971	-2.504	0.809	2.962	-0.459	-1.072	-9.340
144396.576	NaN	-5.859	2.478	20.989	1503.297	1500.366	1494.505	-2.763	0.809	2.733	-0.383	-1.148	-9.416
144397.552	NaN	-5.913	2.467	20.946	1503.297	1500.366	1495.238	-2.931	0.687	2.672	-0.230	-1.148	-9.340
144398.529	NaN	-5.859	2.446	21.033	1503.297	1500.366	1495.238	-2.718	0.656	2.656	-0.459	-1.072	-9.263
144399.506	NaN	-5.870	2.467	21.011	1504.029	1501.832	1497.436	-2.656	0.748	2.641	-0.383	-1.301	-9.263
144400.482	NaN	-5.891	2.478	20.957	1504.029	1500.366	1495.971	-2.504	0.763	2.733	-0.536	-1.148	-9.416
144401.459	NaN	-5.859	2.457	20.946	1504.029	1500.366	1495.238	-2.489	0.870	2.748	-0.230	-1.072	-9.416
144402.435	NaN	-5.880	2.467	20.978	1504.029	1500.366	1494.505	-2.702	0.809	2.824	-0.306	-1.148	-9.416
144403.412	NaN	-5.880	2.467	21.000	1504.762	1500.366	1496.703	-2.779	0.687	2.870	-0.459	-1.301	-9.416
144404.388	NaN	-5.804	2.478	20.967	1505.495	1501.099	1495.238	-2.656	0.702	2.901	-0.383	-1.072	-9.340
144405.365	NaN	-5.815	2.500	21.000	1504.029	1500.366	1495.238	-2.565	0.611	2.626	-0.459	-1.072	-9.493
144406.342	NaN	-5.837	2.511	21.000	1503.297	1500.366	1494.505	-2.656	0.611	2.595	-0.383	-2.297	-9.416
144407.318	NaN	-5.815	2.478	21.011	1503.297	1500.366	1495.971	-2.824	0.763	2.702	-0.306	-1.072	-9.416
144408.295	NaN	-5.804	2.489	21.011	1503.297	1501.832	1495.238	-2.855	0.718	2.733	-0.459	-0.995	-9.416
144409.271	NaN	-5.848	2.467	21.011	1503.297	1500.366	1494.505	-2.947	0.702	2.687	-0.230	-1.072	-9.263
144410.248	NaN	-5.859	2.478	21.043	1503.297	1499.634	1495.971	-3.084	0.779	2.855	-0.383	-1.225	-9.340
144411.224	NaN	-5.880	2.446	21.087	1504.762	1500.366	1495.238	-2.901	0.580	2.916	-0.383	-1.148	-9.263
144412.201	NaN	-5.880	2.478	20.989	1503.297	1501.099	1495.238	-2.626	0.550	2.885	-0.459	-1.148	-9.340
144413.177	NaN	-5.837	2.489	21.033	1504.029	1500.366	1495.971	-2.397	0.504	2.763	-0.383	-1.148	-9.416
144414.154	NaN	-5.859	2.446	21.000	1504.762	1501.099	1494.505	-2.626	0.580	2.779	-0.383	-1.225	-9.493
144415.131	NaN	-5.848	2.424	21.043	1504.029	1500.366	1494.505	-2.779	0.733	2.855	-0.230	-1.148	-9.263
144416.107	NaN	-5.837	2.457	20.989	1503.297	1499.634	1495.971	-2.672	0.824	2.718	-0.383	-0.995	-9.340
144551.849	NaN	-5.826	2.467	21.022	1504.762	1501.832	1495.238	-3.084	0.504	2.443	-0.383	-1.072	-9.416
144552.826	NaN	-5.837	2.489	21.054	1504.762	1500.366	1495.971	-2.947	0.550	2.489	-0.306	-1.225	-9.493
144553.802	NaN	-5.859	2.478	21.033	1503.297	1500.366	1496.703	-2.641	0.580	2.489	-0.306	-1.148	-9.340
144554.779	NaN	-5.848	2.500	20.935	1503.297	1500.366	1497.436	-2.702	0.443	2.443	-0.383	-1.072	-9.416
144555.756	NaN	-5.848	2.500	20.946	1504.029	1501.099	1495.971	-2.855	0.473	2.321	-0.383	-1.148	-9.493
144556.732	NaN	-5.815	2.478	20.978	1504.029	1501.832	1496.703	-2.763	0.443	2.305	-0.383	-1.225	-9.416
144557.709	NaN	-5.848	2.467	20.989	1504.762	1500.366	1495.971	-2.687	0.443	2.397	-0.306	-1.148	-9.416
144558.685	NaN	-5.837	2.457	20.946	1501.832	1500.366	1494.505	-2.763	0.519	2.321	-0.459	-1.072	-9.416
144559.662	NaN	-5.837	2.489	20.978	1504.029	1501.099	1495.238	-2.824	0.443	2.412	-0.306	-1.148	-9.416
144560.638	NaN	-5.815	2.446	20.967	1504.029	1499.634	1495.971	-2.702	0.351	2.412	-0.306	-1.148	-9.263
144561.615	NaN	-5.783	2.478	21.000	1504.029	1500.366	1495.971	-2.794	0.244	2.351	-0.383	-1.072	-9.416
144562.592	NaN	-5.804	2.457	20.924	1503.297	1500.366	1495.971	-2.702	0.305	2.275	-0.306	-1.148	-9.416
144563.568	NaN	-5.837	2.457	20.946	1504.762	1500.366	1496.703	-2.840	0.214	2.412	-0.306	-1.072	-9.263
144564.545	NaN	-5.826	2.478	21.000	1504.762	1500.366	1495.971	-2.809	0.290	2.458	-0.383	-1.148	-9.416
144565.521	NaN	-5.826	2.457	20.967	1504.029	1501.099	1495.971	-2.901	0.321	2.351	-0.383	-1.072	-9.416
144566.498	NaN	-5.880	2.446	20.935	1504.029	1500.366	1495.238	-2.855	0.443	2.412	-0.383	-1.148	-9.340
144567.474	NaN	-5.815	2.457	20.989	1505.495	1501.099	1495.971	-2.702	0.351	2.382	-0.306	-1.225	-9.340
144568.451	NaN	-5.902	2.446	21.011	1503.297	1500.366	1496.703	-2.641	0.397	2.290	-0.383	0.000	-9.263
144569.427	NaN	-5.891	2.457	21.054	1503.297	1499.634	1495.971	-2.870	0.336	2.321	-0.459	-1.148	-9.416
144570.404	NaN	-5.837	2.489	21.022	1504.762	1500.366	1495.238	-2.870	0.153	2.412	-0.383	-1.225	-9.416
144571.381	NaN	-5.837	2.457	20.989	1504.762	1500.366	1495.971	-2.885	0.229	2.275	-0.383	-1.148	-9.416
144591.888	NaN	-5.859	2.457	20.946	1504.029	1500.366	1493.040	-2.840	0.260	2.229	-0.383	-1.148	-9.340
144592.865	NaN	-5.859	2.467	20.989	1504.762	1500.366	1496.703	-3.099	0.473	2.397	-0.383	-0.995	-9.416
144593.842	NaN	-5.837	2.467	20.978	1503.297	1500.366	1494.505	-3.206	0.443	2.321	-0.459	-1.148	-9.340
144594.818	NaN	-5.848	2.446	21.033	1503.297	1499.634	1495.971	-2.977	0.366	2.107	-0.306	-1.148	-9.493
144595.795	NaN	-5.848	2.446	21.022	1502.564	1498.901	1495.238	-2.702	0.229	2.153	-0.306	-0.077	-9.340
144596.771	NaN	-5.848	2.457	20.978	1503.297	1501.099	1495.971	-2.840	0.198	2.458	-0.459	-1.148	-9.263
144597.748	NaN	-5.815	2.467	20.957	1504.029	1500.366	1494.505	-2.794	0.153	2.489	-0.306	-1.225	-9.416
144598.724	NaN	-5.880	2.457	21.000	1503.297	1498.901	1495.238	-2.885	0.244	2.321	-0.383	-1.225	-9.340
144599.701	NaN	-5.804	2.457	21.033	1503.297	1500.366	1495.238	-2.992	0.290	2.244	-0.383	-1.148	-9.340
144600.677	NaN	-5.870	2.446	21.011	1504.029	1499.634	1495.238	-2.947	0.290	2.321	-0.230	-1.148	-9.263
144601.654	NaN	-5.826	2.467	20.967	1503.297	1500.366	1495.971	-2.870	0.305	2.244	-0.306	-1.148	-9.340
144602.631	NaN	-5.880	2.435	20.989	1502.564	1500.366	1495.971	-2.977	0.260	2.351	-0.306	-1.225	-9.416
144603.607	NaN	-5.870	2.457	20.946	1503.297	1500.366	1493.773	-2.824	0.229	2.321	-0.383	-1.072	-9.416
144604.584	NaN	-5.859	2.478	20.967	1504.029	1500.366	1495.238	-2.794	0.336	2.183	-0.383	-1.301	-9.416
144605.560	NaN	-5.837	2.457	20.891	1503.297	1500.366	1495.238	-2.901	0.366	2.275	-0.459	-1.148	-9.340
144606.537	NaN	-5.837	2.489	21.011	1504.029	1500.366	1496.703	-2.885	0.351	2.214	-0.383	-1.072	-9.340
144607.513	NaN	-5.815	2.500	21.043	1504.029	1500.366	1495.238	-3.084	0.290	2.229	-0.383	-0.995	-9.340
144608.490	NaN	-5.793	2.457	21.054	1504.029	1499.634	1495.971	-3.023	0.198	2.168	-0.383	-1.148	-9.416
144609.467	3731583042.128	-5.804	2.478	20.967	1504.029	1501.832	1493.040	-3.069	0.260	2.275	-0.459	-1.072	-9.340
144610.443	NaN	-5.804	2.478	21.011	1504.029	1501.099	1495.238	-3.084	0.229	2.198	-0.459	-1.225	-9.569
144611.420	NaN	-5.815	2.467	21.000	1504.029	1501.099	1495.971	-2.870	0.198	2.290	-0.383	-1.072	-9.340
144612.396	NaN	-5.826	2.478	20.989	1502.564	1500.366	1495.971	-3.084	0.198	2.382	-0.383	-1.072	-9.340
144613.373	NaN	-5.859	2.457	20.957	1503.297	1500.366	1495.238	-3.084	0.168	2.336	-0.383	-1.072	-9.416
144614.349	NaN	-5.848	2.489	20.978	1503.297	1501.099	1495.238	-3.008	0.229	2.336	-0.459	-1.148	-9.416
144615.326	NaN	-5.793	2.446	21.000	1503.297	1501.099	1493.773	-2.809	0.305	2.305	-0.306	-1.072	-9.263
144616.302	NaN	-5.826	2.457	21.011	1504.762	1498.901	1495.238	-2.718	0.458	2.229	-0.383	-1.148	-9.416
144617.279	NaN	-5.815	2.457	20.989	1504.029	1501.099	1495.971	-2.885	0.260	2.122	-0.459	-1.225	-9.340
144618.256	NaN	-5.826	2.467	20.957	1503.297	1498.901	1497.436	-3.115	0.107	2.153	-0.383	-1.225	-9.416
144619.232	NaN	-5.848	2.467	20.989	1504.029	1500.366	1495.971	-2.962	0.229	2.183	-0.459	-1.148	-9.416
144620.209	NaN	-5.837	2.467	20.978	1504.762	1501.099	1495.971	-2.779	0.305	2.382	-0.459	-1.225	-9.340
144621.185	NaN	-5.804	2.467	20.967	1502.564	1498.901	1495.971	-2.916	0.275	2.229	-0.383	-1.148	-9.493
144622.162	NaN	-5.880	2.446	21.000	1504.029	1499.634	1495.971	-2.855	0.229	2.244	-0.306	-1.072	-9.340
144623.138	NaN	-5.815	2.489	21.000	1504.029	1500.366	1495.971	-2.550	0.046	2.260	-0.306	-1.225	-9.416
144624.115	NaN	-5.793	2.500	21.022	1504.029	1500.366	1496.703	-2.534	0.137	2.214	-0.383	-1.148	-9.340
144625.092	NaN	-5.804	2.457	21.022	1504.762	1500.366	1495.971	-2.824	0.229	2.153	-0.306	-1.148	-9.416
144626.068	NaN	-5.870	2.424	21.076	1503.297	1498.901	1495.238	-3.130	0.290	2.076	-0.230	-1.225	-9.340
144627.045	NaN	-5.848	2.457	21.033	1504.029	1500.366	1495.971	-3.053	0.336	2.229	-0.383	-1.148	-9.340
144628.021	NaN	-5.880	2.489	21.022	1504.029	1500.366	1495.971	-2.870	0.260	2.336	-0.383	-1.148	-9.340
144628.998	NaN	-5.902	2.489	21.011	1503.297	1501.099	1495.238	-2.885	0.397	2.122	-0.459	-1.148	-9.263
144629.974	NaN	-5.870	2.457	21.043	1504.029	1501.099	1495.238	-3.008	0.351	2.046	-0.306	-1.148	-9.416
144630.951	NaN	-5.837	2.457	21.000	1504.029	1500.366	1494.505	-2.962	0.137	1.985	-0.459	-1.072	-9.416
144631.927	NaN	-5.870	2.478	21.011	1504.762	1501.099	1495.238	-2.763	0.168	1.939	-0.459	-1.148	-9.416
144632.904	NaN	-5.826	2.478	20.978	1504.029	1501.099	1495.238	-2.687	0.031	2.153	-0.230	-1.225	-9.340
144633.881	NaN	-5.848	2.457	20.978	1504.762	1500.366	1495.971	-2.885	0.031	2.244	-0.306	-1.225	-9.416
144634.857	NaN	-5.837	2.457	20.935	1504.029	1499.634	1495.971	-2.901	0.183	2.122	-0.459	-1.148	-9.263
144635.834	NaN	-5.826	2.446	21.033	1504.029	1501.099	1495.971	-2.809	0.244	2.122	-0.383	-1.148	-9.416
144636.810	NaN	-5.891	2.467	21.011	1503.297	1500.366	1494.505	-2.656	0.290	2.214	-0.383	-1.072	-9.416
144637.787	NaN	-5.880	2.511	21.000	1504.029	1500.366	1495.238	-2.672	0.336	2.305	-0.536	-1.148	-9.416
144638.763	NaN	-5.826	2.457	21.033	1504.029	1501.099	1495.971	-2.855	0.366	2.412	-0.230	-1.225	-9.416
144639.740	NaN	-5.837	2.467	21.033	1503.297	1500.366	1494.505	-3.084	0.336	2.412	-0.459	-1.072	-9.263
144640.717	NaN	-5.815	2.467	20.978	1501.832	1499.634	1495.971	-2.855	0.336	2.275	-0.306	-1.072	-9.416
144641.693	3731583042.268	-5.859	2.467	20.978	1503.297	1499.634	1496.703	-2.779	0.305	2.305	-0.459	-1.225	-9.340
144642.670	NaN	-5.837	2.489	20.967	1504.029	1501.099	1494.505	-2.748	0.137	2.183	-0.306	-1.225	-9.416
144643.646	NaN	-5.859	2.467	20.957	1503.297	1500.366	1495.971	-2.855	0.107	2.168	-0.306	-1.072	-9.416
144644.623	NaN	-5.837	2.435	20.989	1502.564	1498.901	1494.505	-2.519	0.122	2.153	-0.383	-1.072	-9.416
144645.599	NaN	-5.815	2.446	21.011	1503.297	1500.366	1495.971	-2.672	0.153	2.061	-0.459	-1.072	-9.340
144646.576	NaN	-5.902	2.435	21.000	1504.029	1501.099	1495.238	-2.962	0.214	2.092	-0.459	-1.148	-9.340
144647.552	NaN	-5.815	2.446	21.065	1504.029	1501.099	1495.238	-3.084	0.321	2.275	-0.306	-1.225	-9.416
144648.529	NaN	-5.848	2.478	21.054	1503.297	1500.366	1495.971	-3.069	0.321	2.366	-0.383	-1.072	-9.340
144649.506	NaN	-5.826	2.467	21.054	1504.762	1500.366	1495.971	-2.718	0.198	2.107	-0.536	-1.072	-9.340
144650.482	NaN	-5.880	2.446	21.000	1504.762	1501.099	1496.703	-2.626	0.137	2.000	-0.459	-1.072	-9.263
144651.459	NaN	-5.880	2.478	21.022	1504.762	1500.366	1495.971	-2.840	0.305	2.137	-0.459	-1.225	-9.493
144652.435	NaN	-5.815	2.478	21.022	1501.832	1499.634	1495.971	-3.008	0.321	2.427	-0.459	-1.148	-9.416
144653.412	NaN	-5.848	2.457	20.935	1504.029	1498.901	1495.238	-2.748	0.061	2.366	-0.383	-1.072	-9.569
144654.388	NaN	-5.837	2.435	21.054	1503.297	1500.366	1496.703	-2.733	0.122	2.046	-0.459	-1.148	-9.340
144655.365	NaN	-5.793	2.457	21.065	1503.297	1500.366	1496.703	-2.702	0.260	1.985	-0.459	-1.148	-9.493
144656.342	NaN	-5.848	2.457	21.033	1504.762	1500.366	1495.971	-2.840	0.290	2.061	-0.383	-0.995	-9.340
144657.318	NaN	-5.848	2.467	21.054	1503.297	1500.366	1495.238	-2.992	0.244	2.336	-0.459	-1.148	-9.340
144658.295	NaN	-5.848	2.489	21.033	1505.495	1500.366	1495.238	-2.962	0.198	2.198	-0.459	-1.072	-9.340
144659.271	NaN	-5.880	2.446	20.978	1504.029	1499.634	1495.238	-2.885	0.244	2.107	-0.459	-1.148	-9.416
144660.248	NaN	-5.848	2.457	20.989	1503.297	1499.634	1496.703	-2.885	0.137	2.076	-0.383	-1.072	-9.416
144661.224	NaN	-5.848	2.511	21.087	1503.297	1499.634	1496.703	-2.656	0.214	2.015	-0.459	-1.072	-9.340
144662.201	NaN	-5.891	2.500	21.043	1503.297	1499.634	1495.971	-2.595	0.229	2.061	-0.459	-1.148	-9.493
144663.177	NaN	-5.848	2.500	21.054	1503.297	1500.366	1493.773	-2.565	0.183	2.107	-0.459	-1.148	-9.340
144664.154	NaN	-5.848	2.478	21.065	1503.297	1498.901	1495.238	-2.504	0.153	2.000	-0.459	-1.225	-9.263
144665.131	NaN	-5.880	2.457	21.087	1504.762	1500.366	1495.971	-2.733	0.214	2.061	-0.383	-1.148	-9.263
144666.107	NaN	-5.826	2.457	21.033	1503.297	1500.366	1495.971	-2.962	0.290	2.244	-0.306	-1.072	-9.340
144667.084	NaN	-5.815	2.478	21.033	1503.297	1500.366	1495.238	-3.298	0.351	2.214	-0.306	-1.148	-9.493
144668.060	NaN	-5.826	2.478	20.935	1503.297	1500.366	1495.971	-2.977	0.336	1.985	-0.383	-1.072	-9.340
144669.037	NaN	-5.848	2.457	21.054	1504.029	1500.366	1495.238	-2.840	0.260	1.939	-0.306	-1.148	-9.416
144670.013	NaN	-5.815	2.457	21.076	1504.029	1500.366	1494.505	-2.794	0.321	2.061	-0.536	-1.072	-9.340
144670.990	NaN	-5.913	2.457	20.978	1504.029	1499.634	1496.703	-2.702	0.229	2.183	-0.459	-1.225	-9.340
144671.967	NaN	-5.837	2.467	20.946	1503.297	1499.634	1495.238	-2.824	0.153	2.260	-0.306	-1.148	-9.416
144672.943	NaN	-5.815	2.489	21.000	1504.762	1500.366	1496.703	-2.840	0.076	2.244	-0.306	-1.148	-9.416
144673.920	NaN	-5.848	2.457	20.967	1504.029	1500.366	1494.505	-2.855	0.153	2.198	-0.306	-1.148	-9.416
144674.896	NaN	-5.859	2.435	20.967	1502.564	1499.634	1496.703	-2.901	0.153	2.137	-0.383	-1.072	-9.493
144675.873	NaN	-5.859	2.446	20.946	1504.762	1500.366	1495.971	-2.824	0.198	2.061	-0.383	-1.148	-9.416
144676.849	NaN	-5.880	2.457	21.000	1502.564	1499.634	1495.238	-2.748	0.366	1.954	-0.383	-1.148	-9.340
144677.826	NaN	-5.859	2.457	21.033	1504.029	1500.366	1496.703	-2.595	0.427	2.015	-0.306	-0.995	-9.416
144678.802	NaN	-5.891	2.467	21.043	1504.029	1500.366	1496.703	-2.733	0.412	2.046	-0.306	-1.148	-9.493
144679.779	NaN	-5.891	2.478	21.022	1502.564	1499.634	1495.238	-2.748	0.458	1.893	-0.383	-1.072	-9.340
144680.756	NaN	-5.870	2.457	20.978	1504.762	1501.832	1495.971	-2.733	0.397	1.817	-0.383	-1.225	-9.340
144681.732	NaN	-5.859	2.446	20.967	1504.762	1500.366	1494.505	-2.885	0.229	1.939	-0.383	-1.072	-9.416
144682.709	NaN	-5.848	2.522	21.022	1504.029	1500.366	1495.238	-2.840	0.260	2.137	-0.383	-0.995	-9.416
144683.685	NaN	-5.880	2.489	21.043	1502.564	1501.099	1493.773	-2.794	0.198	2.031	-0.536	-1.072	-9.263
144684.662	NaN	-5.870	2.489	21.054	1502.564	1499.634	1496.703	-2.901	0.153	2.107	-0.383	-1.148	-9.493
144685.638	NaN	-5.870	2.467	21.011	1504.762	1500.366	1495.971	-2.977	0.000	2.061	-0.383	-1.072	-9.340
144686.615	NaN	-5.880	2.467	21.054	1504.762	1500.366	1496.703	-2.794	-0.015	1.969	-0.306	-1.072	-9.340
144687.592	NaN	-5.837	2.478	21.043	1503.297	1501.099	1495.971	-2.580	0.397	1.985	-0.459	-1.072	-9.340
144688.568	NaN	-5.859	2.489	20.967	1504.029	1500.366	1494.505	-2.550	0.565	2.137	-0.383	-1.225	-9.416
144689.545	NaN	-5.880	2.478	21.000	1504.762	1500.366	1494.505	-2.718	0.366	2.076	-0.383	-1.148	-9.340
144690.521	NaN	-5.826	2.446	20.989	1503.297	1499.634	1495.971	-2.595	0.153	1.969	-0.383	-1.072	-9.416
144691.498	NaN	-5.848	2.446	20.989	1504.029	1500.366	1497.436	-2.504	0.336	2.092	-0.459	-1.148	-9.493
144692.474	NaN	-5.826	2.446	20.967	1504.029	1500.366	1495.971	-2.656	0.382	2.153	-0.383	-1.072	-9.340
144693.451	NaN	-5.859	2.457	20.967	1503.297	1499.634	1496.703	-2.794	0.351	2.076	-0.383	-1.225	-9.416
144694.427	NaN	-5.837	2.467	21.000	1504.762	1500.366	1495.971	-2.641	0.305	1.893	-0.383	-1.072	-9.416
144695.404	NaN	-5.913	2.467	20.924	1505.495	1500.366	1496.703	-2.672	0.427	1.863	-0.459	-1.072	-9.569
144696.381	NaN	-5.924	2.467	20.957	1504.029	1500.366	1496.703	-2.672	0.504	2.000	-0.306	-1.225	-9.416
144697.357	NaN	-5.880	2.467	20.946	1503.297	1500.366	1495.238	-2.626	0.458	2.046	-0.459	-1.072	-9.340
144698.334	NaN	-5.870	2.489	20.989	1504.762	1501.099	1495.238	-2.656	0.290	1.985	-0.383	-1.148	-9.416
144699.310	NaN	-5.837	2.446	20.967	1504.029	1500.366	1494.505	-2.809	0.244	2.000	-0.306	-1.225	-9.493
144700.287	NaN	-5.826	2.446	21.011	1504.762	1500.366	1495.971	-2.840	0.244	2.015	-0.383	-1.225	-9.340
144701.263	NaN	-5.870	2.467	20.946	1504.762	1500.366	1495.238	-2.672	0.260	2.107	-0.383	-1.225	-9.340
144702.240	NaN	-5.891	2.467	21.000	1504.029	1499.634	1495.238	-2.412	0.290	2.031	-0.383	-1.072	-9.416
144703.217	NaN	-5.859	2.489	20.989	1503.297	1500.366	1495.971	-2.550	0.382	1.954	-0.383	-1.225	-9.187
144704.193	NaN	-5.848	2.478	21.043	1503.297	1500.366	1494.505	-2.748	0.321	1.924	-0.383	-1.148	-9.340
144705.170	NaN	-5.859	2.489	21.000	1503.297	1500.366	1493.773	-2.733	0.443	1.939	-0.383	-1.225	-9.416
144706.146	NaN	-5.891	2.457	21.000	1504.029	1500.366	1494.505	-2.656	0.397	1.878	-0.306	-1.072	-9.416
144707.123	NaN	-5.880	2.489	20.967	1502.564	1500.366	1493.040	-2.733	0.336	1.756	-0.306	-1.148	-9.340
144708.099	NaN	-5.891	2.478	20.967	1504.029	1501.099	1495.971	-2.840	0.336	1.771	-0.383	-1.148	-9.340
144709.076	NaN	-5.859	2.467	20.935	1504.029	1500.366	1495.971	-2.962	0.412	1.832	-0.383	-0.995	-9.263
144710.052	NaN	-5.837	2.467	20.924	1503.297	1500.366	1495.238	-2.977	0.489	2.015	-0.383	-1.225	-9.416
144711.029	NaN	-5.848	2.489	20.967	1502.564	1500.366	1495.971	-2.763	0.290	1.969	-0.306	-1.072	-9.340
144712.006	NaN	-5.837	2.489	21.000	1504.762	1501.832	1496.703	-2.687	0.305	1.893	-0.383	-1.225	-9.340
144712.982	NaN	-5.826	2.467	21.054	1503.297	1499.634	1495.238	-2.565	0.458	1.893	-0.459	-1.072	-9.416
144713.959	NaN	-5.837	2.467	20.967	1501.832	1499.634	1495.971	-2.565	0.489	1.939	-0.383	-1.148	-9.263
144714.935	NaN	-5.837	2.511	20.967	1503.297	1500.366	1495.971	-2.626	0.504	2.000	-0.383	-1.225	-9.493
144715.912	NaN	-5.826	2.522	21.011	1504.029	1500.366	1494.505	-2.840	0.427	1.802	-0.306	-1.072	-9.493
144716.888	NaN	-5.848	2.533	21.054	1503.297	1501.099	1496.703	-2.931	0.183	1.863	-0.306	-1.225	-9.493
144717.865	NaN	-5.870	2.467	21.000	1503.297	1500.366	1495.238	-2.794	0.153	1.832	-0.306	-1.072	-9.493
144718.842	NaN	-5.848	2.478	20.967	1504.029	1499.634	1495.238	-2.611	0.168	1.969	-0.612	-0.919	-9.416
144719.818	NaN	-5.826	2.478	20.967	1503.297	1500.366	1493.040	-2.580	0.351	1.985	-0.383	-1.301	-9.340
144720.795	NaN	-5.848	2.478	21.076	1503.297	1500.366	1495.971	-2.641	0.351	1.832	-0.383	-1.225	-9.493
144721.771	NaN	-5.783	2.489	21.043	1504.029	1500.366	1495.971	-2.748	0.397	1.847	-0.383	-1.148	-9.263
144722.748	NaN	-5.837	2.478	21.022	1504.029	1500.366	1495.238	-2.855	0.412	1.771	-0.459	-1.225	-9.416
144723.724	NaN	-5.837	2.478	21.000	1501.832	1500.366	1493.773	-2.626	0.473	1.969	-0.459	-1.148	-9.263
144724.701	NaN	-5.826	2.435	21.033	1504.029	1499.634	1495.971	-2.366	0.489	2.046	-0.306	-1.072	-9.416
144725.677	NaN	-5.902	2.467	21.011	1504.029	1500.366	1495.238	-2.550	0.366	2.046	-0.383	-1.148	-9.416
144726.654	NaN	-5.859	2.489	20.989	1503.297	1501.099	1496.703	-2.870	0.382	1.954	-0.459	-1.225	-9.340
144727.631	NaN	-5.891	2.467	21.033	1503.297	1501.099	1495.238	-2.748	0.489	1.954	-0.459	-1.072	-9.263
144728.607	NaN	-5.891	2.457	20.957	1504.029	1499.634	1495.238	-2.550	0.305	1.908	-0.383	-1.072	-9.340
144729.584	NaN	-5.902	2.478	21.000	1503.297	1499.634	1495.238	-2.427	0.229	1.908	-0.383	-1.072	-9.416
144730.560	NaN	-5.859	2.478	21.054	1503.297	1499.634	1496.703	-2.534	0.260	2.031	-0.383	-1.072	-9.340
144731.537	NaN	-5.848	2.446	20.967	1504.029	1500.366	1495.971	-2.718	0.458	1.908	-0.459	-1.072	-9.493
144732.513	3731583042.466	-5.837	2.478	20.935	1503.297	1499.634	1495.971	-2.748	0.718	1.695	-0.536	-1.072	-9.416
144733.490	NaN	-5.848	2.489	20.935	1503.297	1498.901	1495.971	-2.794	0.534	1.664	-0.383	-1.072	-9.340
144734.467	NaN	-5.859	2.467	20.967	1504.762	1501.099	1495.238	-2.580	0.397	1.695	-0.383	-1.072	-9.263
144735.443	NaN	-5.837	2.446	21.022	1501.832	1500.366	1494.505	-2.336	0.412	1.817	-0.306	-1.072	-9.340
144736.420	NaN	-5.870	2.467	21.087	1503.297	1500.366	1496.703	-2.275	0.565	1.863	-0.383	-1.148	-9.416
144737.396	NaN	-5.870	2.457	20.978	1504.029	1500.366	1495.971	-2.504	0.534	1.771	-0.383	-1.148	-9.340
144738.373	NaN	-5.891	2.457	20.978	1504.762	1500.366	1495.238	-2.489	0.458	1.832	-0.306	-1.148	-9.263
144739.349	NaN	-5.837	2.478	20.989	1504.762	1501.099	1496.703	-2.473	0.397	1.969	-0.306	-1.072	-9.493
144740.326	NaN	-5.804	2.511	20.989	1504.762	1500.366	1495.971	-2.321	0.412	2.046	-0.230	-1.072	-9.416
144741.302	NaN	-5.837	2.489	21.076	1503.297	1501.099	1495.238	-2.427	0.366	1.924	-0.306	-1.225	-9.416
144742.279	NaN	-5.880	2.478	21.022	1503.297	1500.366	1496.703	-2.504	0.458	1.863	-0.306	-1.072	-9.340
144743.256	NaN	-5.880	2.446	21.033	1504.762	1501.832	1494.505	-2.702	0.626	1.786	-0.536	-1.225	-9.340
144744.232	NaN	-5.870	2.467	20.978	1504.029	1500.366	1496.703	-2.656	0.427	1.756	-0.383	-1.225	-9.569
144745.209	NaN	-5.870	2.457	21.011	1503.297	1501.099	1495.238	-2.458	0.366	1.924	-0.383	-1.225	-9.340
144746.185	NaN	-5.837	2.467	21.022	1503.297	1501.099	1493.773	-2.260	0.534	1.908	-0.459	-1.148	-9.493
144747.162	NaN	-5.804	2.478	21.011	1503.297	1500.366	1493.773	-2.275	0.626	2.031	-0.230	-0.995	-9.493
144748.138	NaN	-5.837	2.467	21.054	1504.762	1500.366	1495.971	-2.351	0.473	2.031	-0.383	-1.072	-9.340
144749.115	NaN	-5.880	2.467	21.022	1504.029	1501.099	1495.971	-2.458	0.290	1.939	-0.459	-1.225	-9.340
144750.092	NaN	-5.783	2.467	21.000	1504.029	1501.099	1496.703	-2.534	0.275	1.802	-0.383	-1.072	-9.263
144751.068	3731583042.628	-5.891	2.457	21.011	1504.029	1501.099	1495.971	-2.397	0.351	1.756	-0.383	0.000	-9.340
144752.045	NaN	-5.870	2.478	21.022	1504.029	1501.099	1495.971	-2.305	0.351	1.756	-0.383	-0.995	-9.340
144753.021	NaN	-5.848	2.457	21.011	1504.029	1500.366	1495.971	-2.397	0.519	1.863	-0.459	-1.072	-9.416
144753.998	NaN	-5.880	2.457	20.978	1503.297	1501.832	1496.703	-2.519	0.473	1.908	-0.459	-1.072	-9.416
144754.974	NaN	-5.924	2.446	21.011	1502.564	1498.901	1495.971	-2.427	0.595	2.000	-0.383	-1.072	-9.493
144755.951	NaN	-5.913	2.478	21.033	1503.297	1500.366	1494.505	-2.565	0.412	2.000	-0.383	-1.225	-9.416
144756.927	NaN	-5.826	2.457	20.978	1503.297	1501.099	1495.238	-2.702	0.366	1.969	-0.306	-1.225	-9.340
144757.904	NaN	-5.859	2.467	21.033	1504.762	1500.366	1495.971	-2.473	0.458	1.786	-0.383	0.000	-9.340
144758.881	NaN	-5.826	2.435	21.130	1504.029	1500.366	1495.238	-2.351	0.443	1.725	-0.383	-1.225	-9.493
144759.857	NaN	-5.804	2.467	21.054	1504.029	1499.634	1495.238	-2.366	0.412	1.695	-0.383	-1.072	-9.416
144760.834	NaN	-5.826	2.500	20.978	1504.029	1501.099	1494.505	-2.366	0.397	1.878	-0.306	-1.148	-9.263
144761.810	NaN	-5.848	2.500	20.924	1504.029	1501.099	1496.703	-2.397	0.351	2.000	-0.306	-1.225	-9.416
144762.787	NaN	-5.804	2.489	20.978	1504.029	1501.099	1496.703	-2.656	0.443	1.969	-0.383	-1.072	-9.263
144763.763	NaN	-5.848	2.467	21.000	1503.297	1500.366	1496.703	-2.748	0.427	1.847	-0.383	-1.301	-9.569
144764.740	NaN	-5.826	2.489	21.054	1503.297	1500.366	1494.505	-2.611	0.412	1.802	-0.459	-0.995	-9.416
144765.717	NaN	-5.826	2.467	21.000	1505.495	1500.366	1495.238	-2.580	0.534	1.832	-0.306	-1.148	-9.340
144766.693	NaN	-5.815	2.478	21.065	1504.029	1501.099	1495.238	-2.565	0.641	1.832	-0.459	-1.148	-9.340
144767.670	NaN	-5.848	2.467	21.043	1504.029	1501.099	1495.971	-2.611	0.687	1.908	-0.459	-0.995	-9.340
144768.646	NaN	-5.848	2.446	21.054	1504.029	1501.099	1495.238	-2.473	0.504	1.863	-0.383	-1.072	-9.340
144769.623	NaN	-5.880	2.435	20.978	1503.297	1501.099	1495.238	-2.366	0.473	1.618	-0.383	-1.148	-9.263
144770.599	NaN	-5.848	2.467	20.978	1503.297	1501.832	1495.971	-2.412	0.443	1.496	-0.459	-1.148	-9.569
144771.576	NaN	-5.804	2.489	20.967	1504.029	1501.099	1496.703	-2.656	0.443	1.573	-0.306	-1.148	-9.416
144772.552	NaN	-5.793	2.457	20.935	1503.297	1499.634	1495.971	-2.809	0.504	1.817	-0.536	-1.148	-9.416
144773.529	NaN	-5.815	2.457	20.957	1504.029	1500.366	1496.703	-2.519	0.489	1.847	-0.383	-1.148	-9.263
144774.506	NaN	-5.859	2.478	21.054	1504.029	1500.366	1495.971	-2.260	0.519	1.924	-0.383	-1.148	-9.416
144775.482	NaN	-5.891	2.489	21.043	1503.297	1500.366	1498.168	-2.382	0.473	1.847	-0.459	-1.148	-9.340
144776.459	NaN	-5.804	2.478	21.011	1504.029	1501.099	1496.703	-2.489	0.458	1.740	-0.383	-1.225	-9.416
144777.435	NaN	-5.891	2.478	20.957	1503.297	1500.366	1495.238	-2.519	0.412	1.527	-0.383	-1.072	-9.493
144778.412	NaN	-5.837	2.457	20.978	1504.762	1500.366	1495.971	-2.534	0.504	1.496	-0.459	-1.072	-9.416
144779.388	NaN	-5.837	2.489	20.957	1504.029	1501.099	1496.703	-2.595	0.595	1.802	-0.459	-1.301	-9.340
144780.365	NaN	-5.870	2.511	20.957	1504.029	1501.099	1495.971	-2.550	0.550	1.954	-0.536	-1.072	-9.493
144781.342	NaN	-5.848	2.489	21.054	1503.297	1501.099	1495.238	-2.214	0.458	2.031	-0.459	-1.301	-9.416
144782.318	NaN	-5.826	2.500	21.011	1504.029	1501.099	1496.703	-2.244	0.458	1.924	-0.383	-1.225	-9.340
144783.295	NaN	-5.826	2.478	21.000	1504.762	1500.366	1494.505	-2.260	0.382	1.740	-0.383	-1.072	-9.493
144784.271	NaN	-5.837	2.457	20.989	1503.297	1501.099	1496.703	-2.275	0.534	1.634	-0.383	-1.148	-9.416
144785.248	NaN	-5.891	2.467	21.011	1504.029	1500.366	1495.238	-2.397	0.534	1.634	-0.306	-1.072	-9.416
144786.224	NaN	-5.848	2.478	20.957	1503.297	1500.366	1495.238	-2.336	0.427	1.618	-0.459	-1.148	-9.340
144787.201	NaN	-5.880	2.467	20.989	1504.762	1499.634	1495.971	-2.366	0.504	1.710	-0.306	-1.225	-9.416
144788.177	NaN	-5.783	2.500	21.000	1504.029	1500.366	1496.703	-2.504	0.443	1.664	-0.459	-1.301	-9.340
144789.154	NaN	-5.837	2.467	21.033	1504.029	1501.099	1495.971	-2.275	0.443	1.511	-0.306	-0.995	-9.416
144790.131	NaN	-5.837	2.446	20.978	1503.297	1500.366	1495.971	-2.229	0.443	1.496	-0.306	-0.995	-9.416
144791.107	NaN	-5.826	2.446	20.946	1504.029	1500.366	1495.238	-2.382	0.427	1.618	-0.383	-1.301	-9.263
144792.084	NaN	-5.880	2.467	20.967	1504.029	1501.099	1495.971	-2.397	0.595	1.786	-0.459	-1.148	-9.340
144793.060	NaN	-5.826	2.446	20.978	1504.762	1501.832	1496.703	-2.443	0.718	1.786	-0.383	-1.072	-9.416
144794.037	NaN	-5.891	2.435	21.000	1504.029	1500.366	1496.703	-2.443	0.595	1.573	-0.383	-1.072	-9.416
144795.013	NaN	-5.870	2.446	20.989	1504.029	1500.366	1495.971	-2.153	0.550	1.389	-0.383	-1.072	-9.416
144795.990	NaN	-5.848	2.435	21.011	1504.029	1500.366	1495.971	-2.046	0.565	1.420	-0.383	-1.072	-9.263
144796.967	NaN	-5.848	2.446	21.033	1504.762	1501.832	1495.238	-2.183	0.504	1.664	-0.383	-1.148	-9.340
144797.943	NaN	-5.880	2.457	20.989	1504.762	1501.099	1495.238	-2.382	0.534	1.817	-0.383	-1.072	-9.416
144878.021	NaN	-5.837	2.457	20.967	1504.029	1499.634	1496.703	-1.908	0.412	1.496	-0.536	-1.072	-9.416
144878.998	NaN	-5.804	2.489	20.946	1504.029	1500.366	1495.971	-1.939	0.412	1.756	-0.383	-1.148	-9.569
144879.974	NaN	-5.826	2.457	21.054	1504.029	1501.099	1495.971	-1.878	0.321	1.740	-0.536	-1.148	-9.187
144880.951	NaN	-5.837	2.489	20.978	1503.297	1500.366	1495.238	-2.046	0.321	1.481	-0.383	-1.148	-9.493
144881.927	NaN	-5.837	2.489	20.957	1504.029	1501.099	1494.505	-2.092	0.534	1.435	-0.383	-1.148	-9.340
144882.904	NaN	-5.848	2.478	21.054	1503.297	1501.099	1496.703	-2.122	0.550	1.603	-0.536	-1.148	-9.416
144883.881	NaN	-5.870	2.446	20.957	1504.762	1500.366	1495.238	-2.076	0.534	1.511	-0.383	-1.225	-9.340
144884.857	NaN	-5.870	2.457	20.957	1504.762	1500.366	1495.971	-1.954	0.321	1.405	-0.306	-1.072	-9.416
144885.834	NaN	-5.859	2.446	20.967	1504.762	1500.366	1495.971	-2.153	0.290	1.435	-0.306	-1.072	-9.493
144886.810	NaN	-5.815	2.435	20.935	1503.297	1501.099	1495.238	-2.275	0.351	1.450	-0.306	-1.072	-9.416
144887.787	NaN	-5.848	2.446	20.967	1504.762	1501.099	1495.238	-2.168	0.366	1.557	-0.459	-1.225	-9.340
144888.763	NaN	-5.837	2.457	21.033	1503.297	1501.099	1495.238	-2.092	0.244	1.695	-0.306	-0.995	-9.416
144889.740	NaN	-5.826	2.435	21.011	1502.564	1500.366	1495.971	-2.076	0.168	1.359	-0.306	-1.148	-9.340
144890.717	NaN	-5.815	2.478	21.076	1504.029	1500.366	1495.238	-2.183	0.321	1.267	-0.383	-0.995	-9.416
144891.693	NaN	-5.783	2.467	21.000	1504.029	1500.366	1496.703	-1.969	0.458	1.267	-0.383	-1.148	-9.416
144892.670	NaN	-5.859	2.467	21.011	1503.297	1501.099	1496.703	-2.061	0.489	1.389	-0.459	-1.148	-9.493
144893.646	NaN	-5.837	2.478	20.967	1504.029	1501.099	1495.971	-2.153	0.305	1.573	-0.383	-1.148	-9.416
144894.623	NaN	-5.870	2.467	21.000	1503.297	1501.099	1495.971	-2.107	0.336	1.649	-0.536	-1.148	-9.416
144895.599	NaN	-5.880	2.457	21.022	1505.495	1500.366	1496.703	-2.168	0.214	1.496	-0.536	-1.148	-9.263
144896.576	NaN	-5.837	2.478	20.989	1504.029	1501.832	1495.238	-2.061	0.290	1.206	-0.383	-1.148	-9.416
144897.552	NaN	-5.891	2.489	21.022	1503.297	1500.366	1494.505	-2.076	0.336	1.267	-0.383	-1.225	-9.416
144898.529	NaN	-5.848	2.467	21.011	1504.029	1501.099	1495.971	-2.290	0.412	1.435	-0.383	-1.148	-9.263
144899.506	NaN	-5.859	2.467	20.978	1505.495	1501.099	1495.971	-2.260	0.305	1.557	-0.459	-1.072	-9.263
144900.482	NaN	-5.848	2.467	20.946	1504.762	1501.099	1496.703	-2.092	0.168	1.389	-0.383	-1.148	-9.416
144901.459	NaN	-5.859	2.467	20.967	1501.099	1501.099	1495.971	-2.214	0.260	1.084	-0.306	-1.148	-9.493
144902.435	NaN	-5.924	2.489	20.935	1502.564	1499.634	1495.238	-2.076	0.366	1.160	-0.383	-1.225	-9.340
144903.412	NaN	-5.902	2.467	20.967	1504.029	1499.634	1495.971	-2.061	0.397	1.374	-0.459	-1.072	-9.263
144904.388	NaN	-5.859	2.467	21.011	1504.762	1501.099	1496.703	-2.198	0.443	1.557	-0.459	-1.148	-9.493
144905.365	NaN	-5.859	2.467	20.957	1504.762	1501.099	1495.238	-2.000	0.366	1.588	-0.383	-1.225	-9.263
144906.342	NaN	-5.870	2.467	20.957	1504.762	1501.099	1495.971	-1.908	0.366	1.496	-0.383	-1.148	-9.187
144907.318	NaN	-5.880	2.457	21.043	1503.297	1500.366	1494.505	-1.832	0.137	1.450	-0.383	-1.072	-9.493
144908.295	NaN	-5.880	2.457	20.967	1505.495	1500.366	1496.703	-1.847	0.214	1.527	-0.230	-1.148	-9.416
144909.271	NaN	-5.902	2.467	20.989	1502.564	1501.099	1495.238	-1.893	0.305	1.374	-0.306	-1.148	-9.493
144910.248	NaN	-5.837	2.467	21.011	1503.297	1500.366	1494.505	-2.107	0.336	1.237	-0.459	-1.225	-9.340
144911.224	NaN	-5.793	2.478	20.967	1504.029	1500.366	1495.238	-2.137	0.305	1.405	-0.383	-1.072	-9.416
144912.201	NaN	-5.859	2.467	20.924	1503.297	1500.366	1495.238	-2.031	0.321	1.527	-0.306	-1.072	-9.340
144913.177	NaN	-5.804	2.478	20.946	1502.564	1500.366	1494.505	-1.832	0.351	1.527	-0.459	-2.373	-9.340
144914.154	NaN	-5.848	2.478	20.924	1504.029	1500.366	1494.505	-1.908	0.351	1.389	-0.306	-1.148	-9.493
144915.131	NaN	-5.826	2.489	20.870	1504.029	1500.366	1495.971	-2.000	0.366	1.511	-0.459	-1.072	-9.340
144916.107	NaN	-5.891	2.489	20.967	1504.029	1500.366	1496.703	-2.046	0.397	1.557	-0.306	-1.148	-9.493
144917.084	NaN	-5.870	2.446	20.978	1503.297	1499.634	1496.703	-2.153	0.366	1.527	-0.536	-1.225	-9.416
144918.060	NaN	-5.870	2.457	20.967	1502.564	1500.366	1495.971	-2.076	0.473	1.496	-0.383	-1.225	-9.340
144919.037	NaN	-5.870	2.446	20.978	1504.762	1500.366	1495.238	-1.832	0.366	1.298	-0.459	-0.995	-9.416
144982.513	NaN	-5.804	2.467	20.924	1504.762	1500.366	1495.238	-2.031	0.137	1.298	-0.383	-1.072	-9.340
144983.490	NaN	-5.837	2.478	20.946	1503.297	1499.634	1495.971	-1.954	0.168	1.374	-0.383	-0.995	-9.340
144984.467	NaN	-5.848	2.457	21.000	1504.029	1499.634	1496.703	-1.939	0.153	1.298	-0.459	-1.148	-9.416
144985.443	NaN	-5.880	2.457	21.022	1504.762	1499.634	1496.703	-2.137	0.214	1.176	-0.459	-1.148	-9.340
144986.420	NaN	-5.870	2.446	21.022	1503.297	1500.366	1495.238	-2.107	0.076	1.298	-0.306	-1.225	-9.416
144987.396	NaN	-5.826	2.467	21.043	1501.832	1500.366	1495.238	-1.954	0.015	1.313	-0.459	-1.072	-9.416
144988.373	NaN	-5.826	2.467	20.989	1504.762	1500.366	1495.238	-1.863	0.153	1.237	-0.459	-1.225	-9.416
144989.349	NaN	-5.870	2.457	20.946	1503.297	1500.366	1493.773	-1.954	0.397	1.221	-0.383	-1.148	-9.493
144990.326	NaN	-5.848	2.489	20.978	1503.297	1500.366	1495.971	-1.679	0.260	1.237	-0.383	-0.995	-9.416
144991.302	NaN	-5.848	2.478	21.054	1504.762	1500.366	1495.971	-1.603	0.076	1.328	-0.306	-1.072	-9.493
144992.279	NaN	-5.793	2.489	20.989	1502.564	1499.634	1495.971	-1.710	0.153	1.328	-0.536	-1.148	-9.416
144993.256	NaN	-5.815	2.500	20.978	1504.762	1501.832	1495.971	-1.924	0.260	1.176	-0.459	-1.072	-9.340
144994.232	NaN	-5.804	2.511	20.967	1503.297	1500.366	1495.238	-1.832	0.321	0.962	-0.230	-1.225	-9.340
144995.209	NaN	-5.826	2.511	21.011	1504.029	1500.366	1495.971	-1.679	0.305	0.992	-0.383	-1.148	-9.416
144996.185	NaN	-5.815	2.500	21.065	1503.297	1500.366	1495.238	-1.634	0.198	0.962	-0.383	-1.225	-9.416
144997.162	NaN	-5.902	2.446	21.065	1504.029	1500.366	1494.505	-1.695	0.107	1.008	-0.383	-1.225	-9.416
144998.138	NaN	-5.859	2.467	21.000	1504.029	1501.099	1496.703	-1.847	0.000	1.176	-0.383	-1.225	-9.416
144999.115	NaN	-5.880	2.511	21.033	1504.762	1501.099	1495.238	-1.939	-0.015	1.237	-0.383	-1.225	-9.263
145000.092	NaN	-5.902	2.467	21.076	1504.029	1500.366	1494.505	-1.985	0.214	1.160	-0.383	-0.995	-9.263
145001.068	NaN	-5.837	2.478	21.033	1503.297	1500.366	1495.971	-1.878	0.336	1.069	-0.383	-1.225	-9.340
145002.045	NaN	-5.826	2.489	21.011	1504.762	1501.832	1495.238	-1.725	0.260	1.084	-0.459	-1.148	-9.493
145003.021	NaN	-5.793	2.467	21.098	1503.297	1500.366	1495.971	-1.786	0.153	1.191	-0.306	-1.072	-9.493
145003.998	NaN	-5.815	2.489	21.065	1502.564	1500.366	1495.971	-1.908	0.015	1.282	-0.383	-1.148	-9.416
145066.498	NaN	-5.880	2.467	21.054	1503.297	1500.366	1495.971	-1.817	0.275	1.176	-0.459	-1.072	-9.416
145067.474	NaN	-5.848	2.478	21.033	1503.297	1500.366	1495.238	-2.061	0.321	1.069	-0.459	-1.148	-9.340
145068.451	NaN	-5.924	2.446	21.043	1503.297	1500.366	1495.238	-1.939	0.473	0.779	-0.306	-1.225	-9.416
145069.427	NaN	-5.848	2.500	21.022	1504.762	1501.099	1495.971	-1.466	0.550	0.794	-0.459	-0.995	-9.416
145070.404	NaN	-5.826	2.467	21.033	1503.297	1500.366	1496.703	-1.344	0.550	0.824	-0.383	-1.148	-9.493
145071.381	NaN	-5.837	2.489	20.989	1504.029	1501.099	1495.238	-1.740	0.427	0.763	-0.383	-1.148	-9.416
145072.357	NaN	-5.848	2.478	20.989	1503.297	1500.366	1494.505	-1.954	0.397	0.763	-0.459	-1.225	-9.340
145073.334	NaN	-5.826	2.457	21.000	1505.495	1499.634	1496.703	-1.618	0.427	0.901	-0.306	-1.148	-9.263
145074.310	3731583042.979	-5.859	2.446	20.989	1503.297	1499.634	1496.703	-1.573	0.489	0.947	-0.383	-1.072	-9.340
145075.287	NaN	-5.837	2.467	20.978	1504.029	1500.366	1495.971	-1.802	0.366	0.809	-0.306	-2.220	-9.493
145076.263	NaN	-5.848	2.489	21.043	1503.297	1500.366	1495.971	-1.710	0.244	0.687	-0.383	-1.072	-9.340
145077.240	NaN	-5.859	2.489	20.978	1503.297	1499.634	1495.971	-1.450	0.275	0.718	-0.230	-1.225	-9.416
145078.217	NaN	-5.837	2.467	20.946	1503.297	1500.366	1496.703	-1.206	0.260	0.626	-0.306	-1.148	-9.416
145079.193	NaN	-5.880	2.478	21.000	1504.762	1499.634	1495.971	-1.282	0.427	0.748	-0.306	-1.148	-9.416
145080.170	NaN	-5.891	2.467	21.022	1504.029	1499.634	1495.971	-1.328	0.626	0.855	-0.383	-1.072	-9.416
145081.146	NaN	-5.848	2.457	21.000	1504.029	1500.366	1495.971	-1.313	0.656	0.962	-0.306	-1.148	-9.340
145082.123	NaN	-5.891	2.478	21.000	1500.366	1500.366	1495.971	-1.344	0.519	0.733	-0.536	-1.148	-9.263
145083.099	NaN	-5.913	2.467	21.000	1503.297	1501.832	1495.971	-1.481	0.321	0.565	-0.383	-1.072	-9.416
145084.076	NaN	-5.902	2.457	21.033	1504.762	1499.634	1496.703	-1.725	0.122	0.824	-0.459	-1.148	-9.340
145085.052	NaN	-5.870	2.467	21.043	1504.762	1501.099	1495.238	-1.557	0.229	0.763	-0.306	-1.072	-9.416
145086.029	NaN	-5.859	2.457	21.054	1503.297	1501.099	1495.971	-1.557	0.305	0.687	-0.383	-1.225	-9.340
145087.006	NaN	-5.837	2.478	20.946	1503.297	1500.366	1494.505	-1.634	0.382	0.672	-0.383	-1.301	-9.416
145087.982	NaN	-5.848	2.467	21.011	1504.029	1500.366	1496.703	-1.557	0.519	0.687	-0.306	-1.072	-9.187
145088.959	NaN	-5.837	2.467	20.978	1504.029	1500.366	1496.703	-1.710	0.412	0.794	-0.459	-2.373	-9.340
145089.935	NaN	-5.793	2.467	20.957	1504.029	1500.366	1495.971	-1.603	0.244	0.931	-0.459	-0.995	-9.416
145090.912	NaN	-5.837	2.457	21.011	1504.762	1499.634	1496.703	-1.466	0.198	0.870	-0.459	-0.995	-9.493
145091.888	NaN	-5.859	2.500	20.989	1504.029	1501.099	1495.238	-1.435	0.275	0.824	-0.306	-1.072	-9.569
145092.865	NaN	-5.837	2.489	21.087	1504.762	1500.366	1494.505	-1.542	0.473	0.824	-0.459	-1.072	-9.340
145093.842	NaN	-5.783	2.478	21.011	1504.762	1501.099	1495.238	-1.603	0.580	0.885	-0.459	-1.148	-9.416
145094.818	NaN	-5.837	2.467	20.902	1504.029	1500.366	1495.238	-1.527	0.458	0.992	-0.383	-1.225	-9.416
145095.795	NaN	-5.880	2.457	20.935	1503.297	1499.634	1495.238	-1.328	0.443	0.916	-0.459	-1.072	-9.493
145096.771	NaN	-5.859	2.500	20.935	1504.029	1500.366	1495.238	-1.374	0.443	0.824	-0.459	-1.148	-9.416
145097.748	NaN	-5.880	2.467	21.022	1505.495	1500.366	1495.238	-1.481	0.458	0.855	-0.459	-1.148	-9.416
145098.724	NaN	-5.924	2.478	20.946	1503.297	1500.366	1494.505	-1.588	0.397	0.733	-0.459	-1.072	-9.416
145099.701	NaN	-5.859	2.489	20.989	1504.029	1500.366	1495.238	-1.588	0.351	0.595	-0.383	-1.301	-9.416
145397.552	NaN	-5.913	2.489	21.033	1503.297	1500.366	1495.238	-0.763	0.321	-0.290	-0.383	-1.072	-9.340
145398.529	NaN	-5.891	2.457	21.043	1504.029	1499.634	1495.971	-0.870	0.305	-0.229	-0.230	-1.072	-9.340
145399.506	NaN	-5.815	2.478	21.033	1504.029	1500.366	1494.505	-0.870	0.427	-0.122	-0.383	-1.148	-9.340
145400.482	NaN	-5.826	2.500	21.000	1504.029	1501.099	1495.238	-0.794	0.458	-0.076	-0.306	-1.225	-9.416
145401.459	NaN	-5.848	2.500	21.033	1503.297	1499.634	1495.971	-0.763	0.321	-0.153	-0.459	-1.225	-9.416
145402.435	NaN	-5.793	2.478	21.011	1504.029	1500.366	1496.703	-0.901	0.229	-0.107	-0.536	-1.148	-9.416
145403.412	NaN	-5.902	2.467	21.087	1504.029	1500.366	1496.703	-0.962	0.290	-0.168	-0.306	-1.148	-9.493
145404.388	NaN	-5.870	2.511	21.022	1504.029	1501.099	1496.703	-0.855	0.397	-0.336	-0.383	-1.148	-9.416
145405.365	NaN	-5.891	2.467	20.967	1504.029	1501.099	1496.703	-0.733	0.504	-0.351	-0.383	-1.072	-9.493
145406.342	NaN	-5.880	2.457	20.967	1504.029	1500.366	1495.971	-0.702	0.412	-0.366	-0.383	-1.148	-9.416
145407.318	NaN	-5.848	2.467	20.967	1504.029	1500.366	1495.238	-0.519	0.458	-0.458	-0.383	-1.148	-9.340
145408.295	NaN	-5.880	2.511	20.935	1504.029	1500.366	1495.238	-0.595	0.565	-0.321	-0.383	-1.225	-9.416
145409.271	NaN	-5.837	2.478	20.978	1504.029	1501.099	1495.238	-0.763	0.443	-0.168	-0.459	-1.148	-9.416
145410.248	NaN	-5.826	2.478	20.978	1504.029	1501.099	1495.238	-0.916	0.229	-0.336	-0.383	-1.072	-9.340
145411.224	NaN	-5.880	2.467	20.946	1503.297	1501.099	1496.703	-0.733	0.305	-0.443	-0.459	-1.225	-9.416
145412.201	NaN	-5.815	2.457	20.902	1503.297	1498.901	1495.238	-0.565	0.580	-0.382	-0.383	-0.995	-9.340
145413.177	NaN	-5.804	2.457	21.011	1504.762	1501.099	1496.703	-0.489	0.504	-0.351	-0.459	-1.072	-9.493
145414.154	NaN	-5.859	2.467	21.033	1503.297	1500.366	1495.971	-0.580	0.473	-0.382	-0.536	-1.148	-9.340
145415.131	NaN	-5.837	2.489	21.033	1504.762	1499.634	1497.436	-0.641	0.412	-0.443	-0.306	-1.225	-9.340
145416.107	NaN	-5.837	2.500	20.924	1503.297	1500.366	1495.971	-0.519	0.458	-0.366	-0.383	-1.072	-9.416
145417.084	NaN	-5.902	2.467	21.065	1503.297	1499.634	1496.703	-0.565	0.473	-0.489	-0.306	-1.225	-9.340
145418.060	NaN	-5.826	2.500	21.033	1502.564	1500.366	1493.773	-0.565	0.550	-0.504	-0.306	-1.225	-9.340
145419.037	NaN	-5.826	2.467	21.033	1504.029	1500.366	1494.505	-0.702	0.550	-0.305	-0.383	-1.148	-9.416
145420.013	NaN	-5.848	2.489	21.065	1504.029	1500.366	1495.971	-0.870	0.382	-0.229	-0.383	-1.148	-9.416
145420.990	NaN	-5.870	2.467	21.043	1504.029	1500.366	1494.505	-0.931	0.336	-0.427	-0.459	-1.072	-9.493
145421.967	NaN	-5.880	2.435	21.011	1503.297	1499.634	1495.971	-0.763	0.473	-0.519	-0.306	-1.148	-9.416
145422.943	NaN	-5.837	2.478	21.011	1502.564	1499.634	1496.703	-0.580	0.473	-0.519	-0.383	-1.148	-9.263
145423.920	NaN	-5.880	2.489	20.967	1503.297	1500.366	1496.703	-0.718	0.473	-0.534	-0.383	-1.148	-9.493
145424.896	NaN	-5.870	2.467	20.978	1503.297	1500.366	1495.971	-0.519	0.473	-0.504	-0.383	-1.148	-9.416
145425.873	NaN	-5.880	2.467	21.076	1502.564	1500.366	1493.773	-0.534	0.595	-0.412	-0.459	-1.072	-9.416
145426.849	NaN	-5.880	2.500	21.022	1504.029	1500.366	1493.773	-0.565	0.702	-0.305	-0.536	-1.072	-9.263
145427.826	NaN	-5.859	2.511	21.033	1503.297	1499.634	1495.971	-0.580	0.427	-0.229	-0.536	-1.072	-9.416
145428.802	NaN	-5.870	2.478	21.076	1504.029	1501.099	1495.238	-0.595	0.260	-0.351	-0.459	-1.148	-9.493
145429.779	NaN	-5.880	2.467	21.011	1504.029	1500.366	1495.971	-0.611	0.366	-0.382	-0.383	-0.995	-9.569
145430.756	NaN	-5.815	2.511	20.978	1504.029	1501.099	1495.971	-0.611	0.321	-0.473	-0.383	-1.148	-9.416
145431.732	NaN	-5.870	2.511	20.989	1504.029	1500.366	1496.703	-0.718	0.443	-0.397	-0.383	-1.148	-9.340
145432.709	NaN	-5.880	2.489	20.967	1503.297	1500.366	1495.971	-0.672	0.672	-0.260	-0.383	-1.148	-9.416
145433.685	NaN	-5.859	2.478	20.978	1504.762	1500.366	1496.703	-0.611	0.519	-0.214	-0.383	-1.072	-9.416
145434.662	NaN	-5.880	2.435	20.967	1504.029	1500.366	1495.238	-0.824	0.458	-0.382	-0.383	-1.072	-9.416
145435.638	NaN	-5.891	2.478	20.978	1503.297	1500.366	1494.505	-0.855	0.458	-0.275	-0.306	-1.148	-9.493
145436.615	NaN	-5.870	2.467	21.022	1504.029	1501.099	1495.238	-0.687	0.534	-0.275	-0.459	-1.148	-9.416
145437.592	NaN	-5.815	2.500	20.967	1504.029	1500.366	1495.971	-0.809	0.519	-0.351	-0.306	-1.301	-9.416
145438.568	NaN	-5.848	2.489	20.989	1504.029	1498.901	1497.436	-0.748	0.565	-0.473	-0.459	-1.072	-9.416
145439.545	NaN	-5.848	2.511	21.098	1503.297	1499.634	1495.971	-0.748	0.626	-0.382	-0.459	-1.225	-9.340
145440.521	NaN	-5.859	2.500	21.054	1504.029	1500.366	1495.971	-0.748	0.519	-0.366	-0.383	-1.378	-9.493
145441.498	NaN	-5.837	2.478	21.033	1504.762	1499.634	1496.703	-0.763	0.473	-0.412	-0.383	-1.072	-9.340
145442.474	NaN	-5.880	2.500	21.065	1502.564	1499.634	1495.971	-0.702	0.519	-0.397	-0.306	-1.072	-9.416
145443.451	NaN	-5.804	2.489	20.989	1502.564	1500.366	1495.238	-0.534	0.473	-0.412	-0.459	-1.072	-9.416
145444.427	NaN	-5.848	2.478	20.924	1505.495	1500.366	1495.238	-0.504	0.489	-0.489	-0.306	-1.148	-9.263
145445.404	NaN	-5.848	2.457	20.989	1503.297	1501.099	1495.238	-0.397	0.473	-0.504	-0.383	-1.225	-9.263
145446.381	NaN	-5.913	2.467	21.022	1503.297	1500.366	1495.971	-0.244	0.458	-0.443	-0.383	-1.072	-9.263
145447.357	NaN	-5.891	2.467	20.978	1502.564	1498.901	1496.703	-0.321	0.626	-0.412	-0.230	-1.148	-9.416
145448.334	NaN	-5.891	2.478	20.978	1504.029	1500.366	1495.971	-0.580	0.656	-0.397	-0.383	-1.148	-9.493
145449.310	NaN	-5.826	2.478	21.054	1504.029	1500.366	1496.703	-0.626	0.580	-0.519	-0.230	-1.148	-9.416
145450.287	NaN	-5.870	2.478	21.054	1504.762	1501.099	1495.971	-0.519	0.504	-0.412	-0.383	-1.072	-9.340
145451.263	NaN	-5.837	2.467	21.033	1503.297	1500.366	1495.971	-0.458	0.504	-0.443	-0.306	-1.072	-9.340
145452.240	NaN	-5.870	2.489	21.076	1503.297	1500.366	1494.505	-0.580	0.626	-0.458	-0.459	-1.148	-9.416
145453.217	NaN	-5.870	2.489	21.022	1504.762	1501.832	1495.238	-0.595	0.855	-0.412	-0.459	-1.148	-9.416
145454.193	NaN	-5.870	2.500	21.120	1504.762	1500.366	1495.238	-0.473	0.855	-0.412	-0.459	-1.378	-9.416
145455.170	NaN	-5.826	2.500	20.989	1504.762	1500.366	1496.703	-0.427	0.489	-0.443	-0.459	-1.072	-9.493
145456.146	NaN	-5.880	2.500	20.989	1503.297	1500.366	1496.703	-0.412	0.443	-0.611	-0.383	-1.148	-9.493
145457.123	NaN	-5.924	2.489	21.000	1502.564	1500.366	1495.238	-0.672	0.519	-0.458	-0.306	-1.148	-9.493
145458.099	NaN	-5.837	2.500	20.957	1503.297	1500.366	1494.505	-0.779	0.702	-0.427	-0.383	-1.148	-9.340
145459.076	NaN	-5.837	2.478	20.978	1503.297	1499.634	1496.703	-0.473	0.748	-0.504	-0.306	-1.148	-9.340
145460.052	NaN	-5.880	2.457	20.935	1503.297	1501.099	1495.238	-0.504	0.519	-0.550	-0.306	-1.148	-9.416
145461.029	NaN	-5.880	2.467	21.000	1502.564	1499.634	1496.703	-0.702	0.397	-0.550	-0.459	-1.225	-9.263
145462.006	NaN	-5.837	2.478	20.978	1503.297	1499.634	1495.971	-0.443	0.672	-0.489	-0.459	-1.072	-9.493
145462.982	NaN	-5.804	2.467	20.891	1503.297	1498.901	1495.971	-0.321	0.870	-0.397	-0.459	-1.148	-9.416
145463.959	NaN	-5.848	2.489	20.978	1504.029	1501.099	1494.505	-0.321	0.748	-0.611	-0.383	-1.148	-9.340
145464.935	NaN	-5.837	2.467	21.022	1504.029	1500.366	1495.238	-0.626	0.534	-0.702	-0.459	-1.072	-9.416
145465.912	NaN	-5.859	2.500	21.000	1504.762	1501.099	1495.238	-0.595	0.458	-0.626	-0.459	-1.148	-9.340
145466.888	NaN	-5.891	2.467	21.054	1504.029	1500.366	1495.971	-0.443	0.519	-0.489	-0.383	-1.148	-9.340
145467.865	NaN	-5.826	2.489	20.978	1504.029	1500.366	1495.971	-0.397	0.626	-0.504	-0.459	-1.225	-9.493
145468.842	NaN	-5.859	2.489	20.989	1504.762	1501.099	1495.971	-0.565	0.611	-0.550	-0.459	-1.301	-9.416
145469.818	NaN	-5.859	2.489	21.054	1504.029	1500.366	1494.505	-0.840	0.626	-0.611	-0.230	-0.995	-9.340
145470.795	NaN	-5.870	2.500	21.033	1504.762	1501.099	1495.971	-0.656	0.718	-0.580	-0.459	-1.072	-9.493
145471.771	NaN	-5.848	2.489	21.011	1503.297	1501.099	1495.971	-0.534	0.641	-0.397	-0.383	-1.148	-9.340
145472.748	NaN	-5.880	2.489	21.000	1503.297	1500.366	1495.238	-0.275	0.580	-0.275	-0.383	-0.995	-9.340
145473.724	NaN	-5.870	2.500	20.935	1504.029	1501.099	1495.971	-0.336	0.626	-0.321	-0.383	-1.072	-9.340
145474.701	NaN	-5.848	2.500	20.967	1503.297	1499.634	1497.436	-0.336	0.718	-0.275	-0.306	-1.148	-9.340
145475.677	NaN	-5.804	2.500	20.989	1504.762	1500.366	1497.436	-0.550	0.702	-0.412	-0.536	-1.072	-9.340
145476.654	NaN	-5.804	2.489	21.011	1504.029	1500.366	1495.238	-0.611	0.702	-0.443	-0.459	-1.148	-9.340
145477.631	NaN	-5.870	2.467	20.989	1504.029	1501.099	1496.703	-0.473	0.672	-0.504	-0.459	-1.072	-9.340
145478.607	NaN	-5.848	2.446	20.946	1504.029	1500.366	1495.971	-0.336	0.611	-0.611	-0.306	-1.225	-9.416
145479.584	NaN	-5.815	2.457	20.967	1504.762	1500.366	1495.971	-0.382	0.656	-0.718	-0.536	-0.919	-9.416
145480.560	NaN	-5.848	2.478	20.978	1504.029	1500.366	1495.238	-0.550	0.580	-0.611	-0.536	-1.072	-9.493
145481.537	NaN	-5.880	2.478	20.989	1504.029	1500.366	1495.971	-0.519	0.519	-0.550	-0.459	-1.148	-9.340
145482.513	NaN	-5.891	2.478	20.989	1503.297	1500.366	1494.505	-0.519	0.427	-0.519	-0.459	-1.072	-9.416
145483.490	NaN	-5.848	2.457	20.924	1502.564	1499.634	1496.703	-0.305	0.641	-0.550	-0.383	-1.148	-9.416
145484.467	NaN	-5.880	2.489	20.946	1503.297	1501.832	1495.971	-0.595	0.870	-0.641	-0.536	-1.072	-9.416
145485.443	NaN	-5.880	2.478	20.946	1504.762	1500.366	1495.238	-0.504	0.931	-0.748	-0.536	-1.072	-9.340
145486.420	NaN	-5.859	2.489	21.022	1504.762	1500.366	1495.971	-0.260	0.702	-0.580	-0.383	-1.072	-9.416
145487.396	NaN	-5.848	2.489	21.054	1504.029	1500.366	1495.238	-0.168	0.458	-0.550	-0.230	-1.072	-9.340
145488.373	NaN	-5.880	2.446	21.011	1504.029	1500.366	1495.238	-0.321	0.412	-0.809	-0.459	-1.225	-9.493
145489.349	NaN	-5.815	2.489	20.989	1504.762	1500.366	1496.703	-0.366	0.550	-0.718	-0.459	-1.072	-9.416
145490.326	NaN	-5.826	2.467	21.065	1504.762	1500.366	1495.238	-0.458	0.702	-0.534	-0.306	-1.072	-9.493
145491.302	NaN	-5.837	2.478	21.022	1503.297	1500.366	1497.436	-0.260	0.809	-0.473	-0.383	-1.225	-9.416
145492.279	NaN	-5.804	2.478	20.978	1503.297	1499.634	1496.703	-0.153	0.718	-0.626	-0.306	-1.072	-9.416
145493.256	NaN	-5.870	2.478	21.011	1504.029	1500.366	1495.971	-0.153	0.641	-0.718	-0.383	-1.148	-9.340
145494.232	NaN	-5.815	2.467	21.011	1504.762	1499.634	1495.971	-0.122	0.611	-0.718	-0.383	-1.072	-9.493
145495.209	NaN	-5.815	2.457	21.000	1502.564	1499.634	1495.971	-0.107	0.748	-0.763	-0.383	-0.995	-9.187
145496.185	NaN	-5.826	2.457	21.065	1503.297	1500.366	1496.703	-0.244	0.885	-0.702	-0.383	-1.148	-9.493
145497.162	NaN	-5.848	2.467	21.022	1504.029	1499.634	1495.971	-0.321	0.901	-0.672	-0.383	-1.072	-9.493
145498.138	3731583043.356	-5.880	2.457	20.913	1504.762	1500.366	1495.971	-0.229	0.962	-0.626	-0.306	-1.072	-9.416
145499.115	NaN	-5.891	2.457	20.989	1504.762	1500.366	1495.971	-0.107	0.611	-0.611	-0.459	-0.995	-9.263
145500.092	NaN	-5.913	2.467	20.978	1503.297	1501.099	1495.971	-0.046	0.489	-0.626	-0.383	-0.995	-9.263
145501.068	NaN	-5.880	2.467	20.978	1503.297	1499.634	1496.703	-0.183	0.672	-0.672	-0.306	-1.072	-9.416
145502.045	NaN	-5.891	2.467	20.978	1503.297	1500.366	1498.901	-0.229	0.855	-0.672	-0.383	-1.148	-9.493
145503.021	NaN	-5.870	2.467	20.967	1504.029	1500.366	1495.971	-0.305	0.672	-0.611	-0.459	-1.148	-9.416
145503.998	NaN	-5.870	2.478	20.978	1503.297	1501.099	1495.238	-0.260	0.443	-0.595	-0.383	-1.225	-9.493
145504.974	NaN	-5.793	2.467	20.913	1504.029	1500.366	1494.505	-0.107	0.656	-0.641	-0.383	-1.225	-9.340
145505.951	NaN	-5.837	2.489	21.011	1504.762	1499.634	1495.971	-0.214	0.870	-0.672	-0.306	-0.995	-9.263
145506.927	NaN	-5.859	2.467	20.989	1504.029	1501.099	1497.436	-0.473	0.809	-0.595	-0.383	-1.148	-9.493
145507.904	NaN	-5.870	2.457	20.989	1504.029	1501.099	1495.238	-0.229	0.779	-0.397	-0.383	-1.072	-9.340
145735.443	NaN	-5.935	2.457	20.924	1503.297	1499.634	1496.703	-0.092	0.397	-1.542	-0.459	-0.077	-9.263
145736.420	NaN	-5.924	2.457	20.967	1502.564	1500.366	1496.703	-0.168	0.626	-1.511	-0.306	-1.072	-9.340
145737.396	NaN	-5.837	2.446	21.033	1504.029	1500.366	1495.238	-0.137	0.656	-1.679	-0.306	-1.072	-9.493
145738.373	NaN	-5.859	2.467	20.935	1503.297	1500.366	1493.040	-0.198	0.641	-1.817	-0.306	-1.301	-9.340
145739.349	NaN	-5.859	2.478	20.978	1504.029	1501.099	1495.971	-0.229	0.565	-1.740	-0.383	-1.225	-9.416
145740.326	NaN	-5.870	2.478	21.011	1504.029	1500.366	1498.168	-0.107	0.519	-1.481	-0.306	-1.148	-9.263
145741.302	NaN	-5.793	2.435	21.022	1504.029	1500.366	1495.238	-0.183	0.687	-1.542	-0.306	-1.225	-9.340
145742.279	NaN	-5.793	2.435	20.978	1509.158	1501.099	1496.703	-0.153	0.718	-1.511	-0.306	-1.072	-9.340
145743.256	NaN	-5.902	2.457	20.935	1504.029	1501.832	1495.238	-0.321	0.687	-1.420	-0.383	-1.148	-9.340
145744.232	NaN	-5.902	2.457	21.065	1503.297	1500.366	1496.703	-0.244	0.702	-1.527	-0.459	-1.225	-9.416
145745.209	NaN	-5.848	2.457	21.022	1503.297	1500.366	1496.703	-0.137	0.687	-1.603	-0.383	-1.148	-9.416
145746.185	NaN	-5.848	2.446	21.011	1504.029	1500.366	1495.971	-0.107	0.641	-1.313	-0.383	-1.148	-9.416
145747.162	NaN	-5.848	2.478	21.000	1504.762	1500.366	1495.238	0.031	0.656	-1.450	-0.536	-1.148	-9.416
145748.138	NaN	-5.870	2.467	21.098	1504.029	1500.366	1495.238	-0.061	0.565	-1.557	-0.383	-0.995	-9.493
145749.115	NaN	-5.837	2.478	21.043	1504.029	1501.099	1495.971	-0.198	0.595	-1.389	-0.536	-1.072	-9.416
145750.092	NaN	-5.848	2.467	21.033	1503.297	1501.099	1495.971	-0.198	0.565	-1.405	-0.306	-1.072	-9.416
145751.068	NaN	-5.837	2.446	21.000	1503.297	1500.366	1496.703	-0.351	0.473	-1.466	-0.306	-1.148	-9.416
145752.045	NaN	-5.870	2.467	21.011	1504.029	1500.366	1495.971	-0.244	0.412	-1.634	-0.383	-1.148	-9.340
145753.021	NaN	-5.870	2.478	21.033	1504.029	1500.366	1495.238	-0.092	0.534	-1.649	-0.306	-1.148	-9.416
145753.998	NaN	-5.859	2.478	21.076	1504.029	1500.366	1495.971	-0.046	0.519	-1.603	-0.459	-1.148	-9.416
145754.974	NaN	-5.826	2.446	21.098	1504.029	1500.366	1495.238	-0.046	0.458	-1.603	-0.459	-1.148	-9.416
145755.951	NaN	-5.826	2.457	21.022	1504.762	1500.366	1495.238	0.046	0.687	-1.756	-0.306	-1.148	-9.416
145756.927	NaN	-5.859	2.478	20.967	1504.029	1501.099	1495.971	0.076	0.626	-1.740	-0.306	-1.148	-9.416
145757.904	NaN	-5.793	2.467	20.957	1503.297	1500.366	1495.238	-0.168	0.641	-1.649	-0.459	-1.225	-9.340
145758.881	NaN	-5.815	2.478	20.946	1504.762	1501.099	1495.971	-0.550	0.641	-1.573	-0.536	-1.225	-9.493
145759.857	NaN	-5.880	2.457	21.011	1504.029	1500.366	1495.971	-0.412	0.733	-1.695	-0.383	-1.148	-9.416
145760.834	NaN	-5.870	2.489	20.902	1503.297	1500.366	1493.773	-0.137	0.687	-1.725	-0.459	-1.148	-9.263
145761.810	NaN	-5.880	2.467	20.924	1502.564	1499.634	1495.238	0.076	0.656	-1.496	-0.459	-1.148	-9.340
145762.787	NaN	-5.880	2.467	20.978	1504.029	1501.099	1495.238	0.107	0.733	-1.557	-0.383	-1.072	-9.493
145763.763	NaN	-5.859	2.457	21.000	1503.297	1501.099	1495.971	-0.122	0.580	-1.588	-0.306	-1.148	-9.340
145764.740	NaN	-5.870	2.446	20.978	1502.564	1499.634	1497.436	-0.061	0.580	-1.511	-0.459	-1.072	-9.416
145765.717	NaN	-5.880	2.457	20.946	1504.029	1498.901	1495.971	0.031	0.611	-1.466	-0.383	-1.148	-9.416
145766.693	NaN	-5.837	2.457	20.989	1504.029	1501.099	1495.971	-0.214	0.565	-1.618	-0.383	-1.225	-9.416
145767.670	NaN	-5.870	2.489	20.946	1503.297	1500.366	1496.703	-0.504	0.595	-1.786	-0.383	-1.072	-9.416
145768.646	NaN	-5.880	2.467	21.000	1501.832	1499.634	1495.238	-0.321	0.641	-1.802	-0.383	-1.148	-9.569
145769.623	NaN	-5.891	2.457	20.946	1503.297	1500.366	1495.238	0.061	0.702	-1.573	-0.459	-1.148	-9.493
145770.599	NaN	-5.935	2.467	20.967	1504.029	1501.099	1495.971	-0.046	0.672	-1.573	-0.383	-1.148	-9.416
145771.576	NaN	-5.880	2.446	21.000	1504.029	1500.366	1494.505	0.107	0.565	-1.618	-0.383	-1.072	-9.416
145772.552	NaN	-5.848	2.446	20.957	1503.297	1500.366	1494.505	0.107	0.779	-1.634	-0.459	-1.072	-9.416
145773.529	NaN	-5.880	2.435	20.967	1504.029	1500.366	1495.971	-0.153	0.763	-1.618	-0.383	-1.072	-9.416
145774.506	NaN	-5.826	2.457	20.946	1504.029	1501.099	1495.238	-0.321	0.687	-1.710	-0.383	-1.072	-9.263
145775.482	NaN	-5.848	2.467	21.022	1504.762	1501.099	1495.971	-0.336	0.702	-1.847	-0.459	-1.225	-9.263
145776.459	NaN	-5.880	2.467	20.935	1504.029	1501.099	1497.436	-0.244	0.565	-1.756	-0.306	-1.148	-9.493
145777.435	NaN	-5.870	2.467	21.043	1504.029	1501.099	1495.971	-0.076	0.473	-1.832	-0.383	-1.225	-9.493
145778.412	NaN	-5.826	2.478	21.065	1503.297	1501.099	1494.505	-0.214	0.427	-1.786	-0.383	-1.072	-9.416
145779.388	NaN	-5.804	2.467	21.054	1504.762	1500.366	1496.703	-0.427	0.458	-1.603	-0.383	-1.225	-9.493
145780.365	NaN	-5.891	2.500	21.011	1504.762	1500.366	1495.238	-0.366	0.580	-1.481	-0.383	-1.148	-9.416
145781.342	NaN	-5.848	2.467	21.000	1502.564	1499.634	1495.971	-0.260	0.809	-1.542	-0.612	-0.995	-9.263
145782.318	NaN	-5.848	2.446	21.033	1502.564	1501.099	1495.238	-0.214	0.779	-1.634	-0.536	-1.148	-9.340
145783.295	NaN	-5.826	2.467	21.043	1504.762	1499.634	1495.971	-0.122	0.656	-1.832	-0.459	-1.072	-9.416
145784.271	NaN	-5.848	2.467	21.043	1503.297	1501.832	1495.971	-0.198	0.550	-1.847	-0.383	-1.148	-9.416
145785.248	NaN	-5.848	2.467	21.022	1504.029	1500.366	1495.238	-0.275	0.519	-1.588	-0.306	-1.072	-9.416
145786.224	NaN	-5.891	2.467	21.054	1504.762	1500.366	1495.238	-0.122	0.580	-1.557	-0.383	-1.148	-9.416
145787.201	NaN	-5.859	2.457	21.011	1504.762	1499.634	1494.505	0.107	0.550	-1.725	-0.383	-1.148	-9.340
145788.177	NaN	-5.859	2.478	20.967	1503.297	1501.099	1495.238	0.031	0.565	-1.878	-0.383	-1.225	-9.493
145789.154	NaN	-5.891	2.467	21.000	1504.029	1500.366	1495.971	-0.031	0.504	-1.695	-0.459	-1.148	-9.340
145790.131	NaN	-5.870	2.457	21.011	1504.029	1501.099	1495.971	0.198	0.443	-1.740	-0.306	-1.148	-9.493
145791.107	NaN	-5.859	2.467	20.967	1504.029	1501.099	1495.971	0.061	0.458	-1.847	-0.306	-1.148	-9.263
145792.084	NaN	-5.859	2.467	20.989	1503.297	1501.099	1495.971	0.000	0.626	-1.847	-0.459	-1.072	-9.416
145793.060	NaN	-5.848	2.478	20.989	1504.029	1500.366	1495.238	-0.183	0.840	-1.954	-0.383	-0.995	-9.416
145794.037	NaN	-5.859	2.489	20.989	1504.762	1501.099	1495.971	-0.397	0.779	-1.908	-0.383	-1.072	-9.340
145795.013	NaN	-5.826	2.467	20.989	1504.029	1499.634	1498.168	-0.443	0.733	-1.725	-0.383	-1.072	-9.493
145795.990	NaN	-5.870	2.457	20.946	1503.297	1500.366	1493.773	-0.229	0.702	-1.710	-0.459	-1.072	-9.263
145796.967	NaN	-5.880	2.446	20.946	1503.297	1500.366	1497.436	-0.321	0.534	-1.954	-0.306	-1.225	-9.187
145797.943	NaN	-5.848	2.446	20.989	1504.029	1500.366	1494.505	-0.214	0.519	-1.863	-0.383	-1.072	-9.416
145798.920	NaN	-5.783	2.467	20.989	1504.029	1501.832	1495.238	-0.229	0.702	-1.649	-0.383	-1.072	-9.416
145799.896	NaN	-5.848	2.457	21.000	1504.762	1499.634	1495.971	-0.214	0.763	-1.496	-0.383	-1.148	-9.340
145800.873	NaN	-5.815	2.500	21.043	1502.564	1499.634	1495.971	-0.260	0.626	-1.573	-0.383	-1.148	-9.416
145801.849	NaN	-5.902	2.478	21.065	1504.762	1501.099	1495.971	-0.153	0.672	-1.649	-0.383	-1.072	-9.493
145802.826	NaN	-5.891	2.500	21.098	1504.762	1500.366	1493.773	-0.183	0.748	-1.863	-0.459	-1.072	-9.416
145803.802	NaN	-5.870	2.500	21.033	1504.029	1500.366	1496.703	-0.305	0.534	-1.985	-0.383	-1.148	-9.416
145804.779	NaN	-5.891	2.467	21.011	1502.564	1500.366	1494.505	-0.244	0.519	-1.893	-0.459	-1.148	-9.493
145805.756	NaN	-5.815	2.478	21.065	1503.297	1499.634	1495.971	-0.183	0.473	-1.908	-0.383	-1.148	-9.340
145806.732	NaN	-5.826	2.489	21.065	1504.029	1501.099	1495.971	-0.198	0.550	-1.863	-0.306	-1.072	-9.416
145807.709	NaN	-5.848	2.478	21.065	1503.297	1501.099	1495.238	-0.229	0.656	-1.725	-0.459	-1.072	-9.493
145808.685	NaN	-5.837	2.467	21.054	1503.297	1499.634	1495.971	-0.305	0.702	-1.725	-0.383	-1.225	-9.340
145809.662	NaN	-5.848	2.489	21.000	1504.029	1500.366	1496.703	-0.198	0.718	-1.710	-0.306	-1.148	-9.416
145810.638	NaN	-5.902	2.446	21.043	1502.564	1500.366	1495.238	-0.046	0.550	-1.588	-0.306	-1.225	-9.340
145811.615	NaN	-5.859	2.467	21.054	1504.029	1500.366	1494.505	-0.107	0.718	-1.664	-0.383	-1.072	-9.416
145812.592	NaN	-5.837	2.478	21.022	1504.029	1501.099	1496.703	-0.229	0.855	-1.771	-0.383	-1.225	-9.340
145813.568	NaN	-5.826	2.457	20.946	1504.029	1501.099	1494.505	-0.046	0.824	-2.000	-0.459	-1.225	-9.493
145814.545	NaN	-5.891	2.435	21.022	1504.762	1501.832	1496.703	-0.046	0.748	-1.985	-0.230	-1.148	-9.493
145815.521	NaN	-5.902	2.478	20.967	1504.029	1500.366	1495.971	-0.137	0.702	-1.878	-0.306	-1.072	-9.416
145816.498	NaN	-5.859	2.467	20.978	1504.029	1500.366	1495.971	-0.031	0.595	-1.756	-0.383	-1.148	-9.493
145817.474	NaN	-5.859	2.500	20.989	1504.029	1501.099	1494.505	0.061	0.641	-1.740	-0.459	-1.148	-9.493
145818.451	NaN	-5.826	2.500	21.000	1503.297	1500.366	1494.505	-0.122	0.687	-1.863	-0.383	-1.225	-9.340
145819.427	NaN	-5.870	2.467	21.076	1502.564	1499.634	1495.238	-0.137	0.687	-1.939	-0.459	-1.148	-9.493
145820.404	NaN	-5.880	2.478	20.967	1504.029	1500.366	1493.040	-0.244	0.656	-1.893	-0.383	-1.072	-9.340
145821.381	NaN	-5.891	2.478	20.924	1503.297	1500.366	1496.703	-0.412	0.656	-1.740	-0.383	-1.072	-9.340
145822.357	NaN	-5.870	2.446	21.011	1503.297	1500.366	1494.505	-0.260	0.641	-1.847	-0.459	-1.225	-9.416
145823.334	NaN	-5.859	2.467	20.989	1503.297	1500.366	1495.971	-0.168	0.687	-1.969	-0.306	-1.148	-9.569
145824.310	NaN	-5.902	2.467	20.989	1502.564	1500.366	1494.505	-0.183	0.718	-1.908	-0.383	-1.072	-9.340
145825.287	NaN	-5.902	2.457	20.978	1502.564	1498.901	1495.238	-0.168	0.718	-1.725	-0.383	-1.148	-9.493
145826.263	NaN	-5.870	2.435	21.000	1504.029	1500.366	1494.505	-0.137	0.687	-1.817	-0.459	-1.301	-9.416
145827.240	NaN	-5.815	2.413	20.891	1504.029	1500.366	1495.971	-0.153	0.916	-1.954	-0.459	-0.995	-9.340
145828.217	NaN	-5.837	2.478	20.957	1503.297	1499.634	1495.971	-0.137	0.870	-1.878	-0.459	-1.148	-9.416
145829.193	NaN	-5.848	2.467	20.946	1504.029	1500.366	1495.238	-0.031	0.718	-1.832	-0.383	-1.148	-9.340
145830.170	NaN	-5.902	2.478	20.989	1504.029	1500.366	1494.505	-0.122	0.748	-1.893	-0.383	-1.148	-9.493
145831.146	NaN	-5.826	2.446	21.022	1504.762	1500.366	1495.238	-0.076	0.779	-1.893	-0.383	-1.225	-9.340
145832.123	NaN	-5.837	2.478	20.967	1504.762	1500.366	1494.505	-0.137	0.931	-1.756	-0.306	-1.072	-9.493
145833.099	NaN	-5.837	2.467	20.989	1504.029	1500.366	1495.238	-0.015	0.824	-1.695	-0.383	-1.148	-9.340
145834.076	NaN	-5.891	2.478	20.967	1504.029	1500.366	1494.505	-0.168	0.763	-1.893	-0.306	-1.148	-9.340
145835.052	NaN	-5.837	2.478	20.946	1504.762	1499.634	1497.436	-0.061	0.748	-1.969	-0.536	-1.148	-9.340
145836.029	NaN	-5.859	2.467	21.054	1503.297	1500.366	1495.971	0.031	0.809	-1.908	-0.383	-1.072	-9.340
145837.006	NaN	-5.848	2.478	21.000	1504.762	1501.099	1495.238	-0.061	0.794	-1.786	-0.230	-1.072	-9.416
145837.982	NaN	-5.870	2.489	21.043	1503.297	1501.099	1496.703	-0.061	0.641	-1.603	-0.306	-1.148	-9.493
145838.959	NaN	-5.837	2.489	21.043	1504.762	1501.099	1496.703	-0.107	0.595	-1.847	-0.459	-0.995	-9.416
145839.935	NaN	-5.859	2.457	20.989	1504.029	1500.366	1495.971	-0.107	0.656	-1.954	-0.383	-1.225	-9.340
145840.912	NaN	-5.891	2.457	20.978	1504.029	1500.366	1495.971	-0.137	0.779	-1.847	-0.459	-1.148	-9.340
145841.888	NaN	-5.859	2.467	21.033	1504.762	1501.832	1496.703	-0.031	0.855	-1.771	-0.459	-0.995	-9.340
145842.865	NaN	-5.924	2.478	21.065	1503.297	1501.099	1495.238	-0.092	0.763	-1.710	-0.383	0.000	-9.263
145843.842	NaN	-5.880	2.467	21.022	1503.297	1501.099	1495.971	-0.168	0.824	-1.908	-0.306	-0.995	-9.416
145844.818	3731583043.583	-5.859	2.457	21.022	1504.029	1500.366	1495.238	-0.183	0.794	-2.061	-0.536	-1.225	-9.569
145845.795	NaN	-5.826	2.467	20.946	1504.762	1500.366	1495.238	-0.122	0.794	-1.924	-0.536	-1.072	-9.340
145846.771	NaN	-5.870	2.457	21.054	1502.564	1501.099	1495.238	-0.107	0.672	-2.046	-0.383	-1.072	-9.493
145847.748	NaN	-5.859	2.489	20.935	1504.029	1501.099	1495.971	-0.046	0.595	-1.985	-0.383	-1.072	-9.340
145848.724	NaN	-5.837	2.478	20.978	1504.762	1500.366	1495.238	-0.061	0.672	-1.817	-0.383	-1.148	-9.340
145849.701	NaN	-5.870	2.511	20.967	1504.762	1500.366	1496.703	-0.137	0.870	-1.924	-0.459	-1.225	-9.493
145850.677	NaN	-5.880	2.467	20.989	1504.029	1501.099	1495.971	-0.260	0.916	-1.847	-0.459	-1.072	-9.416
145851.654	NaN	-5.837	2.478	21.022	1504.029	1500.366	1497.436	-0.336	0.885	-1.786	-0.383	-1.225	-9.493
145852.631	NaN	-5.772	2.478	21.022	1503.297	1500.366	1495.971	-0.122	0.992	-1.618	-0.459	-1.148	-9.493
145853.607	NaN	-5.804	2.446	20.924	1504.029	1500.366	1494.505	0.015	0.947	-1.756	-0.459	-1.072	-9.340
145854.584	NaN	-5.859	2.500	20.935	1504.029	1500.366	1495.238	0.122	0.794	-1.847	-0.306	-0.995	-9.493
145855.560	NaN	-5.880	2.500	20.935	1503.297	1499.634	1496.703	0.046	0.656	-1.954	-0.383	-1.148	-9.416
145856.537	NaN	-5.826	2.500	20.989	1504.762	1501.099	1496.703	0.031	0.656	-2.031	-0.306	-1.148	-9.340
145857.513	NaN	-5.859	2.467	21.000	1504.762	1500.366	1495.971	0.107	0.901	-2.076	-0.383	-1.148	-9.263
145858.490	NaN	-5.837	2.478	21.011	1503.297	1498.901	1495.971	-0.015	0.977	-2.107	-0.383	-1.148	-9.493
145859.467	NaN	-5.848	2.457	21.000	1503.297	1499.634	1495.238	-0.092	0.992	-2.046	-0.459	-1.148	-9.493
145860.443	NaN	-5.826	2.478	21.011	1503.297	1501.099	1495.238	0.000	0.931	-2.031	-0.383	-1.072	-9.340
145920.990	NaN	-5.848	2.478	21.000	1502.564	1499.634	1495.971	0.015	0.916	-2.229	-0.306	-1.148	-9.416
145921.967	NaN	-5.848	2.511	21.043	1504.029	1501.099	1496.703	0.168	0.763	-2.382	-0.459	-1.148	-9.493
145922.943	3731583043.780	-5.870	2.489	20.978	1504.029	1500.366	1494.505	0.137	0.809	-2.336	-0.383	-1.072	-9.263
145923.920	NaN	-5.848	2.489	20.924	1504.762	1500.366	1496.703	0.137	0.885	-2.137	-0.459	-1.225	-9.416
145924.896	NaN	-5.859	2.467	20.924	1503.297	1500.366	1495.971	0.198	0.931	-2.031	-0.459	-1.072	-9.340
145925.873	NaN	-5.859	2.511	20.902	1504.762	1500.366	1495.971	0.168	0.992	-2.092	-0.306	-1.225	-9.416
145926.849	NaN	-5.804	2.489	20.902	1504.029	1500.366	1495.971	0.198	0.977	-2.122	-0.459	-1.072	-9.340
145927.826	NaN	-5.837	2.478	20.935	1504.762	1501.099	1495.971	0.244	1.023	-2.260	-0.383	-1.148	-9.263
145928.802	NaN	-5.826	2.511	20.957	1502.564	1501.099	1495.238	0.229	0.962	-2.321	-0.383	-0.995	-9.493
145929.779	NaN	-5.848	2.478	20.978	1502.564	1500.366	1496.703	0.107	0.840	-2.183	-0.383	-1.148	-9.416
145930.756	NaN	-5.848	2.457	20.989	1504.029	1501.099	1495.971	0.260	0.901	-2.168	-0.536	-1.148	-9.416
145931.732	NaN	-5.880	2.478	20.978	1503.297	1501.099	1495.971	0.351	1.145	-2.183	-0.459	-1.148	-9.340
145932.709	NaN	-5.848	2.467	20.913	1504.029	1500.366	1495.971	0.122	1.191	-2.168	-0.383	-1.072	-9.493
145933.685	NaN	-5.880	2.467	21.000	1504.029	1500.366	1495.238	0.092	1.221	-2.321	-0.459	-1.072	-9.340
145934.662	NaN	-5.859	2.467	21.011	1504.762	1500.366	1493.773	0.198	0.962	-2.366	-0.383	-1.225	-9.340
145935.638	NaN	-5.826	2.467	20.978	1503.297	1501.099	1495.238	0.336	0.962	-2.351	-0.459	-1.225	-9.416
145936.615	NaN	-5.859	2.457	20.978	1504.029	1500.366	1496.703	0.366	1.008	-2.305	-0.306	-1.148	-9.493
145937.592	NaN	-5.837	2.457	20.989	1504.029	1500.366	1494.505	0.260	1.069	-2.305	-0.306	-1.072	-9.416
145938.568	NaN	-5.870	2.457	21.011	1504.029	1500.366	1495.971	0.275	1.160	-2.137	-0.383	-1.148	-9.416
146002.045	NaN	-5.815	2.489	21.022	1505.495	1500.366	1495.971	0.427	1.084	-2.473	-0.459	-1.148	-9.416
146003.021	NaN	-5.880	2.500	21.000	1504.029	1498.901	1495.971	0.550	1.099	-2.275	-0.306	-0.995	-9.493
146003.998	NaN	-5.848	2.457	20.946	1504.029	1499.634	1496.703	0.351	1.145	-2.504	-0.383	-1.148	-9.493
146004.974	NaN	-5.870	2.467	20.957	1504.762	1500.366	1495.238	0.198	1.038	-2.519	-0.383	-1.225	-9.493
146005.951	NaN	-5.815	2.457	20.913	1504.029	1500.366	1494.505	0.015	1.008	-2.489	-0.383	-1.072	-9.416
146006.927	NaN	-5.870	2.467	21.022	1504.029	1500.366	1495.971	0.092	1.115	-2.550	-0.536	-1.225	-9.263
146007.904	NaN	-5.826	2.446	21.033	1504.029	1501.099	1495.971	0.260	1.099	-2.565	-0.306	-1.225	-9.416
146008.881	NaN	-5.793	2.446	20.978	1503.297	1500.366	1496.703	0.076	1.053	-2.321	-0.383	-1.225	-9.263
146009.857	NaN	-5.804	2.457	20.946	1504.029	1501.099	1495.971	0.107	0.962	-2.473	-0.459	-0.995	-9.416
146010.834	NaN	-5.837	2.446	20.957	1503.297	1501.099	1494.505	0.031	0.916	-2.550	-0.306	-1.148	-9.416
146011.810	NaN	-5.859	2.500	20.902	1504.762	1500.366	1495.238	0.168	1.145	-2.550	-0.306	-0.995	-9.416
146012.787	NaN	-5.870	2.467	20.902	1504.762	1501.832	1494.505	0.321	1.069	-2.595	-0.383	-1.148	-9.416
146013.763	NaN	-5.848	2.489	20.957	1503.297	1501.099	1495.238	0.275	1.008	-2.427	-0.383	-1.225	-9.340
146014.740	NaN	-5.815	2.435	20.967	1505.495	1499.634	1495.971	0.153	1.008	-2.290	-0.459	-1.072	-9.416
146015.717	NaN	-5.848	2.457	20.978	1503.297	1500.366	1495.971	0.229	1.008	-2.397	-0.459	-1.148	-9.416
146016.693	NaN	-5.891	2.457	21.000	1504.029	1499.634	1495.971	0.183	1.023	-2.504	-0.306	-1.301	-9.263
146017.670	NaN	-5.870	2.446	20.967	1503.297	1500.366	1494.505	0.107	1.145	-2.489	-0.459	-1.072	-9.340
146018.646	NaN	-5.880	2.457	20.967	1504.029	1501.099	1496.703	0.351	1.099	-2.260	-0.230	-1.072	-9.416
146019.623	NaN	-5.880	2.457	20.924	1502.564	1501.099	1495.238	0.321	0.977	-2.229	-0.459	-1.225	-9.416
146020.599	NaN	-5.859	2.511	20.946	1504.762	1501.099	1495.238	0.366	0.931	-2.397	-0.306	-0.995	-9.416
146021.576	NaN	-5.848	2.457	20.946	1503.297	1501.099	1495.971	0.366	0.977	-2.382	-0.459	-1.072	-9.493
146022.552	NaN	-5.826	2.500	20.924	1504.762	1500.366	1496.703	0.366	1.038	-2.458	-0.459	-1.072	-9.340
146023.529	NaN	-5.848	2.478	20.978	1504.029	1500.366	1495.971	0.366	1.130	-2.550	-0.459	-1.072	-9.416
146024.506	NaN	-5.859	2.467	20.967	1504.762	1500.366	1495.238	0.214	1.115	-2.473	-0.383	-1.072	-9.263
146025.482	NaN	-5.826	2.446	21.000	1504.029	1500.366	1494.505	0.244	1.038	-2.427	-0.383	-1.301	-9.493
146026.459	NaN	-5.826	2.446	20.989	1504.029	1500.366	1495.971	0.519	1.008	-2.595	-0.306	-0.995	-9.340
146027.435	NaN	-5.826	2.446	20.946	1504.762	1500.366	1495.971	0.397	0.962	-2.641	-0.230	-1.148	-9.416
146028.412	NaN	-5.848	2.435	20.902	1504.762	1498.901	1499.634	0.321	0.977	-2.504	-0.383	-1.301	-9.493
146029.388	NaN	-5.859	2.467	20.902	1504.029	1501.832	1496.703	0.198	1.023	-2.351	-0.383	-1.072	-9.416
146030.365	NaN	-5.870	2.500	20.978	1504.029	1500.366	1495.238	0.183	0.992	-2.458	-0.459	-1.148	-9.493
146031.342	NaN	-5.913	2.457	21.011	1504.029	1501.099	1494.505	0.183	1.008	-2.534	-0.459	-1.301	-9.340
146032.318	NaN	-5.913	2.446	20.946	1504.029	1499.634	1496.703	0.137	0.947	-2.427	-0.459	-1.148	-9.416
146056.732	NaN	-5.815	2.478	20.989	1504.029	1500.366	1495.971	0.351	0.855	-2.458	-0.459	-1.148	-9.340
146057.709	NaN	-5.826	2.467	20.935	1504.029	1500.366	1495.238	0.107	0.718	-2.565	-0.230	-1.072	-9.493
146058.685	NaN	-5.848	2.424	20.946	1504.029	1499.634	1497.436	0.046	0.809	-2.504	-0.306	-1.148	-9.416
146059.662	NaN	-5.815	2.446	20.967	1504.029	1500.366	1495.238	0.290	0.947	-2.489	-0.306	-1.225	-9.340
146060.638	NaN	-5.826	2.457	21.011	1502.564	1499.634	1494.505	0.183	0.931	-2.382	-0.383	-1.225	-9.416
146061.615	NaN	-5.815	2.478	20.935	1504.029	1501.099	1493.773	0.076	0.855	-2.458	-0.306	-1.225	-9.340
146062.592	NaN	-5.848	2.446	20.967	1503.297	1501.832	1495.238	-0.107	0.947	-2.412	-0.536	-1.148	-9.569
146063.568	NaN	-5.837	2.467	20.946	1503.297	1499.634	1495.238	-0.107	1.206	-2.580	-0.459	-0.995	-9.340
146064.545	NaN	-5.804	2.489	20.913	1504.762	1500.366	1495.238	0.153	0.931	-2.427	-0.230	-0.995	-9.416
146065.521	NaN	-5.826	2.467	20.957	1504.029	1501.099	1495.971	0.229	0.763	-2.244	-0.383	-1.148	-9.493
146066.498	NaN	-5.837	2.457	20.978	1504.762	1501.099	1495.971	0.122	0.687	-2.443	-0.306	-1.148	-9.416
146067.474	NaN	-5.772	2.457	20.978	1504.029	1500.366	1495.971	0.137	0.733	-2.519	-0.230	-1.148	-9.416
146068.451	NaN	-5.870	2.457	21.022	1504.029	1501.099	1496.703	0.153	0.733	-2.458	-0.383	-1.072	-9.569
146069.427	NaN	-5.837	2.446	21.065	1503.297	1499.634	1496.703	0.031	0.809	-2.473	-0.306	-1.148	-9.416
146070.404	NaN	-5.848	2.446	21.076	1503.297	1499.634	1495.238	0.122	0.885	-2.443	-0.306	-1.072	-9.416
146071.381	NaN	-5.815	2.446	21.000	1503.297	1501.099	1495.971	-0.153	0.901	-2.382	-0.306	-1.225	-9.416
146072.357	NaN	-5.804	2.446	20.957	1503.297	1501.099	1495.238	-0.244	0.824	-2.534	-0.383	-1.072	-9.340
146073.334	NaN	-5.793	2.500	21.022	1504.762	1501.099	1495.238	-0.061	0.885	-2.595	-0.459	-1.225	-9.263
146074.310	NaN	-5.870	2.489	21.022	1504.762	1501.099	1495.971	-0.061	0.931	-2.656	-0.383	-1.225	-9.416
146075.287	NaN	-5.859	2.457	21.000	1503.297	1501.099	1495.971	0.061	1.008	-2.687	-0.306	-1.072	-9.416
146076.263	NaN	-5.859	2.446	21.054	1504.762	1499.634	1495.238	0.153	0.901	-2.580	-0.459	-1.148	-9.340
146077.240	NaN	-5.848	2.457	20.989	1504.029	1499.634	1496.703	0.168	0.840	-2.458	-0.306	-1.072	-9.416
146078.217	NaN	-5.924	2.467	21.065	1503.297	1499.634	1494.505	0.122	0.931	-2.443	-0.459	-1.225	-9.340
146079.193	NaN	-5.880	2.446	20.967	1503.297	1499.634	1495.238	-0.107	0.931	-2.504	-0.306	-0.995	-9.416
146080.170	NaN	-5.837	2.446	21.011	1503.297	1501.099	1495.238	-0.382	1.099	-2.534	-0.306	-1.148	-9.263
146081.146	NaN	-5.815	2.435	21.033	1503.297	1500.366	1494.505	-0.504	0.977	-2.672	-0.459	-1.148	-9.493
146082.123	NaN	-5.815	2.457	20.989	1503.297	1501.099	1495.971	0.046	0.779	-2.763	-0.459	-1.148	-9.416
146083.099	NaN	-5.815	2.457	21.033	1503.297	1499.634	1497.436	0.260	0.794	-2.733	-0.383	-1.072	-9.416
146084.076	NaN	-5.870	2.467	21.043	1503.297	1499.634	1495.971	-0.061	0.855	-2.641	-0.306	-1.148	-9.340
146085.052	NaN	-5.826	2.478	21.033	1504.029	1500.366	1496.703	-0.122	0.901	-2.458	-0.383	-2.373	-9.416
146086.029	NaN	-5.815	2.478	20.978	1503.297	1500.366	1494.505	-0.061	0.916	-2.489	-0.383	-1.148	-9.340
146087.006	NaN	-5.815	2.457	20.924	1504.029	1501.832	1495.238	-0.183	0.931	-2.458	-0.383	-1.148	-9.416
146087.982	NaN	-5.848	2.467	20.967	1504.762	1500.366	1495.971	-0.366	0.840	-2.748	-0.306	-1.072	-9.493
146088.959	NaN	-5.793	2.489	20.935	1504.762	1500.366	1495.238	-0.015	0.794	-3.084	-0.459	-1.148	-9.416
146089.935	NaN	-5.913	2.489	20.913	1504.762	1501.099	1495.238	0.366	0.824	-2.824	-0.536	-1.072	-9.416
146090.912	NaN	-5.880	2.478	20.946	1504.029	1500.366	1495.238	0.351	0.885	-2.656	-0.306	-1.072	-9.416
146091.888	NaN	-5.848	2.478	21.011	1503.297	1501.099	1495.971	-0.092	0.794	-2.504	-0.383	-1.148	-9.569
146092.865	NaN	-5.826	2.446	20.978	1504.762	1500.366	1495.971	-0.443	0.855	-2.611	-0.306	-0.995	-9.416
146093.842	NaN	-5.848	2.467	20.935	1504.029	1500.366	1495.238	-0.427	0.885	-2.962	-0.459	-1.072	-9.416
146094.818	NaN	-5.848	2.478	21.011	1503.297	1499.634	1495.971	-0.122	0.885	-2.855	-0.459	-0.995	-9.340
146095.795	NaN	-5.837	2.489	20.989	1506.227	1500.366	1495.971	0.107	0.855	-2.580	-0.306	-1.225	-9.416
146096.771	NaN	-5.880	2.478	20.978	1503.297	1500.366	1495.238	0.168	0.870	-2.550	-0.383	-1.072	-9.340
146097.748	NaN	-5.870	2.457	20.978	1502.564	1501.099	1495.238	0.366	0.901	-2.504	-0.459	-1.225	-9.340
146098.724	NaN	-5.837	2.467	20.957	1503.297	1501.099	1495.971	0.366	0.885	-2.550	-0.383	0.000	-9.340
146099.701	NaN	-5.880	2.457	21.043	1503.297	1499.634	1495.238	0.183	0.809	-2.656	-0.383	-1.148	-9.340
146100.677	NaN	-5.837	2.467	20.946	1502.564	1500.366	1494.505	0.031	0.763	-2.656	-0.383	-1.148	-9.569
146101.654	NaN	-5.837	2.467	20.967	1503.297	1501.099	1495.971	-0.168	0.794	-2.656	-0.459	-1.225	-9.569
146102.631	NaN	-5.837	2.457	21.000	1504.029	1501.099	1495.238	-0.092	0.855	-2.687	-0.306	-1.148	-9.493
146103.607	NaN	-5.924	2.424	20.989	1502.564	1498.901	1495.238	-0.031	0.916	-2.718	-0.459	-1.148	-9.493
146104.584	NaN	-5.870	2.446	20.989	1504.029	1500.366	1496.703	0.031	0.885	-2.641	-0.383	-1.148	-9.340
146105.560	NaN	-5.815	2.467	20.967	1502.564	1501.099	1494.505	-0.046	0.855	-2.489	-0.536	-1.225	-9.493
146106.537	NaN	-5.848	2.457	20.989	1504.029	1501.099	1496.703	0.046	0.733	-2.656	-0.306	-1.148	-9.263
146107.513	NaN	-5.826	2.424	20.924	1504.029	1500.366	1495.238	-0.137	0.687	-2.702	-0.459	-1.148	-9.340
146108.490	NaN	-5.837	2.446	20.989	1504.029	1501.099	1494.505	0.031	0.733	-2.656	-0.383	-1.148	-9.416
146109.467	NaN	-5.793	2.467	20.967	1504.762	1501.832	1495.971	-0.076	0.748	-2.534	-0.383	-1.148	-9.416
146110.443	NaN	-5.804	2.467	21.000	1503.297	1500.366	1496.703	-0.153	0.763	-2.443	-0.306	-1.072	-9.340
146111.420	NaN	-5.848	2.446	20.924	1504.029	1499.634	1495.971	-0.214	0.794	-2.489	-0.306	-1.148	-9.493
146112.396	NaN	-5.859	2.446	20.935	1504.029	1500.366	1495.238	-0.153	0.901	-2.687	-0.459	0.000	-9.340
146152.435	NaN	-5.804	2.467	21.033	1503.297	1500.366	1495.238	-0.137	0.901	-3.069	-0.383	-0.919	-9.416
146153.412	NaN	-5.804	2.478	20.957	1504.029	1500.366	1495.971	-0.229	0.763	-2.992	-0.383	-1.225	-9.493
146154.388	NaN	-5.826	2.467	20.978	1504.029	1500.366	1495.971	0.122	0.885	-3.084	-0.383	-1.225	-9.493
146155.365	NaN	-5.859	2.478	20.989	1503.297	1500.366	1494.505	0.137	1.008	-3.038	-0.536	-1.148	-9.416
146156.342	NaN	-5.815	2.467	20.989	1504.029	1499.634	1495.971	-0.061	0.916	-2.901	-0.383	-1.148	-9.416
146157.318	NaN	-5.815	2.457	20.967	1503.297	1500.366	1495.238	-0.244	0.779	-2.885	-0.306	-0.995	-9.416
146158.295	NaN	-5.870	2.457	20.989	1504.029	1500.366	1495.971	-0.214	0.824	-2.809	-0.383	-1.072	-9.493
146159.271	NaN	-5.870	2.457	21.011	1504.762	1499.634	1495.971	-0.107	0.870	-2.611	-0.459	-1.072	-9.340
146160.248	NaN	-5.913	2.467	21.022	1504.762	1501.099	1495.238	-0.061	0.885	-2.626	-0.459	-1.072	-9.493
146161.224	NaN	-5.924	2.500	20.957	1503.297	1501.099	1495.971	-0.061	0.977	-2.794	-0.383	-1.148	-9.493
146162.201	NaN	-5.880	2.457	20.946	1503.297	1499.634	1495.238	-0.244	0.885	-2.855	-0.383	-1.148	-9.416
146163.177	NaN	-5.870	2.489	21.000	1502.564	1500.366	1494.505	-0.260	0.794	-2.718	-0.306	-0.995	-9.569
146164.154	NaN	-5.891	2.457	21.033	1504.762	1501.099	1496.703	-0.275	0.794	-2.763	-0.306	-1.148	-9.493
146165.131	NaN	-5.848	2.457	20.978	1504.029	1500.366	1495.971	-0.534	0.916	-2.733	-0.383	-1.148	-9.416
146166.107	NaN	-5.837	2.435	21.033	1504.029	1500.366	1492.308	-0.473	0.916	-2.748	-0.383	-1.072	-9.493
146167.084	NaN	-5.891	2.467	20.989	1504.029	1501.832	1495.971	-0.260	0.916	-2.763	-0.383	-1.148	-9.340
146168.060	NaN	-5.946	2.478	20.935	1504.762	1500.366	1496.703	-0.061	1.038	-2.794	-0.536	-1.225	-9.263
146169.037	NaN	-5.848	2.424	20.957	1503.297	1500.366	1495.238	-0.290	0.931	-2.687	-0.383	-1.148	-9.416
146170.013	NaN	-5.891	2.435	20.967	1503.297	1499.634	1496.703	-0.504	0.763	-2.840	-0.306	-1.225	-9.416
146170.990	NaN	-5.826	2.467	21.022	1503.297	1500.366	1495.971	-0.122	0.656	-2.916	-0.383	-1.148	-9.416
146171.967	NaN	-5.859	2.467	20.989	1504.029	1501.099	1495.971	0.000	0.733	-2.901	-0.383	-1.072	-9.416
146172.943	NaN	-5.826	2.467	21.033	1504.029	1501.099	1495.971	0.107	0.840	-2.870	-0.306	-0.995	-9.263
146173.920	NaN	-5.848	2.478	20.935	1504.762	1500.366	1495.971	-0.076	0.748	-2.809	-0.459	-1.148	-9.340
146174.896	NaN	-5.826	2.478	20.978	1502.564	1500.366	1494.505	-0.061	0.855	-2.748	-0.383	-1.148	-9.263
146175.873	NaN	-5.859	2.457	21.022	1504.762	1500.366	1495.971	0.031	1.008	-2.870	-0.306	-1.072	-9.340
146176.849	NaN	-5.848	2.478	21.011	1503.297	1499.634	1495.971	-0.076	1.053	-2.931	-0.306	-1.148	-9.416
146177.826	NaN	-5.837	2.489	20.978	1502.564	1498.901	1495.238	-0.122	1.069	-2.885	-0.383	-1.148	-9.340
146178.802	NaN	-5.891	2.489	21.054	1503.297	1500.366	1494.505	-0.046	0.977	-2.962	-0.306	-1.148	-9.340
146179.779	NaN	-5.870	2.446	21.065	1503.297	1500.366	1496.703	0.092	0.931	-3.084	-0.306	-1.148	-9.340
146180.756	NaN	-5.891	2.467	21.065	1503.297	1499.634	1495.238	-0.015	0.916	-2.901	-0.383	-1.072	-9.416
146181.732	NaN	-5.837	2.478	21.011	1503.297	1499.634	1495.238	-0.214	0.748	-2.962	-0.306	-1.148	-9.416
146182.709	NaN	-5.837	2.446	21.000	1504.029	1500.366	1495.238	-0.198	0.687	-2.947	-0.306	-1.148	-9.416
146183.685	NaN	-5.848	2.446	20.957	1503.297	1500.366	1495.238	-0.153	0.794	-2.840	-0.383	-1.072	-9.340
146184.662	NaN	-5.848	2.467	20.967	1504.029	1499.634	1495.971	-0.214	0.962	-2.687	-0.459	-1.148	-9.493
146374.115	NaN	-5.880	2.435	21.011	1503.297	1500.366	1495.971	-0.458	0.962	-3.160	-0.383	-1.148	-9.263
146375.092	NaN	-5.804	2.467	21.000	1504.762	1499.634	1497.436	-0.550	0.840	-3.130	-0.459	-1.148	-9.340
146376.068	NaN	-5.848	2.478	21.000	1504.029	1500.366	1495.971	-0.397	0.885	-3.313	-0.383	-1.072	-9.416
146377.045	NaN	-5.870	2.478	20.989	1504.029	1501.099	1495.971	-0.427	0.916	-3.221	-0.383	-1.148	-9.493
146378.021	NaN	-5.848	2.489	21.000	1504.029	1501.832	1495.238	-0.595	0.962	-3.206	-0.459	-1.225	-9.493
146378.998	NaN	-5.859	2.446	20.913	1503.297	1500.366	1495.238	-0.489	0.992	-3.313	-0.306	-1.148	-9.493
146379.974	NaN	-5.804	2.478	20.935	1504.029	1500.366	1495.971	-0.443	1.145	-3.435	-0.459	-1.225	-9.416
146380.951	3731583043.974	-5.826	2.478	20.989	1503.297	1499.634	1495.971	-0.260	1.191	-3.405	-0.383	-1.072	-9.416
146381.927	NaN	-5.859	2.435	20.978	1501.099	1500.366	1495.238	-0.275	0.992	-3.435	-0.459	-1.225	-9.416
146382.904	NaN	-5.826	2.478	20.967	1504.029	1500.366	1495.971	-0.336	0.962	-3.420	-0.459	-1.148	-9.340
146383.881	NaN	-5.837	2.467	20.924	1504.762	1500.366	1497.436	-0.534	0.977	-3.328	-0.459	-1.225	-9.416
146384.857	NaN	-5.815	2.457	21.033	1503.297	1499.634	1495.238	-0.550	0.992	-3.359	-0.230	-1.072	-9.340
146385.834	NaN	-5.793	2.457	20.989	1503.297	1500.366	1495.238	-0.519	1.008	-3.466	-0.383	-1.225	-9.493
146386.810	NaN	-5.870	2.446	21.022	1503.297	1500.366	1495.971	-0.366	1.053	-3.374	-0.230	-1.225	-9.493
146387.787	NaN	-5.870	2.457	21.000	1502.564	1500.366	1494.505	-0.198	0.931	-3.359	-0.230	-1.225	-9.340
146388.763	NaN	-5.804	2.457	21.022	1502.564	1500.366	1495.971	-0.351	0.901	-3.557	-0.459	-1.225	-9.569
146389.740	NaN	-5.826	2.446	21.000	1504.029	1499.634	1495.238	-0.565	0.947	-3.496	-0.306	-1.148	-9.416
146390.717	NaN	-5.793	2.457	20.924	1503.297	1499.634	1495.971	-0.397	1.038	-3.344	-0.459	-1.148	-9.416
146391.693	NaN	-5.848	2.478	20.924	1503.297	1498.901	1496.703	-0.260	1.176	-3.389	-0.383	-1.148	-9.416
146392.670	NaN	-5.870	2.457	20.967	1504.029	1500.366	1495.971	-0.107	1.313	-3.344	-0.383	-1.148	-9.416
146393.646	NaN	-5.880	2.446	20.967	1503.297	1498.901	1495.971	-0.015	1.084	-3.298	-0.306	-0.995	-9.416
146394.623	NaN	-5.870	2.446	20.989	1503.297	1500.366	1495.238	-0.168	0.840	-3.435	-0.459	-1.148	-9.340
146395.599	NaN	-5.880	2.467	21.000	1503.297	1500.366	1494.505	-0.443	0.809	-3.634	-0.306	-1.225	-9.340
146396.576	NaN	-5.804	2.467	21.000	1504.762	1501.099	1495.971	-0.580	0.947	-3.420	-0.306	-1.148	-9.416
146397.552	NaN	-5.848	2.457	20.946	1504.762	1500.366	1495.971	-0.519	1.038	-3.267	-0.536	-1.148	-9.263
146398.529	NaN	-5.859	2.467	20.946	1502.564	1501.099	1494.505	-0.580	1.069	-3.313	-0.383	-1.072	-9.416
146399.506	NaN	-5.826	2.467	21.022	1505.495	1500.366	1495.238	-0.626	1.099	-3.359	-0.306	-1.072	-9.416
146400.482	NaN	-5.793	2.457	20.978	1504.029	1501.099	1495.238	-0.611	0.962	-3.191	-0.230	-1.148	-9.416
146401.459	NaN	-5.826	2.467	21.011	1504.029	1500.366	1495.238	-0.656	0.885	-3.252	-0.383	-1.148	-9.493
146402.435	NaN	-5.859	2.467	20.967	1502.564	1499.634	1495.971	-0.458	0.931	-3.481	-0.459	-0.995	-9.569
146403.412	NaN	-5.837	2.467	20.913	1502.564	1499.634	1495.971	-0.382	1.053	-3.557	-0.459	-1.225	-9.416
146404.388	NaN	-5.848	2.478	20.935	1502.564	1500.366	1494.505	-0.427	0.977	-3.420	-0.383	-1.148	-9.340
146405.365	NaN	-5.837	2.467	20.924	1503.297	1500.366	1495.971	-0.427	0.962	-3.313	-0.459	-1.072	-9.340
146406.342	NaN	-5.848	2.467	20.935	1503.297	1500.366	1496.703	-0.626	0.840	-3.359	-0.306	-1.148	-9.493
146407.318	NaN	-5.815	2.467	20.957	1503.297	1499.634	1495.971	-0.550	0.840	-3.542	-0.230	-1.072	-9.493
146408.295	NaN	-5.859	2.478	20.967	1502.564	1500.366	1495.971	-0.687	0.840	-3.573	-0.383	-1.148	-9.340
146409.271	NaN	-5.859	2.467	20.957	1502.564	1500.366	1495.238	-0.626	0.962	-3.527	-0.383	-1.072	-9.569
146410.248	NaN	-5.848	2.457	20.946	1503.297	1499.634	1495.971	-0.519	0.901	-3.511	-0.383	-1.225	-9.340
146411.224	NaN	-5.815	2.478	20.957	1504.762	1499.634	1495.971	-0.397	1.069	-3.557	-0.306	-1.072	-9.493
146412.201	NaN	-5.837	2.446	20.978	1504.029	1501.099	1494.505	-0.534	1.115	-3.374	-0.459	-1.072	-9.416
146420.990	NaN	-5.826	2.467	20.859	1504.029	1501.832	1494.505	-0.550	1.053	-3.252	-0.306	-1.225	-9.416
146421.967	NaN	-5.826	2.467	20.946	1504.029	1499.634	1495.971	-0.565	0.901	-3.679	-0.383	-1.148	-9.416
146422.943	NaN	-5.848	2.467	20.902	1504.762	1501.099	1496.703	-0.534	0.824	-3.679	-0.306	-1.225	-9.416
146423.920	NaN	-5.848	2.446	20.957	1503.297	1500.366	1494.505	-0.336	0.855	-3.557	-0.459	-1.072	-9.493
146424.896	NaN	-5.870	2.446	20.989	1502.564	1500.366	1495.238	-0.351	0.947	-3.420	-0.383	-1.148	-9.493
146425.873	NaN	-5.870	2.446	20.989	1504.029	1500.366	1495.971	-0.702	1.038	-3.405	-0.383	-1.148	-9.416
146426.849	NaN	-5.870	2.467	21.000	1503.297	1499.634	1495.971	-0.702	0.916	-3.298	-0.459	-1.148	-9.263
146427.826	NaN	-5.804	2.489	20.946	1505.495	1500.366	1494.505	-0.672	0.779	-3.298	-0.306	-1.148	-9.416
146428.802	NaN	-5.804	2.467	21.000	1503.297	1501.099	1495.238	-0.641	0.733	-3.481	-0.306	-1.072	-9.493
146429.779	NaN	-5.848	2.478	20.989	1503.297	1498.901	1494.505	-0.794	0.931	-3.603	-0.306	-1.148	-9.416
146430.756	NaN	-5.793	2.500	20.935	1504.029	1500.366	1495.238	-0.718	0.931	-3.573	-0.383	-1.148	-9.416
146431.732	NaN	-5.859	2.478	20.957	1504.762	1500.366	1497.436	-0.626	0.855	-3.344	-0.383	-1.148	-9.416
146432.709	NaN	-5.837	2.467	21.033	1503.297	1500.366	1496.703	-0.595	0.779	-3.282	-0.306	-0.995	-9.416
146433.685	NaN	-5.837	2.467	21.065	1504.029	1501.099	1495.971	-0.595	0.702	-3.557	-0.230	-1.072	-9.416
146434.662	NaN	-5.859	2.457	21.098	1502.564	1500.366	1495.971	-0.672	0.947	-3.695	-0.383	-2.373	-9.416
146435.638	NaN	-5.870	2.467	21.043	1504.029	1500.366	1495.238	-0.611	1.038	-3.695	-0.459	-1.148	-9.340
146436.615	NaN	-5.870	2.478	20.967	1503.297	1501.099	1495.971	-0.504	0.916	-3.359	-0.383	-1.148	-9.340
146437.592	NaN	-5.891	2.467	21.000	1503.297	1501.099	1495.971	-0.504	0.992	-3.237	-0.383	-1.148	-9.340
146438.568	NaN	-5.859	2.435	20.967	1502.564	1499.634	1495.238	-0.565	0.977	-3.328	-0.536	-1.225	-9.340
146439.545	NaN	-5.848	2.446	20.967	1504.029	1501.099	1494.505	-0.565	0.855	-3.374	-0.459	-1.148	-9.416
146440.521	NaN	-5.870	2.446	21.000	1504.029	1500.366	1494.505	-0.641	0.931	-3.557	-0.383	-1.148	-9.340
146441.498	NaN	-5.815	2.478	20.967	1502.564	1499.634	1493.773	-0.489	1.038	-3.618	-0.383	-1.225	-9.340
146442.474	NaN	-5.826	2.478	20.989	1503.297	1501.099	1495.238	-0.550	0.931	-3.496	-0.459	-1.072	-9.493
146443.451	NaN	-5.783	2.435	20.924	1504.762	1501.099	1495.238	-0.885	0.870	-3.420	-0.383	-1.148	-9.340
146444.427	NaN	-5.815	2.446	20.989	1502.564	1499.634	1496.703	-1.221	0.885	-3.344	-0.383	-1.148	-9.416
146445.404	NaN	-5.815	2.446	21.000	1502.564	1500.366	1494.505	-1.008	0.779	-3.405	-0.306	-1.148	-9.340
146446.381	NaN	-5.859	2.457	20.978	1503.297	1500.366	1494.505	-0.855	0.794	-3.511	-0.383	-0.995	-9.340
146447.357	NaN	-5.837	2.446	20.946	1504.029	1500.366	1495.971	-0.885	0.931	-3.405	-0.459	-1.072	-9.416
146448.334	NaN	-5.870	2.467	21.022	1504.029	1499.634	1494.505	-0.672	1.008	-3.176	-0.306	-1.301	-9.263
146449.310	3731583044.179	-5.870	2.446	20.989	1504.762	1500.366	1497.436	-0.656	0.947	-3.435	-0.459	-1.072	-9.493
146450.287	NaN	-5.815	2.467	21.033	1504.029	1501.099	1497.436	-0.870	0.916	-3.481	-0.459	-0.995	-9.416
146451.263	NaN	-5.793	2.478	20.989	1504.029	1500.366	1495.971	-0.977	0.947	-3.374	-0.459	-1.148	-9.416
146452.240	NaN	-5.772	2.467	21.043	1503.297	1500.366	1496.703	-0.840	0.809	-3.405	-0.230	-1.301	-9.416
146453.217	NaN	-5.880	2.446	21.011	1503.297	1499.634	1496.703	-0.702	0.779	-3.496	-0.306	-1.072	-9.493
146454.193	NaN	-5.924	2.457	20.989	1504.029	1501.099	1495.971	-0.779	1.023	-3.527	-0.306	-1.072	-9.416
146455.170	NaN	-5.826	2.457	20.946	1504.029	1500.366	1496.703	-1.053	0.962	-3.588	-0.230	0.000	-9.416
146456.146	NaN	-5.804	2.457	20.978	1503.297	1500.366	1496.703	-0.947	0.809	-3.420	-0.383	-1.148	-9.340
146457.123	NaN	-5.848	2.467	20.967	1504.029	1501.832	1495.238	-0.901	0.611	-3.328	-0.383	-1.072	-9.416
146458.099	NaN	-5.859	2.511	20.989	1503.297	1501.099	1495.238	-0.763	0.656	-3.466	-0.383	-1.072	-9.416
146459.076	NaN	-5.804	2.478	20.967	1504.762	1501.099	1495.238	-0.885	0.901	-3.481	-0.459	-1.225	-9.416
146460.052	NaN	-5.793	2.467	21.022	1504.029	1500.366	1495.238	-0.931	0.855	-3.389	-0.383	-1.148	-9.416
146461.029	NaN	-5.848	2.435	20.957	1503.297	1499.634	1495.238	-0.779	0.870	-3.405	-0.536	-1.072	-9.493
146462.006	NaN	-5.837	2.446	20.989	1504.029	1501.099	1495.238	-0.641	0.962	-3.496	-0.383	-1.148	-9.340
146462.982	NaN	-5.848	2.435	21.022	1503.297	1500.366	1495.238	-0.656	0.855	-3.588	-0.383	-1.148	-9.416
146463.959	NaN	-5.859	2.457	21.022	1503.297	1500.366	1493.773	-0.855	0.687	-3.374	-0.383	-1.072	-9.493
146464.935	NaN	-5.848	2.467	20.957	1503.297	1500.366	1497.436	-0.901	0.733	-3.359	-0.383	-1.225	-9.493
146465.912	NaN	-5.848	2.457	20.978	1504.762	1499.634	1495.238	-0.870	0.809	-3.481	-0.459	-1.148	-9.416
