Timestamp	PC Timestamp	Low Noise Accelerometer X	Low Noise Accelerometer Y	Low Noise Accelerometer Z	Int A12	Int A13	Int A14	Gyroscope X	Gyroscope Y	Gyroscope Z	Wide Range Accelerometer X	Wide Range Accelerometer Y	Wide Range Accelerometer Z
115576.294	NaN	-6.033	2.391	20.967	1504.029	1500.366	1495.238	-0.672	-1.664	-8.763	-0.459	0.000	-9.416
115577.271	NaN	-5.717	2.348	20.967	1503.297	1500.366	1495.971	-0.885	-1.603	-8.718	-0.230	-1.455	-9.263
115578.247	NaN	-5.848	2.293	20.891	1504.029	1501.099	1496.703	-0.870	-1.771	-8.626	-0.306	-1.148	-9.263
115579.224	NaN	-6.065	2.326	20.859	1503.297	1501.099	1496.703	-0.794	-1.908	-8.718	-0.689	-1.148	-9.569
115580.200	NaN	-5.891	2.370	20.913	1503.297	1501.099	1495.971	-0.901	-1.756	-8.779	-0.689	-1.225	-9.416
115581.177	NaN	-6.174	2.435	20.870	1504.029	1501.099	1496.703	-1.099	-1.618	-8.748	-0.612	-1.148	-9.493
115582.153	NaN	-5.859	2.402	20.978	1503.297	1500.366	1495.238	-1.130	-1.603	-8.885	-0.459	-1.301	-9.646
115583.130	NaN	-5.880	2.315	20.946	1504.029	1501.832	1495.971	-1.115	-1.817	-8.748	-0.383	-0.153	-9.263
115584.106	NaN	-5.848	2.304	20.902	1503.297	1501.099	1497.436	-0.947	-1.893	-8.595	-0.383	-1.301	-9.340
115585.083	NaN	-5.848	2.304	20.707	1504.762	1501.099	1496.703	-0.840	-1.695	-8.641	-0.459	-1.072	-9.263
115586.060	NaN	-6.011	2.337	20.957	1504.762	1500.366	1495.238	-0.580	-1.695	-8.565	-0.306	-1.072	-9.187
115587.036	NaN	-5.902	2.435	21.054	1503.297	1500.366	1494.505	-0.748	-1.725	-8.504	-0.536	-1.225	-9.416
115588.013	NaN	-5.924	2.467	21.043	1503.297	1500.366	1495.238	-0.947	-1.756	-8.550	-0.306	-1.072	-9.187
115588.989	NaN	-6.054	2.370	21.033	1504.029	1501.099	1493.773	-1.084	-1.710	-8.702	-0.536	-1.301	-9.416
115589.966	NaN	-5.728	2.326	21.076	1502.564	1499.634	1496.703	-1.038	-1.695	-8.519	-0.536	-1.072	-9.263
115590.942	NaN	-5.880	2.293	20.989	1503.297	1499.634	1496.703	-0.992	-1.771	-8.626	-0.383	-1.378	-9.263
115591.919	NaN	-6.022	2.304	20.967	1504.762	1501.099	1495.971	-0.824	-1.954	-8.489	-0.383	-1.148	-9.187
115592.896	NaN	-5.870	2.380	21.076	1503.297	1500.366	1494.505	-1.038	-1.908	-8.565	-0.612	-1.148	-9.340
115593.872	NaN	-6.196	2.446	21.130	1504.029	1500.366	1496.703	-1.435	-1.786	-8.565	-0.230	-1.378	-9.340
115594.849	NaN	-5.826	2.380	21.163	1504.029	1501.099	1495.971	-1.374	-1.817	-8.473	-0.459	-1.072	-9.416
115595.825	NaN	-5.935	2.283	21.054	1504.029	1501.832	1495.238	-1.160	-1.893	-8.550	-0.612	-1.378	-9.493
115596.802	NaN	-5.804	2.315	21.076	1504.029	1501.099	1496.703	-1.115	-1.817	-8.489	-0.612	-1.072	-9.187
115597.778	NaN	-5.913	2.304	20.946	1504.029	1500.366	1495.238	-1.252	-1.878	-8.504	-0.689	-1.225	-9.263
115598.755	NaN	-6.033	2.370	21.239	1504.029	1500.366	1496.703	-1.130	-1.878	-8.504	-0.383	-1.455	-9.263
115599.731	NaN	-5.880	2.435	21.217	1503.297	1500.366	1495.238	-1.176	-1.817	-8.565	-0.459	-1.148	-9.263
115600.708	NaN	-5.826	2.424	21.163	1503.297	1501.099	1495.971	-1.176	-1.756	-8.824	-0.306	-1.455	-9.263
115601.685	NaN	-5.935	2.370	21.109	1504.029	1501.099	1495.238	-0.977	-1.725	-8.901	-0.766	-1.225	-9.569
115602.661	NaN	-5.707	2.283	21.087	1503.297	1499.634	1495.971	-0.962	-2.031	-8.794	-0.306	-1.225	-9.187
115603.638	NaN	-5.967	2.304	21.130	1503.297	1500.366	1495.238	-1.084	-2.107	-8.626	-0.459	-1.301	-9.340
115604.614	NaN	-5.978	2.370	21.163	1503.297	1499.634	1495.971	-1.328	-1.832	-8.397	-0.383	-0.995	-9.187
115605.591	NaN	-5.967	2.424	21.250	1503.297	1501.099	1495.971	-1.313	-1.649	-8.336	-0.612	-1.608	-9.493
115606.567	NaN	-6.076	2.457	21.261	1504.029	1501.832	1495.971	-1.176	-1.695	-8.443	-0.459	-1.148	-9.340
115607.544	NaN	-5.717	2.337	21.163	1503.297	1501.099	1496.703	-1.053	-1.893	-8.534	-0.306	-1.225	-9.110
115608.521	NaN	-5.946	2.239	21.065	1504.029	1500.366	1493.773	-1.008	-1.924	-8.595	-0.689	-1.455	-9.416
115609.497	NaN	-5.685	2.283	21.141	1503.297	1500.366	1496.703	-1.252	-1.802	-8.473	-0.383	-1.148	-9.263
115610.474	NaN	-6.087	2.326	21.011	1503.297	1500.366	1495.971	-1.237	-1.740	-8.382	-0.230	-1.455	-9.263
115611.450	NaN	-6.022	2.446	21.293	1502.564	1501.099	1495.971	-1.389	-1.740	-8.473	-0.459	-1.072	-9.187
115612.427	NaN	-5.739	2.446	21.272	1503.297	1500.366	1495.238	-1.176	-1.939	-8.458	-0.459	-1.455	-9.416
115613.403	NaN	-5.848	2.402	21.196	1502.564	1500.366	1493.773	-1.221	-2.137	-8.412	-0.153	-1.378	-9.110
115614.380	NaN	-5.804	2.337	21.087	1502.564	1501.099	1495.971	-1.420	-1.985	-8.489	-0.536	-1.225	-9.493
115615.356	NaN	-5.772	2.283	21.185	1504.762	1499.634	1497.436	-1.420	-1.939	-8.305	-0.230	-1.455	-9.033
115616.333	NaN	-5.913	2.380	21.174	1504.029	1499.634	1496.703	-1.115	-1.802	-8.305	-0.230	-1.148	-9.187
115617.310	NaN	-5.848	2.467	21.152	1504.029	1500.366	1495.238	-1.053	-1.695	-8.550	-0.230	-1.531	-9.340
115618.286	NaN	-6.076	2.413	21.141	1503.297	1501.099	1494.505	-1.115	-1.740	-8.656	-0.689	-1.225	-9.340
115619.263	NaN	-5.880	2.424	21.174	1503.297	1501.099	1495.238	-1.389	-1.771	-8.641	-0.306	-1.378	-9.340
115620.239	NaN	-5.750	2.315	21.043	1503.297	1500.366	1495.971	-1.542	-1.725	-8.611	-0.459	-1.455	-9.416
115621.216	NaN	-6.087	2.272	21.087	1503.297	1501.099	1495.971	-1.176	-1.695	-8.489	-0.306	-0.995	-9.263
115622.192	NaN	-5.772	2.304	21.207	1503.297	1500.366	1495.971	-0.962	-1.725	-8.534	-0.306	-1.455	-9.340
115623.169	NaN	-6.141	2.337	21.065	1504.029	1500.366	1495.238	-1.023	-1.847	-8.489	-0.459	-0.995	-9.263
115624.146	NaN	-5.924	2.457	21.141	1503.297	1501.099	1495.971	-0.916	-1.847	-8.580	-0.383	-1.378	-9.263
115625.122	NaN	-5.804	2.402	21.120	1501.832	1501.099	1495.971	-0.931	-1.756	-8.611	-0.536	-1.455	-9.416
115626.099	NaN	-5.848	2.326	21.065	1503.297	1500.366	1494.505	-1.038	-1.634	-8.595	-0.536	-1.225	-9.340
115627.075	NaN	-5.826	2.326	20.880	1504.762	1500.366	1493.773	-1.267	-1.481	-8.702	-0.536	-1.225	-9.416
115628.052	NaN	-5.946	2.304	21.043	1503.297	1501.099	1495.971	-1.237	-1.542	-8.733	-0.612	-1.225	-9.493
115629.028	NaN	-5.793	2.337	21.033	1504.029	1500.366	1494.505	-1.069	-1.771	-8.748	-0.306	-1.301	-9.340
115630.005	NaN	-5.826	2.402	21.000	1502.564	1500.366	1495.971	-0.885	-1.878	-8.458	-0.306	-1.301	-9.340
115630.981	NaN	-5.967	2.370	21.087	1504.029	1500.366	1496.703	-1.053	-1.817	-8.565	-0.612	-1.301	-9.416
115631.958	NaN	-5.674	2.326	21.043	1504.029	1500.366	1496.703	-1.252	-1.725	-8.427	-0.230	-1.378	-9.110
115632.935	NaN	-5.870	2.370	21.076	1502.564	1501.099	1495.971	-1.053	-1.802	-8.473	-0.383	-1.378	-9.263
115633.911	NaN	-5.902	2.402	20.935	1504.029	1501.099	1495.238	-0.916	-1.863	-8.550	-0.536	-1.072	-9.416
115634.888	NaN	-5.870	2.424	20.989	1503.297	1501.099	1496.703	-0.977	-1.908	-8.580	-0.536	-1.225	-9.493
115635.864	NaN	-6.065	2.380	20.924	1503.297	1500.366	1495.971	-1.206	-1.863	-8.427	-0.536	-1.225	-9.263
115636.841	NaN	-5.837	2.315	20.967	1504.762	1501.099	1495.971	-1.374	-1.695	-8.427	-0.459	-1.301	-9.416
115637.817	NaN	-6.065	2.250	20.891	1503.297	1500.366	1494.505	-1.328	-1.588	-8.382	-0.459	-1.072	-9.416
115638.794	NaN	-5.859	2.293	20.913	1503.297	1500.366	1495.238	-1.313	-1.466	-8.382	-0.459	-1.225	-9.493
115639.771	NaN	-6.011	2.304	20.793	1503.297	1500.366	1495.971	-1.481	-1.496	-8.489	-0.536	-1.301	-9.340
115640.747	NaN	-6.043	2.413	20.946	1504.029	1501.099	1495.971	-1.496	-1.573	-8.611	-0.536	-1.225	-9.416
115641.724	NaN	-5.837	2.413	21.000	1504.029	1500.366	1494.505	-1.298	-1.634	-8.519	-0.612	-1.531	-9.569
115642.700	NaN	-5.870	2.413	20.924	1504.029	1499.634	1497.436	-1.145	-1.435	-8.366	-0.230	-1.225	-9.340
115643.677	NaN	-5.924	2.326	20.815	1503.297	1500.366	1494.505	-1.221	-1.298	-8.489	-0.536	-1.301	-9.569
115644.653	NaN	-5.804	2.293	20.870	1503.297	1500.366	1494.505	-1.221	-1.282	-8.489	-0.536	-1.072	-9.493
115645.630	NaN	-6.065	2.370	20.848	1504.029	1501.099	1495.971	-1.282	-1.359	-8.366	-0.383	-1.225	-9.340
115646.606	NaN	-5.891	2.424	20.891	1504.762	1500.366	1494.505	-1.344	-1.389	-8.382	-0.306	-1.225	-9.416
115647.583	NaN	-6.011	2.402	20.891	1504.762	1500.366	1495.238	-1.130	-1.496	-8.534	-0.536	-1.148	-9.493
115648.560	NaN	-5.924	2.391	20.880	1503.297	1500.366	1495.238	-1.160	-1.481	-8.733	-0.383	-1.301	-9.416
115649.536	NaN	-5.793	2.315	20.772	1504.029	1499.634	1495.238	-1.221	-1.359	-8.641	-0.383	-1.378	-9.569
115650.513	NaN	-6.087	2.293	20.783	1504.029	1501.832	1495.971	-1.282	-1.450	-8.534	-0.612	-1.225	-9.493
115651.489	NaN	-5.815	2.304	20.826	1504.762	1500.366	1495.238	-1.282	-1.740	-8.519	-0.612	-1.225	-9.416
115652.466	NaN	-6.174	2.348	20.707	1503.297	1500.366	1494.505	-1.023	-1.679	-8.672	-0.536	-1.148	-9.569
115653.442	NaN	-6.000	2.380	20.870	1503.297	1501.099	1495.238	-1.191	-1.542	-8.458	-0.383	-1.378	-9.416
115654.419	NaN	-5.761	2.337	20.826	1503.297	1500.366	1493.773	-1.298	-1.618	-8.366	-0.459	-1.378	-9.646
115655.396	NaN	-5.848	2.348	20.761	1504.029	1500.366	1495.238	-1.191	-1.588	-8.519	-0.306	-1.455	-9.493
115656.372	NaN	-5.826	2.337	20.630	1504.762	1499.634	1496.703	-1.237	-1.374	-8.580	-0.612	-1.378	-9.416
115657.349	NaN	-5.946	2.304	20.793	1502.564	1500.366	1495.238	-1.588	-1.389	-8.580	-0.536	-1.225	-9.340
115658.325	NaN	-5.946	2.402	20.902	1504.029	1500.366	1493.773	-1.542	-1.511	-8.489	-0.612	-1.455	-9.493
115659.302	NaN	-5.837	2.435	20.815	1501.832	1500.366	1495.238	-1.328	-1.481	-8.290	-0.306	-0.995	-9.416
115660.278	NaN	-6.054	2.391	20.880	1503.297	1501.099	1495.238	-1.603	-1.344	-8.458	-0.536	-1.378	-9.493
115661.255	NaN	-5.815	2.380	20.837	1504.029	1499.634	1496.703	-1.756	-1.221	-8.595	-0.230	-1.378	-9.416
115662.231	NaN	-5.891	2.283	20.772	1503.297	1501.099	1496.703	-1.511	-1.420	-8.443	-0.459	-1.148	-9.416
115663.208	NaN	-6.120	2.293	20.761	1504.029	1501.099	1496.703	-1.298	-1.679	-8.336	-0.612	-1.455	-9.340
115664.185	NaN	-5.772	2.337	20.902	1503.297	1501.099	1496.703	-1.389	-1.618	-8.305	-0.612	-1.148	-9.416
115665.161	NaN	-6.163	2.435	20.793	1504.029	1500.366	1495.971	-1.496	-1.588	-8.260	-0.306	-1.378	-9.493
115666.138	NaN	-5.924	2.446	20.989	1503.297	1500.366	1495.971	-1.450	-1.618	-7.985	-0.383	-1.148	-9.493
115667.114	NaN	-5.859	2.402	20.891	1503.297	1499.634	1496.703	-1.221	-1.374	-8.214	-0.612	-1.455	-9.493
115668.091	NaN	-5.859	2.337	20.935	1503.297	1499.634	1495.971	-1.176	-1.282	-8.626	-0.153	-1.301	-9.340
115669.067	NaN	-5.826	2.326	20.739	1504.029	1501.099	1495.971	-1.481	-1.374	-8.580	-0.536	-0.995	-9.340
115670.044	NaN	-5.978	2.293	20.946	1504.029	1500.366	1496.703	-1.573	-1.527	-8.672	-0.306	-1.455	-9.340
115671.021	NaN	-5.935	2.402	21.043	1503.297	1499.634	1495.971	-1.695	-1.511	-8.779	-0.383	-1.072	-9.416
115671.997	NaN	-5.891	2.446	21.022	1503.297	1500.366	1495.238	-1.634	-1.527	-8.565	-0.306	-1.531	-9.493
115672.974	NaN	-6.098	2.402	20.978	1504.029	1501.099	1496.703	-1.557	-1.588	-8.336	-0.766	-1.225	-9.493
115673.950	NaN	-5.761	2.348	20.902	1504.029	1500.366	1495.971	-1.618	-1.618	-8.366	-0.459	-1.225	-9.187
115674.927	NaN	-5.902	2.315	20.870	1503.297	1500.366	1495.971	-1.527	-1.588	-8.534	-0.459	-1.455	-9.263
115675.903	NaN	-6.076	2.315	20.902	1504.029	1500.366	1495.238	-1.542	-1.527	-8.427	-0.383	-1.072	-9.263
115676.880	NaN	-5.859	2.348	20.946	1504.029	1501.832	1496.703	-1.802	-1.435	-8.229	-0.306	-1.455	-9.646
115677.856	NaN	-6.261	2.424	21.043	1503.297	1500.366	1495.238	-1.695	-1.496	-8.366	-0.383	-1.148	-9.263
115678.833	NaN	-5.880	2.391	21.076	1503.297	1500.366	1495.238	-1.511	-1.542	-8.366	-0.383	-1.225	-9.340
115679.810	NaN	-5.924	2.337	20.978	1504.029	1501.099	1494.505	-1.527	-1.481	-8.260	-0.689	-1.608	-9.416
115680.786	NaN	-5.848	2.293	20.978	1503.297	1500.366	1495.971	-1.496	-1.450	-8.305	-0.459	-1.301	-9.493
115681.763	NaN	-5.870	2.315	20.913	1503.297	1499.634	1495.971	-1.420	-1.511	-8.443	-0.536	-1.455	-9.416
115682.739	NaN	-6.022	2.380	21.109	1504.762	1500.366	1495.971	-1.618	-1.634	-8.565	-0.536	-1.148	-9.416
115683.716	NaN	-5.837	2.446	21.152	1504.029	1500.366	1495.971	-1.756	-1.618	-8.443	-0.306	-1.072	-9.416
115684.692	NaN	-5.859	2.467	21.087	1503.297	1498.901	1495.971	-1.710	-1.573	-8.412	-0.153	-1.301	-9.416
115685.669	NaN	-5.913	2.424	21.109	1504.029	1500.366	1496.703	-1.450	-1.527	-8.427	-0.536	-1.301	-9.416
115686.646	NaN	-5.772	2.359	21.141	1504.029	1499.634	1495.238	-1.481	-1.450	-8.473	-0.306	-1.301	-9.187
115687.622	NaN	-5.957	2.380	21.152	1502.564	1499.634	1495.238	-1.847	-1.435	-8.397	-0.383	-1.378	-9.340
115688.599	NaN	-5.870	2.402	21.043	1504.029	1500.366	1496.703	-1.893	-1.496	-8.183	-0.536	-1.225	-9.340
115689.575	NaN	-6.011	2.391	21.065	1504.762	1500.366	1495.238	-1.725	-1.527	-8.305	-0.612	-1.301	-9.416
115690.552	NaN	-5.967	2.402	21.141	1503.297	1501.099	1495.971	-1.817	-1.496	-8.504	-0.612	-1.225	-9.187
115691.528	NaN	-5.783	2.337	21.141	1502.564	1500.366	1495.971	-1.969	-1.557	-8.580	-0.383	-1.225	-9.263
115692.505	NaN	-6.000	2.315	21.152	1503.297	1500.366	1495.971	-1.817	-1.618	-8.611	-0.306	-1.072	-9.416
115693.481	NaN	-5.717	2.337	21.207	1503.297	1500.366	1496.703	-1.817	-1.603	-8.351	-0.306	-1.225	-9.340
115694.458	NaN	-6.109	2.370	21.098	1503.297	1499.634	1495.238	-1.786	-1.496	-8.275	-0.306	-1.301	-9.110
115695.435	NaN	-5.989	2.413	21.272	1504.029	1501.832	1495.971	-1.847	-1.618	-8.366	-0.459	-1.225	-9.110
115696.411	NaN	-5.750	2.370	21.196	1503.297	1501.099	1495.238	-1.969	-1.603	-8.473	-0.766	-1.684	-9.187
115697.388	NaN	-5.859	2.359	21.228	1502.564	1499.634	1497.436	-1.878	-1.618	-8.198	-0.230	-1.225	-9.340
115698.364	NaN	-5.848	2.359	21.065	1504.029	1500.366	1495.238	-1.725	-1.573	-8.443	-0.459	-1.225	-9.416
115699.341	NaN	-5.870	2.348	21.174	1502.564	1499.634	1496.703	-1.710	-1.679	-8.580	-0.459	-1.225	-9.416
115700.317	NaN	-5.902	2.446	21.250	1503.297	1500.366	1496.703	-1.832	-1.466	-8.702	-0.306	-0.919	-8.957
115701.294	NaN	-5.750	2.467	21.196	1503.297	1500.366	1496.703	-1.863	-1.328	-8.672	-0.153	-1.455	-9.110
115702.271	NaN	-5.967	2.380	21.196	1502.564	1501.099	1495.238	-1.649	-1.267	-8.290	-0.612	-1.225	-9.263
115703.247	NaN	-5.739	2.348	21.239	1504.029	1500.366	1495.238	-1.695	-1.282	-8.229	-0.306	-1.301	-9.187
115704.224	NaN	-5.815	2.304	21.196	1503.297	1498.901	1496.703	-1.725	-1.450	-8.458	-0.459	-1.378	-9.033
115705.200	NaN	-6.043	2.315	21.185	1503.297	1501.099	1495.971	-1.695	-1.542	-8.397	-0.459	-1.072	-9.187
115706.177	NaN	-5.815	2.348	21.152	1504.029	1500.366	1496.703	-1.588	-1.496	-8.412	-0.536	-1.301	-9.263
115707.153	NaN	-6.109	2.391	21.109	1503.297	1499.634	1496.703	-1.679	-1.573	-8.443	-0.536	-1.072	-9.416
115708.130	NaN	-5.848	2.391	21.185	1504.029	1501.832	1497.436	-1.954	-1.542	-8.473	-0.306	-1.301	-9.187
115709.106	NaN	-5.837	2.326	21.076	1502.564	1500.366	1495.971	-1.847	-1.405	-8.427	-0.383	-1.301	-9.340
115710.083	3731584037.133	-5.815	2.315	21.098	1501.832	1500.366	1495.238	-1.557	-1.374	-8.534	-0.383	-1.378	-9.263
115711.060	NaN	-5.859	2.326	21.033	1503.297	1499.634	1496.703	-1.771	-1.466	-8.641	-0.383	-1.225	-9.263
115712.036	NaN	-6.033	2.326	21.185	1502.564	1500.366	1495.238	-1.893	-1.420	-8.397	-0.459	-1.148	-9.263
115713.013	NaN	-5.848	2.413	21.185	1504.029	1500.366	1496.703	-2.092	-1.359	-8.321	-0.536	-1.531	-9.416
115713.989	NaN	-5.848	2.435	21.109	1503.297	1499.634	1495.238	-2.046	-1.130	-8.275	-0.153	-1.225	-9.263
115714.966	NaN	-5.989	2.370	21.152	1503.297	1501.099	1495.238	-1.725	-1.191	-8.519	-0.536	-1.225	-9.416
115715.942	NaN	-5.652	2.337	21.065	1504.029	1499.634	1498.168	-1.649	-1.466	-8.626	-0.383	-1.455	-9.187
115716.919	NaN	-5.880	2.348	20.989	1503.297	1500.366	1495.971	-1.725	-1.511	-8.565	-0.230	-1.072	-9.187
115717.896	NaN	-5.924	2.380	21.098	1504.029	1500.366	1496.703	-1.573	-1.328	-8.489	-0.230	-1.455	-9.340
115718.872	NaN	-5.870	2.380	21.109	1503.297	1500.366	1495.238	-1.786	-1.176	-8.290	-0.459	-1.225	-9.263
115719.849	NaN	-6.043	2.402	21.022	1502.564	1501.099	1495.971	-1.863	-1.145	-8.519	-0.230	-1.455	-9.340
115720.825	NaN	-5.696	2.348	20.978	1503.297	1500.366	1496.703	-1.710	-1.038	-8.489	-0.383	-1.301	-9.569
115721.802	NaN	-5.967	2.293	20.924	1501.832	1500.366	1494.505	-1.542	-1.038	-8.336	-0.536	-0.995	-9.493
115722.778	NaN	-5.761	2.304	20.989	1503.297	1501.099	1496.703	-1.405	-1.206	-8.305	-0.383	-1.531	-9.416
115723.755	NaN	-5.989	2.348	20.880	1504.762	1500.366	1496.703	-1.603	-1.282	-8.427	-0.536	-1.148	-9.340
115724.731	NaN	-6.033	2.391	20.957	1502.564	1499.634	1495.971	-1.618	-1.206	-8.565	-0.383	-1.225	-9.416
115725.708	NaN	-5.772	2.435	20.978	1504.762	1500.366	1495.238	-1.725	-0.962	-8.595	-0.459	-1.378	-9.493
115726.685	NaN	-5.783	2.370	20.870	1504.029	1499.634	1497.436	-1.695	-0.962	-8.458	-0.383	-1.378	-9.340
115727.661	NaN	-5.902	2.359	20.837	1502.564	1500.366	1495.238	-1.588	-0.992	-8.427	-0.536	-1.378	-9.569
115728.638	NaN	-5.761	2.315	20.859	1504.029	1499.634	1497.436	-1.527	-1.053	-8.351	-0.459	-1.148	-9.340
115729.614	NaN	-5.989	2.359	20.870	1503.297	1500.366	1496.703	-1.389	-1.359	-8.290	-0.306	-1.225	-9.340
115730.591	NaN	-5.891	2.413	20.859	1504.762	1500.366	1495.971	-1.450	-1.267	-8.305	-0.306	-0.995	-9.263
115731.567	NaN	-6.011	2.380	20.946	1504.029	1500.366	1494.505	-1.649	-1.115	-8.473	-0.536	-1.378	-9.416
115732.544	NaN	-5.935	2.413	20.891	1502.564	1500.366	1495.238	-1.542	-1.008	-8.565	-0.230	-1.225	-9.493
115733.521	NaN	-5.728	2.337	20.783	1504.029	1501.099	1495.971	-1.511	-1.023	-8.550	-0.230	-1.072	-9.493
115734.497	NaN	-6.011	2.272	20.750	1504.762	1501.832	1495.971	-1.420	-1.359	-8.565	-0.689	-1.531	-9.569
115735.474	NaN	-5.783	2.326	20.793	1504.029	1498.901	1495.971	-1.649	-1.435	-8.519	-0.536	-1.072	-9.569
115736.450	NaN	-6.098	2.380	20.761	1504.029	1500.366	1495.971	-1.649	-1.160	-8.458	-0.536	-1.225	-9.569
115737.427	NaN	-6.043	2.435	20.946	1503.297	1501.099	1495.238	-1.603	-1.176	-8.382	-0.459	-1.301	-9.493
115738.403	NaN	-5.826	2.370	20.870	1504.029	1499.634	1495.238	-1.695	-1.145	-8.260	-0.612	-1.301	-9.493
115739.380	NaN	-5.848	2.337	20.859	1503.297	1500.366	1496.703	-1.679	-1.160	-8.397	-0.153	-1.455	-9.416
115740.356	NaN	-5.859	2.293	20.696	1504.029	1500.366	1495.238	-1.542	-1.206	-8.382	-0.612	-1.148	-9.493
115741.333	NaN	-5.902	2.304	20.815	1504.029	1500.366	1495.971	-1.511	-1.252	-8.382	-0.383	-1.225	-9.340
115742.310	NaN	-5.946	2.413	20.880	1504.029	1500.366	1495.971	-1.740	-1.099	-8.458	-0.459	-1.225	-9.493
115743.286	NaN	-5.891	2.446	20.880	1503.297	1501.099	1495.971	-1.740	-1.084	-8.565	-0.306	-1.072	-9.340
115744.263	NaN	-6.054	2.370	20.935	1504.029	1501.099	1495.238	-1.740	-1.237	-8.473	-0.689	-1.225	-9.493
115745.239	NaN	-5.837	2.348	20.967	1504.029	1500.366	1495.238	-1.649	-1.267	-8.443	-0.383	-1.148	-9.493
115746.216	NaN	-5.848	2.293	20.913	1504.029	1500.366	1495.238	-1.389	-1.267	-8.351	-0.306	-1.148	-9.340
115747.192	NaN	-6.098	2.304	20.859	1503.297	1500.366	1495.971	-1.634	-1.176	-8.443	-0.306	-1.072	-9.340
115748.169	NaN	-5.804	2.370	20.924	1503.297	1501.099	1496.703	-1.786	-1.069	-8.412	-0.612	-1.225	-9.416
115749.146	NaN	-6.174	2.424	20.891	1503.297	1501.099	1496.703	-1.817	-0.947	-8.321	-0.230	-1.225	-9.340
115750.122	NaN	-5.913	2.413	20.989	1502.564	1500.366	1495.238	-1.679	-1.038	-8.412	-0.612	-1.225	-9.416
115751.099	NaN	-5.826	2.337	20.913	1503.297	1500.366	1495.971	-1.374	-1.176	-8.427	-0.612	-1.455	-9.416
115752.075	NaN	-5.826	2.326	20.891	1504.029	1500.366	1495.238	-1.542	-1.145	-8.382	-0.612	-1.072	-9.416
115753.052	NaN	-5.891	2.326	20.728	1504.029	1501.099	1496.703	-1.664	-1.221	-8.382	-0.612	-1.225	-9.569
115754.028	NaN	-6.054	2.359	20.957	1504.762	1501.099	1495.971	-1.511	-1.252	-8.275	-0.383	-1.378	-9.416
115755.005	NaN	-5.902	2.435	21.065	1504.029	1500.366	1495.971	-1.710	-1.466	-8.214	-0.383	-1.148	-9.263
115755.981	NaN	-5.837	2.478	21.087	1504.029	1499.634	1497.436	-1.939	-1.359	-8.137	-0.230	-1.531	-9.416
115756.958	NaN	-6.043	2.380	21.022	1502.564	1499.634	1495.238	-1.527	-1.206	-8.321	-0.612	-1.148	-9.493
115757.935	NaN	-5.728	2.348	21.043	1503.297	1501.099	1495.971	-1.344	-1.145	-8.412	-0.383	-1.301	-9.263
115758.911	NaN	-5.946	2.359	21.011	1503.297	1500.366	1495.238	-1.450	-1.267	-8.412	-0.383	-1.225	-9.340
115759.888	NaN	-5.989	2.380	21.043	1504.762	1501.099	1495.238	-1.542	-1.359	-8.504	-0.459	-1.072	-9.340
115760.864	NaN	-5.880	2.413	21.033	1502.564	1500.366	1494.505	-1.603	-1.481	-8.412	-0.612	-1.225	-9.416
115761.841	NaN	-6.130	2.413	21.054	1504.029	1501.099	1495.971	-1.664	-1.374	-8.397	-0.536	-1.148	-9.340
115762.817	NaN	-5.804	2.359	21.098	1504.029	1501.099	1496.703	-1.450	-1.267	-8.550	-0.383	-1.225	-9.340
115763.794	NaN	-5.924	2.326	21.022	1504.762	1500.366	1495.238	-1.405	-1.298	-8.443	-0.536	-1.455	-9.416
115764.771	NaN	-5.804	2.304	21.043	1503.297	1500.366	1496.703	-1.573	-1.191	-8.305	-0.536	-1.301	-9.416
115765.747	NaN	-5.967	2.391	20.880	1504.762	1500.366	1495.238	-1.618	-1.145	-8.305	-0.383	-1.148	-9.416
115766.724	NaN	-6.054	2.446	21.130	1504.762	1501.099	1495.971	-1.496	-1.176	-8.305	-0.689	-1.225	-9.340
115767.700	NaN	-5.848	2.467	21.109	1503.297	1500.366	1495.971	-1.420	-1.313	-8.427	-0.612	-1.455	-9.493
115768.677	NaN	-5.837	2.446	21.065	1504.029	1500.366	1495.971	-1.603	-1.435	-8.321	-0.153	-1.225	-9.416
115769.653	NaN	-5.902	2.348	21.000	1504.029	1500.366	1496.703	-1.649	-1.267	-8.290	-0.459	-1.378	-9.416
115770.630	NaN	-5.793	2.337	21.054	1504.029	1500.366	1496.703	-1.863	-1.176	-8.198	-0.230	-1.301	-9.110
115771.606	NaN	-5.957	2.370	21.098	1504.029	1501.832	1495.971	-1.695	-1.450	-8.122	-0.230	-1.072	-9.110
115772.583	NaN	-5.902	2.446	21.033	1504.029	1500.366	1495.971	-1.481	-1.282	-8.260	-0.230	-1.531	-9.340
115773.560	NaN	-5.924	2.435	21.152	1504.762	1499.634	1496.703	-1.237	-1.267	-8.275	-0.612	-1.225	-9.187
115774.536	NaN	-5.913	2.391	21.152	1502.564	1500.366	1494.505	-1.435	-1.374	-8.336	-0.077	-1.225	-9.187
115775.513	NaN	-5.783	2.326	20.957	1503.297	1500.366	1495.971	-1.771	-1.313	-8.275	-0.459	-1.225	-9.340
115776.489	NaN	-6.033	2.261	21.043	1503.297	1501.099	1496.703	-1.527	-1.191	-8.351	-0.536	-0.995	-9.340
115777.466	NaN	-5.728	2.304	21.033	1504.029	1500.366	1495.238	-1.527	-1.237	-8.321	-0.153	-1.455	-9.340
115778.442	NaN	-6.011	2.391	20.902	1501.832	1500.366	1495.971	-1.511	-1.389	-8.275	-0.689	-1.072	-9.263
115779.419	NaN	-5.935	2.435	21.120	1504.762	1501.099	1495.971	-1.664	-1.573	-8.137	-0.306	-1.301	-9.187
115780.396	NaN	-5.739	2.413	21.065	1504.762	1501.099	1495.971	-1.542	-1.496	-8.153	-0.459	-1.378	-9.340
115781.372	NaN	-5.815	2.380	21.076	1503.297	1501.099	1495.971	-1.573	-1.206	-8.351	-0.383	-1.225	-9.340
115782.349	NaN	-5.859	2.348	21.011	1503.297	1500.366	1495.238	-1.511	-1.023	-8.550	-0.459	-1.378	-9.493
115783.325	NaN	-5.870	2.337	21.120	1503.297	1500.366	1495.971	-1.282	-1.176	-8.366	-0.536	-1.378	-9.263
115784.302	NaN	-5.924	2.402	21.109	1503.297	1499.634	1495.971	-1.389	-1.206	-8.229	-0.306	-1.148	-9.493
115785.278	NaN	-5.804	2.489	21.109	1504.762	1500.366	1495.238	-1.557	-1.160	-8.229	-0.077	-1.225	-9.187
115786.255	3731584037.299	-6.000	2.380	21.141	1501.832	1501.099	1495.971	-1.588	-1.176	-8.137	-0.459	-1.301	-9.493
115787.231	NaN	-5.793	2.370	21.109	1502.564	1500.366	1496.703	-1.527	-1.206	-8.260	-0.153	-1.225	-9.340
115788.208	NaN	-5.826	2.293	20.967	1504.762	1500.366	1495.971	-1.313	-1.267	-8.305	-0.306	-1.072	-9.340
115789.185	NaN	-6.054	2.315	20.978	1504.029	1501.099	1495.971	-1.099	-1.160	-8.321	-0.612	-1.148	-9.416
115790.161	NaN	-5.804	2.359	21.087	1503.297	1501.099	1495.971	-1.206	-1.191	-8.397	-0.689	-1.072	-9.263
115791.138	NaN	-6.174	2.424	21.043	1504.029	1500.366	1495.238	-1.328	-1.115	-8.397	-0.459	-1.148	-9.187
115792.114	NaN	-5.880	2.457	21.065	1502.564	1501.099	1494.505	-1.359	-1.115	-8.443	-0.536	-1.301	-9.569
115793.091	NaN	-5.761	2.337	20.978	1501.832	1500.366	1495.238	-1.511	-1.191	-8.458	-0.536	-1.072	-9.416
115794.067	NaN	-5.826	2.337	21.076	1503.297	1500.366	1495.238	-1.374	-1.023	-8.427	-0.230	-1.531	-9.187
115795.044	NaN	-5.859	2.359	20.957	1504.029	1501.099	1496.703	-1.176	-0.809	-8.275	-0.536	-1.148	-9.416
115796.021	NaN	-5.989	2.402	21.141	1504.029	1500.366	1496.703	-1.038	-0.916	-8.183	-0.459	-1.225	-9.340
115796.997	NaN	-5.870	2.457	21.152	1503.297	1501.099	1495.971	-1.099	-1.130	-8.260	-0.459	-1.301	-9.569
115797.974	NaN	-5.793	2.467	21.065	1504.762	1500.366	1496.703	-0.794	-1.130	-8.366	-0.459	-1.072	-9.340
115798.950	NaN	-5.957	2.380	21.054	1504.029	1500.366	1495.238	-1.160	-1.084	-8.534	-0.612	-1.225	-9.416
115799.927	NaN	-5.707	2.380	21.011	1503.297	1500.366	1496.703	-1.573	-0.901	-8.504	-0.459	-1.148	-9.340
115800.903	NaN	-5.913	2.359	20.989	1504.762	1500.366	1498.168	-1.435	-0.992	-8.351	-0.306	-1.148	-9.187
115801.880	NaN	-5.967	2.370	21.054	1504.762	1501.099	1495.971	-0.916	-1.008	-8.183	-0.230	-1.148	-9.340
115802.856	NaN	-5.870	2.413	21.065	1504.029	1500.366	1495.971	-0.672	-0.931	-8.168	-0.536	-1.225	-9.416
115803.833	NaN	-6.141	2.446	21.011	1504.029	1501.099	1495.971	-0.977	-1.115	-8.260	-0.306	-1.378	-9.340
115804.810	NaN	-5.815	2.380	21.109	1504.029	1500.366	1495.238	-1.115	-1.069	-8.336	-0.536	-1.148	-9.187
115805.786	NaN	-5.978	2.337	21.011	1504.029	1501.099	1495.238	-0.931	-1.115	-8.489	-0.612	-1.301	-9.493
115806.763	NaN	-5.870	2.348	21.065	1504.029	1501.099	1495.971	-0.962	-1.130	-8.321	-0.536	-1.072	-9.263
115807.739	NaN	-6.033	2.380	20.891	1504.762	1500.366	1495.971	-0.992	-1.023	-8.290	-0.612	-1.225	-9.340
115808.716	NaN	-6.076	2.424	21.120	1502.564	1500.366	1495.238	-1.267	-1.145	-8.275	-0.383	-1.225	-9.493
115809.692	NaN	-5.804	2.478	21.185	1504.029	1501.099	1496.703	-1.176	-1.130	-8.366	-0.459	-1.148	-9.187
115810.669	NaN	-5.826	2.457	21.065	1504.762	1501.099	1496.703	-1.145	-1.099	-8.443	-0.230	-1.378	-9.340
115811.646	NaN	-5.913	2.391	20.978	1504.029	1500.366	1495.238	-1.069	-1.160	-8.321	-0.612	-1.148	-9.416
115812.622	NaN	-5.739	2.370	21.065	1504.029	1500.366	1495.971	-1.115	-1.145	-8.290	-0.383	-0.995	-9.340
115813.599	NaN	-5.957	2.413	21.098	1504.029	1500.366	1495.971	-1.008	-1.145	-8.336	-0.383	-1.225	-9.416
115814.575	NaN	-5.957	2.424	21.022	1504.029	1500.366	1495.238	-0.840	-1.053	-8.336	-0.459	-0.995	-9.263
115815.552	NaN	-5.946	2.478	21.022	1503.297	1501.099	1495.238	-0.977	-1.221	-8.260	-0.536	-1.301	-9.493
115816.528	NaN	-5.989	2.446	21.054	1503.297	1501.099	1495.971	-0.962	-1.206	-8.168	-0.459	-1.148	-9.187
115817.505	NaN	-5.804	2.370	21.054	1503.297	1500.366	1496.703	-0.992	-1.115	-8.260	-0.306	-1.148	-9.340
115818.481	NaN	-6.054	2.293	20.957	1503.297	1501.099	1495.238	-0.885	-1.160	-8.244	-0.153	-0.306	-9.187
115819.458	NaN	-5.739	2.370	21.043	1504.029	1500.366	1495.971	-0.916	-0.962	-8.183	-0.536	-1.148	-9.493
115820.435	NaN	-6.098	2.370	20.880	1504.762	1500.366	1496.703	-1.206	-0.931	-8.336	-0.230	-1.301	-9.110
115821.411	NaN	-6.054	2.424	21.098	1504.029	1501.832	1495.238	-1.359	-1.145	-8.229	-0.612	-1.148	-9.493
115822.388	NaN	-5.804	2.402	21.043	1504.029	1501.099	1495.238	-1.221	-1.282	-8.214	-0.689	-1.301	-9.569
115823.364	NaN	-5.870	2.370	21.011	1502.564	1500.366	1495.238	-1.008	-1.145	-8.366	-0.306	-1.301	-9.340
115824.341	NaN	-5.826	2.337	20.967	1503.297	1501.832	1495.971	-1.023	-1.191	-8.489	-0.536	-1.072	-9.340
115825.317	NaN	-5.880	2.337	20.978	1501.832	1499.634	1495.971	-1.160	-1.313	-8.382	-0.459	-1.301	-9.416
115826.294	NaN	-5.967	2.424	21.076	1503.297	1498.901	1495.971	-1.038	-1.298	-8.489	-0.306	-1.072	-9.263
115827.271	NaN	-5.859	2.489	21.065	1503.297	1500.366	1495.238	-0.809	-1.115	-8.565	-0.230	-1.455	-9.340
115828.247	NaN	-6.054	2.391	20.957	1502.564	1500.366	1493.773	-0.855	-1.130	-8.611	-0.766	-1.148	-9.340
115829.224	NaN	-5.783	2.402	21.011	1504.029	1501.099	1497.436	-1.191	-1.145	-8.336	-0.306	-1.301	-9.340
115830.200	NaN	-5.870	2.304	20.848	1504.029	1501.099	1496.703	-1.221	-1.130	-8.336	-0.459	-1.531	-9.416
115831.177	NaN	-6.022	2.304	20.837	1503.297	1500.366	1495.238	-1.069	-1.176	-8.550	-0.306	-0.995	-9.416
115832.153	NaN	-5.793	2.370	20.946	1503.297	1499.634	1495.971	-0.962	-1.344	-8.687	-0.459	-1.455	-9.493
115833.130	NaN	-6.207	2.424	20.957	1502.564	1500.366	1495.238	-1.053	-1.389	-8.473	-0.536	-1.148	-9.340
115834.106	NaN	-5.913	2.435	21.098	1503.297	1501.099	1495.238	-1.115	-1.313	-8.275	-0.383	-1.225	-9.340
115835.083	NaN	-5.924	2.370	20.913	1503.297	1501.832	1495.238	-1.084	-1.145	-8.168	-0.536	-1.531	-9.646
115836.060	NaN	-5.859	2.348	20.891	1503.297	1501.099	1495.238	-0.855	-1.191	-8.229	-0.459	-1.225	-9.416
115837.036	NaN	-5.913	2.348	20.772	1504.029	1500.366	1495.238	-0.794	-1.389	-8.305	-0.536	-1.301	-9.493
115838.013	NaN	-6.076	2.391	20.967	1504.029	1500.366	1495.971	-0.916	-1.420	-8.290	-0.536	-1.072	-9.340
115838.989	NaN	-5.891	2.489	21.087	1503.297	1500.366	1494.505	-1.115	-1.145	-8.260	-0.689	-1.225	-9.493
115839.966	NaN	-5.826	2.467	20.902	1504.029	1500.366	1496.703	-1.084	-1.191	-8.168	-0.230	-1.301	-9.263
115840.942	NaN	-6.087	2.391	20.924	1503.297	1499.634	1495.238	-0.824	-1.221	-8.168	-0.459	-1.225	-9.493
115841.919	NaN	-5.685	2.337	20.870	1504.762	1501.099	1495.971	-0.611	-1.282	-8.290	-0.306	-1.531	-9.340
115842.896	NaN	-5.978	2.315	20.859	1504.029	1499.634	1495.971	-0.687	-1.313	-8.443	-0.459	-1.148	-9.416
115843.872	NaN	-6.000	2.402	20.815	1505.495	1500.366	1496.703	-0.855	-1.221	-8.458	-0.612	-1.378	-9.569
115844.849	NaN	-5.957	2.435	20.946	1504.762	1500.366	1495.971	-0.977	-1.115	-8.412	-0.536	-1.148	-9.493
115845.825	NaN	-6.174	2.457	20.946	1502.564	1499.634	1497.436	-0.992	-0.992	-8.275	-0.306	-2.220	-9.187
115846.802	NaN	-5.815	2.391	20.967	1503.297	1501.099	1495.971	-0.809	-1.084	-8.290	-0.383	-1.301	-9.416
115847.778	NaN	-5.989	2.283	20.859	1503.297	1500.366	1495.971	-0.687	-1.252	-8.351	-0.459	-0.919	-9.263
115848.755	NaN	-5.793	2.315	20.935	1504.029	1499.634	1496.703	-0.748	-1.344	-8.504	-0.230	-1.455	-9.493
115849.731	NaN	-6.000	2.337	20.826	1504.762	1501.099	1495.238	-0.885	-1.145	-8.458	-0.536	-1.072	-9.263
115850.708	3731584037.466	-6.087	2.413	21.120	1504.029	1499.634	1495.971	-1.084	-1.084	-8.382	-0.612	-1.148	-9.416
115851.685	NaN	-5.804	2.446	21.130	1503.297	1501.099	1495.238	-1.191	-0.992	-8.366	-0.536	-1.455	-9.493
115852.661	NaN	-5.837	2.424	21.065	1501.099	1500.366	1495.238	-0.931	-1.176	-8.305	-0.306	-1.072	-9.263
115853.638	NaN	-5.924	2.337	20.978	1502.564	1499.634	1495.971	-0.641	-1.313	-8.427	-0.612	-1.378	-9.646
115854.614	NaN	-5.783	2.326	21.011	1504.029	1499.634	1497.436	-0.656	-1.405	-8.290	-0.383	-0.995	-9.263
115855.591	NaN	-6.011	2.380	21.000	1505.495	1500.366	1496.703	-0.595	-1.298	-8.275	-0.383	-1.148	-9.340
115856.567	NaN	-5.870	2.467	21.087	1504.762	1501.099	1495.971	-0.565	-1.221	-8.260	-0.230	-1.301	-9.340
115857.544	NaN	-6.043	2.424	21.130	1503.297	1501.099	1496.703	-0.534	-1.267	-8.244	-0.536	-1.072	-9.263
115858.521	NaN	-5.946	2.446	21.163	1502.564	1498.901	1495.238	-0.641	-1.160	-8.305	-0.306	-1.378	-9.416
115859.497	NaN	-5.739	2.359	21.000	1500.366	1500.366	1496.703	-0.840	-1.359	-8.473	-0.383	-0.995	-9.110
115860.474	NaN	-6.043	2.283	20.891	1504.029	1500.366	1495.238	-0.626	-1.282	-8.641	-0.536	-1.301	-9.416
115861.450	NaN	-5.761	2.326	21.043	1503.297	1500.366	1495.238	-0.489	-1.206	-8.534	-0.612	-1.301	-9.416
115862.427	NaN	-6.141	2.402	21.000	1504.029	1500.366	1495.971	-0.565	-1.145	-8.336	-0.689	-1.148	-9.263
115863.403	NaN	-6.054	2.489	21.228	1503.297	1499.634	1495.238	-0.550	-1.252	-8.397	-0.230	-1.225	-9.340
115864.380	NaN	-5.826	2.467	21.130	1504.029	1501.099	1497.436	-0.168	-1.099	-8.565	-0.536	-1.148	-9.416
115865.356	NaN	-5.870	2.402	21.120	1502.564	1501.099	1495.238	-0.336	-1.008	-8.443	-0.306	-1.378	-9.340
115866.333	NaN	-5.772	2.370	20.967	1503.297	1500.366	1495.238	-0.565	-1.053	-8.321	-0.612	-0.995	-9.263
115867.310	NaN	-5.848	2.315	21.076	1503.297	1500.366	1495.971	-0.641	-1.008	-8.168	-0.306	-1.072	-9.340
115868.286	NaN	-5.989	2.413	21.163	1502.564	1499.634	1495.971	-0.473	-1.023	-8.321	-0.536	-1.301	-9.416
115869.263	NaN	-5.848	2.489	21.141	1504.762	1501.099	1496.703	-0.534	-1.053	-8.565	-0.230	-0.842	-9.340
115870.239	NaN	-6.109	2.446	21.130	1503.297	1500.366	1495.238	-0.473	-1.130	-8.611	-0.536	-1.455	-9.493
115871.216	NaN	-5.815	2.424	21.087	1503.297	1500.366	1495.971	-0.595	-1.130	-8.397	-0.383	-1.148	-9.340
115872.192	NaN	-5.870	2.304	20.989	1506.960	1500.366	1495.971	-0.641	-0.992	-8.244	-0.459	-1.072	-9.340
115873.169	NaN	-6.054	2.326	20.967	1503.297	1500.366	1495.238	-0.611	-1.023	-8.305	-0.230	-1.072	-9.416
115874.146	NaN	-5.728	2.391	21.054	1504.029	1500.366	1495.238	-0.656	-1.145	-8.427	-0.612	-1.225	-9.263
115875.122	NaN	-6.196	2.478	21.022	1504.029	1500.366	1496.703	-0.763	-1.252	-8.443	-0.230	-1.301	-9.340
115876.099	NaN	-5.935	2.478	21.109	1502.564	1499.634	1494.505	-0.672	-1.176	-8.473	-0.612	-1.148	-9.416
115877.075	NaN	-5.902	2.402	21.033	1503.297	1500.366	1494.505	-0.611	-1.221	-8.336	-0.536	-1.301	-9.416
115878.052	NaN	-5.859	2.337	21.022	1503.297	1500.366	1495.238	-0.458	-1.328	-8.168	-0.230	-1.455	-9.263
115879.028	NaN	-5.870	2.337	20.826	1503.297	1499.634	1497.436	-0.443	-1.359	-8.290	-0.612	-1.072	-9.416
115880.005	NaN	-6.076	2.348	21.087	1504.029	1501.099	1496.703	-0.550	-1.359	-8.458	-0.383	-1.378	-9.416
115880.981	NaN	-5.891	2.457	21.087	1504.029	1500.366	1495.238	-0.366	-1.176	-8.397	-0.383	-1.225	-9.263
115881.958	NaN	-5.870	2.489	21.033	1505.495	1500.366	1495.971	-0.443	-1.252	-8.473	-0.306	-1.455	-9.340
115882.935	NaN	-6.054	2.402	20.967	1503.297	1500.366	1495.238	-0.702	-1.221	-8.687	-0.612	-1.301	-9.416
115883.911	NaN	-5.674	2.326	20.946	1502.564	1499.634	1496.703	-0.504	-1.313	-8.565	-0.383	-1.225	-9.416
115884.888	NaN	-5.880	2.348	20.935	1503.297	1500.366	1495.238	-0.626	-1.313	-8.305	-0.383	-1.455	-9.416
115885.864	NaN	-5.989	2.337	20.967	1504.029	1499.634	1496.703	-0.611	-1.267	-8.229	-0.230	-0.995	-9.263
115886.841	NaN	-5.924	2.391	20.989	1504.029	1501.099	1496.703	-0.641	-1.389	-8.244	-0.459	-1.301	-9.493
115887.817	NaN	-6.033	2.446	21.033	1503.297	1500.366	1496.703	-0.687	-1.267	-8.214	-0.306	-1.148	-9.263
115888.794	NaN	-5.815	2.413	21.054	1503.297	1500.366	1495.238	-0.550	-1.069	-8.229	-0.383	-1.225	-9.416
115889.771	NaN	-6.000	2.337	20.989	1504.029	1501.099	1495.971	-0.534	-1.298	-8.336	-0.536	-1.225	-9.340
115890.747	NaN	-5.761	2.304	21.033	1504.762	1501.099	1494.505	-0.550	-1.374	-8.321	-0.459	-1.148	-9.493
115891.724	NaN	-6.087	2.337	20.826	1504.029	1501.099	1496.703	-0.687	-1.252	-8.443	-0.536	-1.225	-9.493
115892.700	NaN	-6.022	2.391	21.065	1503.297	1501.099	1495.238	-0.779	-1.206	-8.458	-0.459	-1.225	-9.340
115893.677	NaN	-5.783	2.402	21.054	1503.297	1500.366	1495.971	-0.519	-1.130	-8.458	-0.612	-1.148	-9.569
115894.653	NaN	-5.924	2.391	20.924	1502.564	1499.634	1495.971	-0.366	-1.252	-8.443	-0.230	-1.378	-9.493
115895.630	NaN	-5.848	2.370	20.902	1504.762	1501.099	1495.971	-0.550	-1.176	-8.244	-0.689	-1.148	-9.263
115896.606	NaN	-5.880	2.348	21.011	1504.029	1500.366	1497.436	-0.702	-1.191	-8.183	-0.153	-1.301	-9.263
115897.583	NaN	-5.957	2.424	21.120	1503.297	1501.099	1495.971	-0.840	-1.267	-8.290	-0.383	-1.225	-9.340
115898.560	NaN	-5.848	2.457	21.087	1501.832	1500.366	1494.505	-0.748	-1.252	-8.458	-0.459	-1.072	-9.493
115899.536	NaN	-6.076	2.380	21.098	1503.297	1501.099	1495.971	-0.412	-1.160	-8.458	-0.612	-1.225	-9.493
115900.513	NaN	-5.870	2.380	21.076	1503.297	1500.366	1495.971	-0.397	-1.160	-8.168	-0.459	-1.225	-9.416
115901.489	NaN	-5.837	2.326	20.978	1504.029	1500.366	1495.238	-0.305	-1.115	-8.168	-0.459	-1.301	-9.340
115902.466	NaN	-6.109	2.326	21.000	1503.297	1500.366	1495.971	-0.275	-1.115	-8.305	-0.306	-0.995	-9.187
115903.442	NaN	-5.826	2.380	21.043	1502.564	1500.366	1495.971	-0.275	-1.145	-8.198	-0.536	-1.225	-9.263
115904.419	NaN	-6.130	2.457	20.935	1504.762	1501.099	1495.238	-0.427	-1.374	-8.076	-0.383	-1.225	-9.263
115905.396	NaN	-5.902	2.424	21.022	1502.564	1500.366	1495.238	-0.336	-1.282	-8.198	-0.612	-1.301	-9.416
115906.372	NaN	-5.804	2.380	20.989	1504.762	1500.366	1496.703	-0.137	-1.145	-8.565	-0.766	-1.608	-9.416
115907.349	NaN	-5.859	2.337	21.033	1502.564	1501.099	1495.238	-0.153	-0.992	-8.397	-0.612	-1.148	-9.493
115908.325	NaN	-5.870	2.304	20.870	1503.297	1500.366	1495.971	-0.366	-0.992	-8.260	-0.612	-1.378	-9.416
115909.302	NaN	-6.033	2.348	21.065	1504.029	1500.366	1495.238	-0.473	-1.145	-8.382	-0.536	-1.301	-9.493
115910.278	NaN	-5.946	2.467	21.087	1503.297	1500.366	1495.238	-0.351	-1.206	-8.382	-0.383	-1.072	-9.263
115911.255	NaN	-5.815	2.467	21.076	1504.029	1501.099	1495.971	-0.321	-1.298	-8.153	-0.306	-1.225	-9.416
115912.231	NaN	-6.011	2.370	21.120	1502.564	1500.366	1495.238	0.076	-1.221	-8.168	-0.689	-1.148	-9.340
115913.208	NaN	-5.707	2.359	21.033	1504.029	1499.634	1495.971	0.107	-1.221	-8.382	-0.153	-1.378	-9.187
115914.185	NaN	-5.880	2.370	20.957	1504.029	1499.634	1498.168	-0.061	-1.252	-8.305	-0.306	-1.148	-9.416
115915.161	NaN	-6.033	2.380	20.978	1504.029	1500.366	1496.703	-0.198	-1.466	-8.336	-0.536	-1.072	-9.263
115916.138	NaN	-5.848	2.402	21.152	1503.297	1501.099	1495.971	-0.183	-1.481	-8.336	-0.612	-1.301	-9.569
115917.114	NaN	-6.120	2.435	21.000	1503.297	1500.366	1495.971	-0.305	-1.313	-8.214	-0.612	-1.148	-9.263
115918.091	NaN	-5.815	2.413	21.022	1502.564	1500.366	1495.971	-0.321	-1.282	-8.321	-0.459	-1.455	-9.187
115919.067	NaN	-5.924	2.326	20.967	1504.029	1501.099	1495.971	-0.183	-1.282	-8.412	-0.459	-1.301	-9.263
115920.044	NaN	-5.804	2.348	21.011	1504.029	1500.366	1496.703	-0.183	-1.130	-8.397	-0.306	-1.378	-9.340
115921.021	NaN	-5.891	2.391	20.826	1504.029	1500.366	1495.238	-0.336	-0.901	-8.443	-0.536	-1.148	-9.416
115921.997	NaN	-6.054	2.370	21.065	1504.762	1501.099	1495.971	-0.336	-1.038	-8.321	-0.459	-1.225	-9.263
115922.974	NaN	-5.848	2.446	21.163	1503.297	1499.634	1496.703	-0.137	-1.252	-8.382	-0.612	-1.531	-9.569
115923.950	NaN	-5.826	2.457	21.054	1503.297	1501.099	1495.971	-0.046	-1.344	-8.550	-0.230	-0.995	-9.263
115924.927	NaN	-6.000	2.337	21.043	1503.297	1500.366	1496.703	-0.290	-1.221	-8.626	-0.612	-1.301	-9.493
115925.903	NaN	-5.793	2.272	21.054	1502.564	1500.366	1495.238	-0.565	-1.099	-8.427	-0.383	-1.531	-9.340
115926.880	NaN	-5.978	2.250	21.000	1504.762	1500.366	1495.238	-0.382	-1.160	-8.321	-0.383	-1.072	-9.187
115927.856	NaN	-5.957	2.326	21.033	1503.297	1500.366	1495.971	0.031	-1.176	-8.000	-0.230	-1.148	-9.340
115928.833	NaN	-5.848	2.446	21.109	1504.762	1500.366	1495.971	0.031	-1.130	-8.015	-0.689	-1.225	-9.416
115929.810	NaN	-6.120	2.500	21.076	1503.297	1500.366	1495.971	-0.366	-1.252	-8.229	-0.306	-1.455	-9.187
115930.786	NaN	-5.804	2.457	21.022	1503.297	1500.366	1494.505	-0.565	-1.313	-8.244	-0.383	-1.148	-9.416
115931.763	NaN	-5.946	2.348	20.902	1504.029	1501.099	1496.703	-0.183	-1.298	-8.290	-0.689	-1.301	-9.340
115932.739	NaN	-5.772	2.283	20.989	1503.297	1500.366	1495.971	0.076	-1.176	-8.260	-0.689	-0.230	-9.340
115933.716	NaN	-5.935	2.304	20.902	1502.564	1500.366	1495.971	0.061	-1.237	-8.229	-0.612	-1.072	-9.416
115934.692	NaN	-6.087	2.370	21.120	1504.029	1501.099	1496.703	-0.076	-1.573	-8.137	-0.383	-1.301	-9.416
115935.669	NaN	-5.826	2.446	21.109	1503.297	1501.099	1495.238	-0.198	-1.511	-8.183	-0.459	-1.148	-9.493
115936.646	NaN	-5.913	2.467	20.946	1503.297	1500.366	1496.703	-0.214	-1.313	-8.382	-0.153	-1.455	-9.416
115937.622	NaN	-5.902	2.370	20.946	1504.762	1501.099	1495.971	-0.168	-0.916	-8.489	-0.766	-1.378	-9.569
115938.599	NaN	-5.707	2.326	21.000	1504.029	1500.366	1495.971	-0.183	-1.084	-8.351	-0.459	-1.225	-9.263
115939.575	NaN	-5.957	2.359	21.076	1503.297	1500.366	1496.703	-0.336	-1.359	-8.214	-0.689	-1.455	-9.416
115940.552	NaN	-5.957	2.413	21.098	1503.297	1500.366	1495.971	-0.366	-1.511	-8.214	-0.306	-0.842	-9.340
115965.942	NaN	-5.750	2.457	20.935	1504.762	1499.634	1496.703	-0.137	-1.130	-8.260	-0.306	-1.378	-9.340
115966.919	3731584037.633	-5.967	2.402	20.957	1501.099	1500.366	1494.505	-0.275	-1.130	-8.382	-0.459	-1.301	-9.416
115967.896	NaN	-5.663	2.402	21.076	1503.297	1501.099	1495.971	-0.290	-1.099	-8.290	-0.306	-1.301	-9.340
115968.872	NaN	-5.859	2.380	20.967	1503.297	1501.099	1495.971	-0.336	-1.191	-8.122	-0.383	-1.225	-9.416
115969.849	NaN	-5.913	2.359	20.870	1502.564	1500.366	1496.703	-0.366	-1.069	-8.137	-0.383	-1.148	-9.340
115970.825	NaN	-5.870	2.380	21.000	1504.762	1500.366	1494.505	-0.153	-1.084	-8.061	-0.689	-1.378	-9.416
115971.802	NaN	-6.109	2.402	21.022	1501.832	1500.366	1495.238	-0.214	-1.115	-8.260	-0.612	-1.148	-9.569
115972.778	NaN	-5.750	2.326	20.935	1504.029	1500.366	1495.971	-0.122	-1.053	-8.183	-0.306	-1.148	-9.340
115973.755	NaN	-6.022	2.283	21.043	1503.297	1501.099	1495.971	-0.153	-1.084	-8.015	-0.306	-1.072	-9.263
115974.731	NaN	-5.772	2.326	21.011	1503.297	1499.634	1496.703	-0.153	-1.084	-7.939	-0.383	-1.301	-9.416
115975.708	NaN	-6.033	2.370	20.848	1503.297	1500.366	1497.436	-0.153	-1.038	-8.198	-0.536	-1.301	-9.416
115976.685	NaN	-6.109	2.413	21.065	1503.297	1500.366	1495.238	-0.214	-0.977	-8.336	-0.612	-1.148	-9.263
115977.661	NaN	-5.761	2.424	21.054	1504.029	1501.099	1495.238	-0.214	-0.962	-8.275	-0.612	-1.378	-9.646
115978.638	NaN	-5.859	2.380	20.967	1502.564	1499.634	1496.703	-0.366	-0.931	-8.076	-0.306	-1.148	-9.416
115979.614	NaN	-5.880	2.337	20.848	1503.297	1500.366	1496.703	-0.504	-0.794	-8.061	-0.459	-1.148	-9.416
115980.591	NaN	-5.750	2.315	20.935	1504.029	1501.099	1496.703	-0.672	-0.931	-8.183	-0.459	-1.225	-9.569
115981.567	NaN	-5.957	2.391	21.011	1504.762	1501.099	1494.505	-0.702	-1.008	-8.275	-0.306	-1.148	-9.187
115982.544	NaN	-5.848	2.446	21.000	1504.029	1501.099	1495.238	-0.321	-1.084	-8.321	-0.230	-1.301	-9.187
115983.521	NaN	-5.946	2.370	20.978	1503.297	1501.099	1495.238	0.061	-1.038	-8.046	-0.536	-1.225	-9.340
115984.497	NaN	-5.870	2.337	21.011	1502.564	1500.366	1493.773	0.015	-1.053	-7.878	-0.230	-1.378	-9.187
115985.474	NaN	-5.783	2.304	20.924	1503.297	1500.366	1495.971	-0.244	-0.947	-8.046	-0.459	-1.378	-9.416
115986.450	NaN	-6.054	2.272	20.957	1504.029	1500.366	1495.238	-0.519	-0.962	-8.290	-0.383	-1.072	-9.340
115987.427	NaN	-5.793	2.348	21.033	1503.297	1500.366	1495.238	-0.489	-0.992	-8.321	-0.612	-1.378	-9.646
115988.403	NaN	-6.163	2.402	21.000	1504.029	1499.634	1495.238	-0.458	-0.824	-8.427	-0.536	-1.072	-9.263
115989.380	NaN	-5.935	2.446	21.120	1502.564	1500.366	1494.505	-0.611	-0.809	-8.366	-0.306	-1.455	-9.340
115990.356	NaN	-5.859	2.402	21.120	1501.832	1500.366	1494.505	-0.672	-1.084	-8.107	-0.536	-1.301	-9.340
115991.333	NaN	-5.772	2.326	21.098	1503.297	1500.366	1495.238	-0.489	-1.099	-8.107	-0.230	-1.378	-9.263
115992.310	NaN	-5.815	2.326	20.848	1503.297	1500.366	1495.971	-0.382	-0.901	-8.107	-0.536	-1.301	-9.569
115993.286	NaN	-6.043	2.326	20.967	1503.297	1500.366	1494.505	-0.565	-1.038	-8.000	-0.536	-1.148	-9.187
115994.263	NaN	-5.859	2.424	21.217	1503.297	1500.366	1495.238	-0.702	-0.977	-7.939	-0.612	-1.608	-9.569
116059.692	NaN	-6.185	2.391	20.913	1503.297	1500.366	1495.238	-0.840	-0.458	-7.756	-0.612	-1.301	-9.263
116060.669	NaN	-5.967	2.391	21.000	1504.762	1500.366	1495.238	-0.977	-0.443	-7.954	-0.383	-1.225	-9.340
116061.646	NaN	-5.815	2.370	20.913	1504.029	1500.366	1495.238	-0.931	-0.565	-8.153	-0.536	-1.531	-9.569
116062.622	NaN	-5.837	2.391	20.913	1503.297	1500.366	1495.971	-0.962	-0.626	-8.092	-0.612	-1.301	-9.493
116063.599	NaN	-5.870	2.348	20.772	1504.762	1500.366	1495.238	-1.099	-0.641	-8.000	-0.459	-1.301	-9.416
116064.575	NaN	-5.978	2.337	20.924	1502.564	1499.634	1495.238	-1.206	-0.580	-7.908	-0.612	-1.072	-9.493
116065.552	NaN	-5.935	2.413	21.054	1504.762	1500.366	1495.971	-1.099	-0.595	-8.107	-0.306	-1.148	-9.340
116066.528	NaN	-5.880	2.435	20.935	1503.297	1499.634	1495.971	-0.870	-0.519	-8.229	-0.230	-1.455	-9.340
116067.505	NaN	-6.011	2.380	20.978	1503.297	1500.366	1495.971	-0.901	-0.550	-8.183	-0.536	-1.225	-9.340
116068.481	NaN	-5.772	2.348	20.967	1504.029	1500.366	1497.436	-0.977	-0.519	-8.015	-0.230	-1.378	-9.263
116069.458	NaN	-5.902	2.315	20.902	1503.297	1499.634	1496.703	-1.023	-0.550	-8.061	-0.459	-1.148	-9.263
116070.435	NaN	-6.087	2.304	20.891	1504.029	1500.366	1495.971	-1.069	-0.611	-8.137	-0.689	-1.225	-9.416
116071.411	NaN	-5.837	2.326	21.011	1504.029	1500.366	1493.773	-1.115	-0.458	-8.031	-0.689	-1.148	-9.493
116072.388	NaN	-6.228	2.402	20.891	1504.029	1500.366	1495.971	-0.992	-0.504	-8.214	-0.612	-1.148	-9.493
116073.364	NaN	-5.913	2.370	20.978	1504.029	1500.366	1496.703	-1.099	-0.504	-8.061	-0.383	-1.455	-9.340
116074.341	NaN	-5.924	2.304	20.859	1504.029	1500.366	1495.971	-1.115	-0.351	-8.107	-0.383	-0.153	-9.416
116075.317	NaN	-5.880	2.283	20.913	1504.029	1500.366	1496.703	-1.115	-0.305	-8.229	-0.459	-1.378	-9.416
116076.294	NaN	-5.902	2.326	20.696	1504.029	1500.366	1495.238	-0.947	-0.366	-8.290	-0.459	-1.148	-9.416
116077.271	NaN	-6.043	2.391	21.000	1503.297	1499.634	1496.703	-0.962	-0.458	-8.183	-0.536	-1.225	-9.263
116078.247	NaN	-5.804	2.457	21.098	1501.832	1500.366	1495.238	-1.115	-0.504	-8.031	-0.612	-1.455	-9.569
116079.224	NaN	-5.870	2.435	21.000	1502.564	1500.366	1495.238	-1.099	-0.458	-7.985	-0.230	-1.072	-9.110
116080.200	NaN	-6.000	2.326	20.978	1501.832	1500.366	1493.773	-1.084	-0.321	-8.122	-0.536	-1.455	-9.416
116081.177	NaN	-5.739	2.315	20.978	1503.297	1500.366	1495.971	-0.992	-0.336	-8.046	-0.536	-1.301	-9.416
116082.153	NaN	-5.957	2.337	20.957	1503.297	1500.366	1495.238	-1.038	-0.305	-8.015	-0.306	-1.148	-9.187
116083.130	NaN	-5.978	2.391	21.011	1504.762	1500.366	1495.971	-0.992	-0.382	-7.954	-0.306	-1.301	-9.340
116084.106	NaN	-5.924	2.402	21.087	1502.564	1500.366	1495.971	-0.977	-0.290	-8.092	-0.536	-1.225	-9.416
116085.083	NaN	-6.087	2.413	21.076	1503.297	1499.634	1495.971	-1.023	-0.137	-8.183	-0.077	-1.378	-9.187
116086.060	NaN	-5.804	2.370	20.978	1504.029	1500.366	1496.703	-0.901	-0.214	-8.214	-0.536	-1.301	-9.493
116087.036	NaN	-6.033	2.272	20.967	1504.029	1501.099	1495.238	-0.916	-0.504	-8.214	-0.689	-1.072	-9.493
116088.013	NaN	-5.837	2.293	21.043	1504.029	1501.099	1495.238	-1.176	-0.427	-8.137	-0.612	-1.378	-9.416
116088.989	NaN	-6.033	2.348	20.935	1504.029	1500.366	1494.505	-1.115	-0.366	-8.107	-0.536	-1.148	-9.416
116089.966	NaN	-6.087	2.435	21.109	1503.297	1499.634	1496.703	-1.069	-0.321	-8.061	-0.459	-1.378	-9.340
116090.942	NaN	-5.848	2.424	21.098	1501.832	1500.366	1496.703	-1.145	-0.305	-8.092	-0.306	-1.148	-9.340
116091.919	NaN	-5.913	2.413	21.152	1502.564	1499.634	1495.971	-0.992	-0.244	-8.092	-0.230	-1.378	-9.263
116092.896	NaN	-5.924	2.391	21.054	1504.029	1501.099	1496.703	-0.779	-0.214	-8.321	-0.612	-1.378	-9.416
116093.872	NaN	-5.793	2.326	21.109	1504.029	1500.366	1495.971	-0.702	-0.244	-8.290	-0.459	-1.225	-9.187
116094.849	NaN	-5.989	2.402	21.120	1504.762	1499.634	1496.703	-0.840	-0.519	-8.092	-0.459	-1.455	-9.416
116095.825	NaN	-5.957	2.446	21.130	1503.297	1498.901	1495.238	-0.992	-0.382	-8.046	-0.230	-1.072	-9.110
116096.802	NaN	-6.033	2.435	21.174	1504.029	1500.366	1496.703	-1.176	-0.412	-8.351	-0.612	-1.455	-9.416
116097.778	NaN	-5.957	2.402	21.087	1503.297	1500.366	1494.505	-1.313	-0.443	-8.397	-0.383	-1.225	-9.340
116098.755	NaN	-5.837	2.337	21.043	1503.297	1499.634	1497.436	-1.130	-0.351	-8.321	-0.383	-1.148	-9.340
116099.731	NaN	-6.152	2.272	21.022	1504.029	1500.366	1496.703	-1.023	-0.336	-8.229	-0.612	-1.455	-9.569
116100.708	NaN	-5.793	2.326	21.054	1502.564	1500.366	1494.505	-0.947	-0.351	-8.122	-0.459	-1.225	-9.340
116101.685	NaN	-6.141	2.402	21.011	1503.297	1499.634	1495.971	-0.824	-0.412	-8.122	-0.230	-1.301	-9.263
116102.661	NaN	-6.076	2.424	21.174	1504.029	1500.366	1495.971	-0.626	-0.397	-8.153	-0.536	-1.225	-9.416
116103.638	NaN	-5.848	2.402	21.163	1501.832	1501.099	1495.238	-0.702	-0.443	-8.229	-0.612	-1.301	-9.416
116104.614	NaN	-5.967	2.337	21.098	1503.297	1500.366	1495.971	-1.084	-0.473	-8.229	-0.230	-1.531	-9.187
116105.591	NaN	-5.902	2.348	20.946	1504.762	1501.099	1497.436	-1.115	-0.397	-8.031	-0.536	-1.148	-9.340
116106.567	NaN	-6.011	2.359	21.098	1504.029	1500.366	1496.703	-1.160	-0.443	-7.817	-0.230	-1.225	-9.187
116107.544	NaN	-6.022	2.435	21.076	1504.029	1501.099	1495.971	-1.099	-0.412	-7.740	-0.383	-1.301	-9.416
116108.521	NaN	-5.913	2.467	21.098	1503.297	1500.366	1495.971	-1.023	-0.412	-7.954	-0.383	-1.301	-9.340
116109.497	NaN	-6.087	2.391	21.109	1504.029	1500.366	1495.971	-0.962	-0.443	-8.275	-0.612	-1.225	-9.493
116110.474	NaN	-5.848	2.370	21.065	1502.564	1501.832	1496.703	-1.023	-0.321	-8.168	-0.536	-1.225	-9.187
116111.450	NaN	-5.891	2.315	21.065	1504.762	1501.099	1497.436	-1.191	-0.412	-7.969	-0.459	-1.301	-9.416
116112.427	NaN	-6.076	2.337	21.022	1503.297	1501.099	1496.703	-1.130	-0.427	-8.031	-0.306	-0.995	-9.340
116113.403	NaN	-5.815	2.370	21.163	1504.029	1500.366	1495.238	-1.176	-0.458	-8.122	-0.383	-1.301	-9.340
116114.380	NaN	-6.228	2.435	21.054	1504.762	1501.099	1496.703	-1.206	-0.443	-8.229	-0.536	-1.225	-9.340
116115.356	NaN	-5.880	2.402	21.011	1504.029	1501.832	1495.971	-0.992	-0.366	-8.183	-0.383	-1.148	-9.263
116116.333	NaN	-5.924	2.326	21.054	1503.297	1500.366	1497.436	-1.038	-0.504	-8.107	-0.766	-1.531	-9.493
116117.310	NaN	-5.891	2.283	21.076	1503.297	1501.099	1495.971	-1.115	-0.275	-8.137	-0.459	-0.995	-9.416
116118.286	NaN	-5.913	2.370	20.848	1504.029	1500.366	1495.238	-1.267	-0.351	-8.107	-0.536	-1.301	-9.340
116119.263	NaN	-6.043	2.370	21.065	1504.762	1501.099	1495.971	-1.237	-0.443	-7.939	-0.536	-1.148	-9.493
116132.935	NaN	-5.891	2.446	21.087	1503.297	1500.366	1495.971	-0.901	-0.305	-8.076	-0.536	-1.301	-9.493
116133.911	NaN	-5.870	2.457	20.978	1504.762	1500.366	1495.971	-1.053	-0.305	-7.985	-0.230	-0.919	-9.416
116134.888	NaN	-6.000	2.348	20.870	1503.297	1501.099	1496.703	-0.901	-0.458	-7.954	-0.459	-1.531	-9.569
116135.864	NaN	-5.663	2.304	20.848	1503.297	1500.366	1496.703	-0.794	-0.366	-7.954	-0.536	-1.072	-9.416
116136.841	NaN	-5.924	2.304	20.924	1505.495	1501.099	1496.703	-0.855	-0.290	-8.046	-0.536	-1.301	-9.340
116137.817	NaN	-5.924	2.380	20.978	1504.029	1500.366	1495.971	-0.824	-0.244	-8.122	-0.230	-1.225	-9.263
116138.794	NaN	-5.924	2.402	20.989	1504.029	1500.366	1495.971	-0.748	-0.260	-8.214	-0.459	-1.225	-9.340
116139.771	NaN	-6.120	2.435	20.989	1503.297	1501.099	1496.703	-0.931	-0.321	-8.137	-0.230	-1.455	-9.416
116140.747	NaN	-5.761	2.359	20.924	1504.029	1501.832	1495.971	-1.130	-0.489	-8.061	-0.536	-1.072	-9.493
116141.724	NaN	-6.033	2.304	20.837	1504.762	1501.099	1495.971	-1.053	-0.519	-8.137	-0.612	-1.301	-9.416
116142.700	NaN	-5.761	2.304	20.957	1504.029	1500.366	1495.971	-1.038	-0.290	-8.168	-0.689	-1.148	-9.493
116143.677	NaN	-6.109	2.348	20.848	1504.029	1500.366	1497.436	-0.916	-0.183	-8.168	-0.612	-1.148	-9.340
116144.653	NaN	-6.098	2.402	21.120	1503.297	1500.366	1495.971	-1.038	-0.336	-8.046	-0.306	-1.378	-9.416
116145.630	NaN	-5.772	2.424	21.120	1503.297	1501.832	1495.971	-0.718	-0.351	-7.924	-0.383	-1.072	-9.340
116146.606	NaN	-5.815	2.402	21.011	1503.297	1500.366	1496.703	-0.626	-0.260	-7.863	-0.459	-1.455	-9.569
116147.583	NaN	-5.793	2.348	20.935	1504.029	1500.366	1496.703	-0.718	-0.275	-8.000	-0.536	-1.148	-9.340
116148.560	NaN	-5.804	2.326	20.957	1504.029	1500.366	1496.703	-1.145	-0.275	-8.092	-0.459	-1.455	-9.416
116149.536	NaN	-5.913	2.359	20.924	1504.029	1500.366	1495.238	-1.145	-0.290	-8.076	-0.536	-1.301	-9.263
116150.513	NaN	-5.815	2.413	20.880	1504.029	1500.366	1496.703	-0.779	-0.305	-7.908	-0.383	-1.148	-9.416
116151.489	NaN	-6.043	2.391	20.978	1504.762	1501.099	1496.703	-0.718	-0.412	-7.954	-0.536	-1.225	-9.569
116152.466	NaN	-5.783	2.391	20.989	1503.297	1500.366	1495.238	-0.855	-0.351	-8.092	-0.230	-1.301	-9.263
116153.442	NaN	-5.891	2.348	20.957	1503.297	1500.366	1496.703	-0.947	-0.382	-7.939	-0.306	-1.148	-9.187
116154.419	NaN	-6.076	2.337	20.902	1502.564	1499.634	1494.505	-1.023	-0.290	-7.969	-0.612	-1.301	-9.416
116183.716	NaN	-6.022	2.272	20.967	1503.297	1500.366	1495.971	-0.534	-0.672	-7.817	-0.383	-0.995	-9.110
116184.692	NaN	-5.793	2.315	21.054	1502.564	1499.634	1496.703	-0.565	-0.611	-7.695	-0.459	-1.301	-9.340
116185.669	NaN	-6.087	2.370	20.935	1504.762	1501.832	1495.971	-0.580	-0.641	-7.817	-0.306	-1.148	-9.263
116186.646	NaN	-5.967	2.424	21.022	1504.762	1500.366	1495.238	-0.672	-0.626	-7.985	-0.612	-1.072	-9.340
116187.622	NaN	-5.772	2.413	21.076	1503.297	1500.366	1495.238	-0.794	-0.641	-7.863	-0.612	-1.531	-9.340
116188.599	NaN	-5.902	2.380	21.043	1503.297	1499.634	1496.703	-0.489	-0.611	-7.771	-0.536	-2.373	-9.416
116189.575	NaN	-5.826	2.348	20.957	1503.297	1500.366	1495.971	-0.687	-0.656	-7.679	-0.383	-1.225	-9.493
116190.552	NaN	-5.837	2.337	21.109	1504.762	1501.099	1495.971	-0.702	-0.565	-7.618	-0.536	-1.148	-9.340
116191.528	NaN	-5.935	2.424	21.239	1504.762	1501.099	1495.971	-0.718	-0.427	-7.695	-0.383	-0.919	-9.263
116192.505	NaN	-5.859	2.446	21.120	1504.029	1501.099	1495.971	-0.794	-0.473	-7.847	-0.153	-1.225	-9.416
116193.481	NaN	-5.989	2.380	21.098	1503.297	1500.366	1495.238	-0.824	-0.626	-7.878	-0.536	-1.072	-9.340
116194.458	NaN	-5.772	2.348	21.120	1504.029	1501.832	1497.436	-0.870	-0.718	-7.710	-0.077	-1.455	-9.110
116195.435	NaN	-5.826	2.283	21.033	1503.297	1500.366	1495.971	-0.702	-0.794	-7.618	-0.306	-1.378	-9.263
116196.411	NaN	-6.065	2.304	21.011	1504.029	1500.366	1494.505	-0.702	-0.733	-7.618	-0.459	-1.072	-9.263
116197.388	NaN	-5.815	2.370	21.087	1503.297	1499.634	1497.436	-0.595	-0.626	-7.847	-0.459	-1.072	-9.340
116198.364	NaN	-6.152	2.424	21.098	1502.564	1500.366	1495.238	-0.611	-0.565	-7.954	-0.612	-1.225	-9.263
116199.341	NaN	-5.891	2.391	21.217	1504.029	1501.099	1495.971	-0.687	-0.519	-7.802	-0.230	-1.301	-9.416
116200.317	NaN	-5.826	2.315	21.130	1504.762	1501.099	1495.238	-0.779	-0.779	-7.725	-0.383	-1.378	-9.416
116238.403	NaN	-6.065	2.315	20.902	1503.297	1499.634	1495.971	-0.229	-0.962	-7.328	-0.230	-1.072	-9.263
116239.380	NaN	-5.815	2.370	20.978	1502.564	1499.634	1496.703	-0.244	-0.718	-7.389	-0.459	-1.225	-9.340
116240.356	NaN	-6.185	2.391	20.902	1501.832	1501.099	1495.238	-0.107	-0.611	-7.679	-0.306	-1.301	-9.416
116241.333	NaN	-5.880	2.413	21.011	1504.029	1500.366	1495.238	-0.137	-0.580	-7.893	-0.612	-1.148	-9.340
116242.310	NaN	-5.826	2.359	20.924	1503.297	1501.099	1495.971	-0.046	-0.489	-7.893	-0.612	-1.455	-9.493
116243.286	NaN	-5.815	2.348	20.924	1503.297	1500.366	1495.971	0.153	-0.519	-7.603	-0.459	-1.072	-9.493
116244.263	NaN	-5.848	2.326	20.793	1503.297	1500.366	1495.238	-0.061	-0.489	-7.496	-0.536	-1.378	-9.416
116245.239	NaN	-6.065	2.348	20.967	1503.297	1500.366	1495.238	-0.275	-0.489	-7.466	-0.383	-1.225	-9.493
116246.216	NaN	-5.891	2.435	21.054	1502.564	1500.366	1495.238	0.000	-0.580	-7.557	-0.383	-1.148	-9.263
116247.192	NaN	-5.859	2.467	20.989	1501.832	1500.366	1494.505	0.092	-0.702	-7.527	-0.230	-1.531	-9.340
116248.169	NaN	-6.000	2.370	20.957	1503.297	1499.634	1495.971	-0.092	-0.748	-7.649	-0.536	-1.072	-9.416
116249.146	NaN	-5.707	2.370	20.978	1503.297	1499.634	1495.238	-0.137	-0.748	-7.573	-0.230	-1.378	-9.340
116250.122	NaN	-5.946	2.359	20.978	1504.029	1500.366	1495.238	0.137	-0.626	-7.481	-0.230	-1.225	-9.493
116251.099	NaN	-6.054	2.370	20.957	1502.564	1500.366	1494.505	0.290	-0.672	-7.481	-0.459	-1.072	-9.416
116252.075	NaN	-5.913	2.435	20.967	1504.029	1500.366	1493.773	-0.107	-0.733	-7.771	-0.536	-1.301	-9.340
116253.052	NaN	-6.098	2.467	20.957	1502.564	1500.366	1494.505	-0.305	-0.855	-7.603	-0.536	-1.301	-9.187
116254.028	NaN	-5.848	2.391	20.989	1502.564	1499.634	1496.703	-0.229	-0.779	-7.527	-0.459	-1.301	-9.416
116255.005	NaN	-6.000	2.326	20.924	1503.297	1501.099	1495.238	0.031	-0.656	-7.527	-0.612	-1.378	-9.569
116255.981	NaN	-5.783	2.315	20.946	1503.297	1498.901	1495.238	0.244	-0.702	-7.573	-0.306	-1.225	-9.493
116256.958	NaN	-5.946	2.359	20.783	1504.762	1500.366	1496.703	0.137	-0.641	-7.710	-0.383	-1.225	-9.340
116257.935	NaN	-6.043	2.424	21.141	1503.297	1500.366	1494.505	-0.046	-0.763	-7.695	-0.459	-1.148	-9.340
116258.911	NaN	-5.772	2.489	21.022	1502.564	1499.634	1496.703	-0.092	-0.748	-7.634	-0.612	-1.531	-9.646
116259.888	NaN	-5.848	2.446	20.935	1504.029	1500.366	1495.971	0.046	-0.779	-7.756	-0.153	-1.225	-9.187
116260.864	NaN	-5.891	2.359	20.978	1502.564	1500.366	1495.238	0.015	-0.702	-7.863	-0.536	-1.225	-9.493
116261.841	NaN	-5.750	2.315	20.946	1504.029	1501.099	1495.971	-0.168	-0.702	-7.588	-0.153	-1.225	-9.263
116262.817	NaN	-6.043	2.391	20.957	1503.297	1500.366	1494.505	-0.214	-0.641	-7.511	-0.459	-1.072	-9.340
116263.794	NaN	-5.870	2.467	20.989	1504.762	1500.366	1495.971	-0.015	-0.427	-7.435	-0.306	-1.455	-9.416
116264.771	NaN	-5.978	2.402	21.033	1503.297	1500.366	1494.505	0.107	-0.489	-7.542	-0.536	-1.072	-9.416
116265.747	NaN	-5.957	2.413	20.978	1501.099	1499.634	1495.971	0.092	-0.641	-7.695	-0.306	-1.378	-9.416
116266.724	NaN	-5.761	2.370	20.848	1504.029	1501.099	1495.971	0.229	-0.687	-7.664	-0.306	-1.225	-9.493
116267.700	NaN	-6.022	2.272	20.913	1504.029	1501.099	1494.505	-0.153	-0.748	-7.466	-0.459	-0.919	-9.416
116268.677	NaN	-5.728	2.304	21.033	1503.297	1499.634	1495.971	-0.092	-0.687	-7.496	-0.230	-1.455	-9.416
116269.653	NaN	-6.098	2.402	20.848	1503.297	1499.634	1496.703	0.000	-0.763	-7.679	-0.536	-1.072	-9.340
116270.630	NaN	-5.989	2.424	21.130	1502.564	1500.366	1493.773	0.015	-0.733	-7.710	-0.383	-1.378	-9.493
116271.606	NaN	-5.739	2.424	21.022	1503.297	1498.901	1495.238	0.046	-0.626	-7.496	-0.459	-1.531	-9.493
116272.583	NaN	-5.880	2.402	20.957	1504.762	1501.099	1495.971	-0.015	-0.733	-7.420	-0.306	-1.225	-9.493
116273.560	NaN	-5.848	2.359	20.902	1501.832	1499.634	1495.971	-0.107	-0.687	-7.481	-0.536	-1.225	-9.646
116274.536	NaN	-5.935	2.359	21.022	1504.762	1500.366	1496.703	0.015	-0.718	-7.374	-0.459	-1.148	-9.416
116275.513	NaN	-6.011	2.424	21.033	1504.029	1500.366	1495.238	0.000	-0.611	-7.206	-0.306	-1.301	-9.263
116276.489	NaN	-5.859	2.478	21.054	1503.297	1500.366	1493.773	0.046	-0.687	-7.267	-0.153	-1.148	-9.340
116277.466	NaN	-6.065	2.402	21.120	1504.029	1501.099	1495.971	0.092	-0.763	-7.389	-0.612	-1.225	-9.493
116278.442	NaN	-5.804	2.370	21.033	1503.297	1499.634	1494.505	0.153	-0.595	-7.344	-0.230	-1.301	-9.416
116279.419	NaN	-5.772	2.304	20.935	1504.762	1500.366	1495.971	0.122	-0.687	-7.435	-0.153	-1.072	-9.493
116280.396	NaN	-6.076	2.293	20.946	1503.297	1500.366	1495.238	0.092	-0.641	-7.557	-0.612	-1.378	-9.416
116281.372	NaN	-5.761	2.380	21.033	1503.297	1499.634	1496.703	-0.031	-0.672	-7.634	-0.612	-1.148	-9.416
116282.349	NaN	-6.163	2.435	20.989	1503.297	1500.366	1495.971	0.061	-0.702	-7.695	-0.536	-1.225	-9.416
116283.325	NaN	-5.880	2.402	21.120	1504.029	1500.366	1494.505	-0.137	-0.397	-7.359	-0.459	-1.378	-9.493
116284.302	NaN	-5.793	2.370	20.978	1503.297	1500.366	1495.238	-0.229	-0.458	-7.328	-0.383	-1.072	-9.416
116285.278	NaN	-5.793	2.348	21.011	1503.297	1500.366	1495.238	-0.107	-0.519	-7.649	-0.153	-1.531	-9.263
116286.255	NaN	-5.772	2.315	20.848	1502.564	1500.366	1494.505	0.000	-0.458	-7.664	-0.536	-1.072	-9.110
116287.231	NaN	-6.000	2.348	21.011	1503.297	1500.366	1494.505	0.031	-0.611	-7.527	-0.306	-1.225	-9.263
116288.208	NaN	-5.902	2.424	21.043	1502.564	1499.634	1496.703	-0.046	-0.550	-7.481	-0.459	-1.455	-9.416
116289.185	NaN	-5.859	2.467	21.120	1501.832	1499.634	1496.703	0.061	-0.412	-7.557	-0.383	-0.842	-9.416
116290.161	NaN	-5.946	2.370	21.065	1503.297	1501.099	1495.238	0.183	-0.336	-7.649	-0.536	-1.301	-9.416
116291.138	NaN	-5.663	2.337	21.054	1502.564	1499.634	1495.238	0.076	-0.397	-7.649	-0.612	-1.225	-9.187
116292.114	NaN	-5.848	2.337	21.022	1503.297	1500.366	1495.971	-0.031	-0.397	-7.573	-0.306	-1.225	-9.187
116293.091	NaN	-5.967	2.359	21.033	1503.297	1498.901	1497.436	0.137	-0.351	-7.496	-0.306	-1.072	-9.187
116294.067	NaN	-5.859	2.402	21.109	1504.029	1499.634	1495.971	0.076	-0.321	-7.527	-0.459	-1.225	-9.340
116295.044	NaN	-6.065	2.424	21.065	1504.762	1500.366	1495.238	-0.076	-0.275	-7.634	-0.383	-1.378	-9.340
116296.021	NaN	-5.783	2.370	21.120	1502.564	1500.366	1493.773	-0.092	-0.321	-7.649	-0.459	-1.225	-9.187
116296.997	NaN	-5.935	2.283	20.967	1503.297	1501.099	1495.238	-0.031	-0.275	-7.344	-0.766	-1.455	-9.493
116297.974	NaN	-5.772	2.272	21.022	1504.029	1500.366	1493.773	0.046	-0.351	-7.328	-0.459	-1.072	-9.416
116298.950	NaN	-5.935	2.293	20.880	1503.297	1499.634	1495.971	0.046	-0.458	-7.542	-0.612	-1.225	-9.416
116299.927	NaN	-6.065	2.370	21.163	1503.297	1500.366	1495.238	0.061	-0.412	-7.695	-0.536	-1.301	-9.493
116300.903	NaN	-5.804	2.424	21.217	1503.297	1499.634	1495.971	0.076	-0.260	-7.542	-0.306	-0.995	-9.340
116301.880	NaN	-5.815	2.457	21.141	1504.029	1501.832	1495.971	0.198	-0.290	-7.710	-0.383	-1.455	-9.340
116302.856	NaN	-5.935	2.348	21.000	1503.297	1500.366	1494.505	0.107	-0.366	-7.603	-0.459	-1.072	-9.569
116303.833	NaN	-5.761	2.337	21.033	1501.832	1499.634	1495.971	0.031	-0.366	-7.374	-0.306	-1.301	-9.416
116304.810	NaN	-5.978	2.370	21.054	1504.029	1500.366	1495.971	-0.015	-0.382	-7.496	-0.383	-1.378	-9.263
116305.786	NaN	-5.967	2.391	21.163	1503.297	1500.366	1495.971	0.015	-0.458	-7.649	-0.306	-0.995	-9.340
116306.763	NaN	-5.967	2.478	21.120	1502.564	1500.366	1496.703	0.260	-0.504	-7.649	-0.689	-1.378	-9.493
116307.739	NaN	-6.109	2.467	21.076	1504.029	1500.366	1495.238	0.260	-0.458	-7.634	-0.612	-1.148	-9.187
116308.716	NaN	-5.761	2.402	21.054	1502.564	1500.366	1495.238	0.137	-0.244	-7.481	-0.459	-1.531	-9.493
116309.692	NaN	-5.913	2.315	20.978	1503.297	1500.366	1495.238	0.015	-0.336	-7.374	-0.459	-1.455	-9.263
116310.669	NaN	-5.685	2.304	20.946	1503.297	1500.366	1496.703	-0.031	-0.504	-7.374	-0.383	-1.378	-9.416
116311.646	NaN	-6.000	2.370	20.870	1504.029	1499.634	1495.971	-0.168	-0.458	-7.588	-0.459	-1.455	-9.263
116312.622	NaN	-6.076	2.424	21.120	1504.029	1501.099	1494.505	-0.031	-0.473	-7.740	-0.459	-1.072	-9.187
116313.599	NaN	-5.880	2.446	21.130	1503.297	1498.901	1494.505	-0.015	-0.473	-7.603	-0.612	-1.455	-9.416
116314.575	NaN	-5.848	2.413	21.043	1504.029	1500.366	1494.505	-0.061	-0.321	-7.405	-0.230	-0.919	-9.263
116315.552	NaN	-5.902	2.326	20.978	1503.297	1500.366	1495.238	-0.046	-0.244	-7.603	-0.536	-1.455	-9.493
116316.528	NaN	-5.848	2.261	21.054	1502.564	1499.634	1495.971	-0.214	-0.260	-7.634	-0.612	-0.077	-9.263
116317.505	3731584037.801	-6.022	2.348	21.087	1504.762	1499.634	1495.971	-0.214	-0.382	-7.649	-0.383	-0.995	-9.263
116318.481	NaN	-5.902	2.424	21.174	1503.297	1500.366	1495.238	-0.382	-0.412	-7.573	-0.306	-1.301	-9.263
116319.458	NaN	-6.033	2.467	21.163	1503.297	1500.366	1495.971	-0.061	-0.458	-7.435	-0.689	-1.072	-9.340
116320.435	NaN	-5.957	2.446	21.076	1502.564	1501.099	1495.971	-0.107	-0.321	-7.573	-0.153	-1.301	-9.263
116321.411	NaN	-5.728	2.326	20.989	1504.029	1500.366	1495.238	-0.198	-0.290	-7.756	-0.383	-1.378	-9.416
116322.388	NaN	-6.054	2.272	21.033	1503.297	1500.366	1495.238	0.031	-0.214	-7.725	-0.459	-1.148	-9.340
116323.364	NaN	-5.739	2.293	21.109	1504.029	1500.366	1494.505	-0.031	-0.183	-7.466	-0.536	-1.455	-9.416
116324.341	NaN	-6.163	2.359	21.065	1503.297	1500.366	1495.238	-0.168	-0.305	-7.298	-0.612	-1.072	-9.340
116325.317	NaN	-5.989	2.435	21.239	1503.297	1500.366	1495.238	-0.275	-0.214	-7.466	-0.459	-1.378	-9.493
116326.294	NaN	-5.815	2.380	21.130	1502.564	1501.099	1495.971	-0.305	-0.183	-7.481	-0.536	-1.301	-9.493
116327.271	NaN	-5.913	2.315	21.087	1502.564	1499.634	1495.238	-0.275	-0.244	-7.496	-0.383	-1.378	-9.340
116328.247	NaN	-5.793	2.283	20.946	1504.762	1500.366	1495.971	-0.061	-0.122	-7.420	-0.536	-1.301	-9.722
116329.224	NaN	-5.913	2.304	21.098	1503.297	1501.099	1495.971	0.046	-0.076	-7.389	-0.459	-1.148	-9.187
116330.200	NaN	-5.967	2.380	21.109	1504.029	1500.366	1495.971	-0.137	-0.168	-7.282	-0.612	-1.301	-9.493
116331.177	NaN	-5.793	2.424	21.130	1503.297	1501.099	1497.436	-0.275	-0.076	-7.405	-0.230	-1.148	-9.263
116332.153	NaN	-6.054	2.402	21.043	1504.029	1501.099	1495.971	-0.336	-0.061	-7.542	-0.536	-1.378	-9.263
116333.130	NaN	-5.783	2.359	21.011	1503.297	1499.634	1495.971	-0.153	-0.076	-7.557	-0.230	-1.301	-9.263
116334.106	NaN	-5.804	2.261	21.011	1502.564	1498.901	1495.971	-0.183	-0.260	-7.450	-0.383	-1.301	-9.187
116335.083	NaN	-6.022	2.261	20.989	1504.029	1500.366	1495.971	-0.153	-0.305	-7.511	-0.689	-1.301	-9.493
116336.060	NaN	-5.804	2.315	21.076	1503.297	1500.366	1496.703	-0.336	-0.214	-7.573	-0.689	-1.148	-9.263
116337.036	NaN	-6.217	2.391	21.098	1503.297	1501.832	1496.703	-0.321	-0.305	-7.603	-0.230	-1.378	-9.263
116338.013	NaN	-5.913	2.391	21.120	1504.029	1500.366	1495.238	0.015	-0.137	-7.496	-0.459	-1.301	-9.493
116338.989	NaN	-5.902	2.359	20.989	1504.029	1499.634	1497.436	-0.061	-0.031	-7.511	-0.612	-1.301	-9.263
116339.966	NaN	-5.826	2.304	20.967	1503.297	1501.099	1495.971	-0.198	-0.107	-7.496	-0.230	-1.378	-9.493
116340.942	NaN	-5.913	2.304	20.728	1504.029	1501.099	1496.703	-0.366	0.000	-7.435	-0.536	-1.072	-9.263
116341.919	NaN	-6.022	2.370	21.033	1504.029	1500.366	1495.971	-0.351	-0.076	-7.450	-0.383	-1.455	-9.110
116342.896	NaN	-5.880	2.446	21.087	1504.029	1500.366	1496.703	-0.351	-0.046	-7.557	-0.306	-1.301	-9.416
116343.872	NaN	-5.804	2.467	21.043	1503.297	1501.099	1495.971	-0.244	0.076	-7.679	-0.383	-1.455	-9.569
116344.849	NaN	-5.967	2.413	21.043	1503.297	1500.366	1495.971	-0.275	0.198	-7.389	-0.612	-1.301	-9.416
116345.825	NaN	-5.750	2.370	21.130	1503.297	1501.099	1495.971	-0.214	0.107	-7.130	-0.612	-1.455	-9.340
116346.802	NaN	-5.946	2.391	20.967	1503.297	1500.366	1495.238	-0.244	-0.061	-7.359	-0.306	-1.301	-9.340
116347.778	NaN	-5.946	2.370	20.924	1501.832	1500.366	1495.971	-0.351	0.046	-7.634	-0.230	-1.148	-9.340
116348.755	NaN	-5.967	2.391	20.924	1502.564	1500.366	1495.238	-0.321	0.137	-7.634	-0.459	-1.225	-9.340
116349.731	NaN	-6.130	2.391	20.870	1502.564	1501.099	1495.238	0.000	0.122	-7.481	-0.306	-1.148	-9.340
116350.708	NaN	-5.804	2.337	20.870	1504.029	1501.099	1496.703	-0.122	0.061	-7.542	-0.383	-1.225	-9.340
116351.685	NaN	-6.076	2.272	20.870	1503.297	1500.366	1495.971	-0.229	0.031	-7.634	-0.689	-1.301	-9.416
116352.661	NaN	-5.772	2.315	20.924	1503.297	1500.366	1495.971	-0.305	0.061	-7.496	-0.612	-1.148	-9.493
116353.638	NaN	-6.109	2.380	20.750	1503.297	1500.366	1495.971	-0.275	0.092	-7.511	-0.612	-1.225	-9.569
116354.614	NaN	-6.130	2.413	20.967	1503.297	1500.366	1495.238	-0.366	0.275	-7.420	-0.383	-1.531	-9.646
116355.591	NaN	-5.783	2.402	20.946	1504.029	1501.099	1497.436	-0.305	0.382	-7.313	-0.459	-1.072	-9.416
116356.567	NaN	-5.924	2.348	20.848	1504.029	1501.099	1495.971	-0.427	0.214	-7.298	-0.230	-1.301	-9.340
116357.544	NaN	-5.924	2.348	20.793	1502.564	1500.366	1495.238	-0.336	0.092	-7.588	-0.689	-1.148	-9.340
116358.521	NaN	-5.913	2.283	20.870	1502.564	1500.366	1494.505	-0.198	0.092	-7.435	-0.383	-1.225	-9.340
116359.497	NaN	-5.967	2.370	20.967	1501.832	1498.901	1495.238	-0.183	0.229	-7.221	-0.536	-1.301	-9.493
116360.474	NaN	-5.870	2.435	20.957	1504.029	1499.634	1496.703	-0.305	0.290	-7.298	-0.306	-0.995	-9.416
116361.450	NaN	-6.076	2.370	20.913	1504.029	1501.099	1494.505	-0.473	0.290	-7.389	-0.459	-1.455	-9.722
116362.427	NaN	-5.826	2.359	20.935	1503.297	1500.366	1496.703	-0.443	0.534	-7.481	-0.459	-1.148	-9.340
116363.403	NaN	-5.804	2.304	20.837	1504.029	1500.366	1493.773	-0.351	0.580	-7.435	-0.383	-1.225	-9.340
116364.380	NaN	-6.065	2.283	20.837	1503.297	1501.099	1496.703	-0.229	0.321	-7.405	-0.383	-1.148	-9.263
116365.356	NaN	-5.793	2.337	20.946	1504.029	1500.366	1495.971	-0.168	0.458	-7.527	-0.459	-1.301	-9.416
116366.333	NaN	-6.196	2.337	20.793	1504.029	1501.099	1495.971	-0.458	0.427	-7.649	-0.306	-1.378	-9.340
116367.310	NaN	-6.000	2.370	20.913	1504.029	1500.366	1494.505	-0.489	0.244	-7.496	-0.612	-1.301	-9.340
116368.286	NaN	-5.848	2.304	20.815	1502.564	1501.099	1495.971	-0.412	0.198	-7.435	-0.612	-1.455	-9.569
116369.263	NaN	-5.859	2.326	20.880	1504.029	1499.634	1496.703	-0.595	0.214	-7.450	-0.153	-1.301	-9.416
116370.239	NaN	-5.880	2.348	20.804	1502.564	1500.366	1494.505	-0.763	0.290	-7.359	-0.536	-1.225	-9.416
116371.216	NaN	-6.043	2.380	20.935	1502.564	1500.366	1495.971	-0.641	0.305	-7.374	-0.612	-1.378	-9.493
116372.192	NaN	-5.989	2.457	21.087	1503.297	1500.366	1495.238	-0.565	0.382	-7.481	-0.536	-1.072	-9.187
116373.169	NaN	-5.902	2.489	20.967	1504.762	1501.099	1495.971	-0.580	0.366	-7.450	-0.383	-1.531	-9.340
116374.146	NaN	-6.076	2.380	20.946	1504.029	1500.366	1495.238	-0.427	0.443	-7.359	-0.766	-1.148	-9.569
116375.122	NaN	-5.739	2.337	20.946	1502.564	1499.634	1496.703	-0.595	0.473	-7.405	-0.383	-1.301	-9.340
116376.099	NaN	-5.946	2.293	20.902	1502.564	1500.366	1495.971	-0.870	0.275	-7.557	-0.383	-1.531	-9.569
116377.075	NaN	-6.054	2.304	20.891	1504.029	1501.099	1495.971	-0.840	0.305	-7.496	-0.306	-0.995	-9.340
116378.052	NaN	-5.870	2.359	21.000	1504.762	1501.099	1495.971	-0.672	0.412	-7.405	-0.612	-1.301	-9.493
116379.028	NaN	-6.141	2.391	21.000	1503.297	1501.099	1496.703	-0.473	0.718	-7.374	-0.459	-1.225	-9.416
116380.005	NaN	-5.848	2.359	21.033	1502.564	1500.366	1495.238	-0.382	0.626	-7.435	-0.306	-1.148	-9.340
116380.981	NaN	-5.967	2.272	21.011	1503.297	1500.366	1495.238	-0.275	0.351	-7.527	-0.536	-1.531	-9.569
116381.958	NaN	-5.859	2.293	21.022	1504.762	1501.099	1496.703	-0.382	0.305	-7.481	-0.536	-1.301	-9.416
116382.935	NaN	-6.000	2.348	20.826	1502.564	1501.099	1497.436	-0.290	0.412	-7.603	-0.536	-1.378	-9.416
116383.911	NaN	-6.141	2.391	21.098	1503.297	1500.366	1495.971	-0.489	0.458	-7.511	-0.536	-1.072	-9.263
116384.888	NaN	-5.848	2.446	21.141	1501.832	1500.366	1494.505	-0.656	0.580	-7.298	-0.612	-1.455	-9.493
116385.864	NaN	-5.957	2.391	20.902	1504.029	1500.366	1496.703	-0.611	0.641	-7.237	-0.459	-1.378	-9.493
116386.841	NaN	-5.935	2.337	21.141	1504.029	1501.099	1495.238	-0.595	0.702	-7.298	-0.306	-1.225	-9.340
116387.817	NaN	-5.946	2.283	21.109	1502.564	1501.099	1495.971	-0.611	0.473	-7.237	-0.536	-1.455	-9.340
116388.794	NaN	-5.870	2.261	20.989	1503.297	1499.634	1496.703	-0.687	0.290	-7.328	-0.306	-1.225	-9.263
116389.771	NaN	-5.859	2.348	20.989	1503.297	1501.099	1495.971	-0.809	0.595	-7.466	-0.459	-1.301	-9.340
116390.747	NaN	-6.174	2.326	21.022	1503.297	1501.099	1495.971	-0.885	0.656	-7.466	-0.536	-1.301	-9.340
116391.724	NaN	-5.848	2.370	21.185	1502.564	1501.099	1494.505	-0.855	0.611	-7.344	-0.459	-1.148	-9.263
116392.700	NaN	-6.000	2.359	21.098	1502.564	1499.634	1495.971	-0.763	0.702	-7.328	-0.612	-1.225	-9.340
116393.677	NaN	-5.859	2.326	21.196	1503.297	1500.366	1495.971	-0.656	0.748	-7.298	-0.536	-1.225	-9.416
116394.653	NaN	-6.000	2.359	21.043	1504.029	1500.366	1495.971	-0.794	0.733	-7.374	-0.383	-1.072	-9.263
116395.630	NaN	-6.054	2.391	21.120	1503.297	1499.634	1495.238	-0.763	0.718	-7.527	-0.536	-1.148	-9.340
116396.606	NaN	-5.891	2.424	21.228	1503.297	1500.366	1494.505	-0.733	0.626	-7.450	-0.383	-2.297	-9.263
116397.583	NaN	-5.924	2.402	21.207	1503.297	1500.366	1495.238	-0.779	0.779	-7.450	-0.230	-1.455	-9.263
116398.560	NaN	-5.924	2.315	20.989	1502.564	1500.366	1495.238	-0.885	0.840	-7.542	-0.536	-1.148	-9.263
116399.536	NaN	-5.761	2.261	21.076	1504.029	1500.366	1494.505	-0.931	0.779	-7.450	-0.306	-1.301	-9.263
116400.513	NaN	-6.065	2.283	21.196	1501.832	1500.366	1495.971	-0.840	0.672	-7.450	-0.459	-0.995	-9.187
116401.489	NaN	-5.967	2.326	21.174	1503.297	1500.366	1495.238	-0.443	0.763	-7.328	-0.459	-1.148	-9.416
116402.466	NaN	-6.022	2.370	21.293	1503.297	1499.634	1495.238	-0.794	0.855	-7.389	-0.689	-1.225	-9.569
116403.442	NaN	-5.957	2.413	21.217	1502.564	1500.366	1495.238	-1.053	0.656	-7.389	-0.383	-1.301	-9.033
116404.419	NaN	-5.739	2.359	21.076	1503.297	1500.366	1495.238	-1.038	0.687	-7.298	-0.306	-1.455	-9.263
116405.396	NaN	-6.011	2.261	21.043	1501.832	1500.366	1495.238	-0.901	0.855	-7.191	-0.306	-0.919	-9.263
116406.372	NaN	-5.859	2.261	21.043	1504.762	1500.366	1495.971	-0.748	0.885	-7.145	-0.459	-1.301	-9.263
116407.349	NaN	-5.924	2.337	21.054	1503.297	1500.366	1495.971	-0.656	0.718	-7.053	-0.153	-1.148	-9.263
116408.325	NaN	-6.283	2.348	20.913	1503.297	1500.366	1494.505	-0.992	0.733	-7.466	-1.072	-1.148	-9.340
116409.302	NaN	-5.717	2.315	21.337	1503.297	1501.099	1495.971	-0.992	0.947	-7.557	-0.383	-1.531	-9.187
116410.278	NaN	-5.957	2.348	21.043	1503.297	1500.366	1495.238	-0.809	0.763	-7.450	-0.306	-1.225	-9.110
116411.255	NaN	-5.728	2.337	21.043	1504.029	1500.366	1494.505	-1.115	0.916	-7.313	-0.689	-1.301	-9.187
116412.231	NaN	-6.043	2.326	21.217	1504.029	1500.366	1494.505	-1.053	0.977	-7.344	-0.536	-1.378	-9.416
116413.208	NaN	-5.880	2.413	21.196	1504.762	1501.099	1495.971	-0.550	0.992	-7.221	-0.306	-1.072	-9.263
116414.185	NaN	-5.891	2.446	21.054	1504.029	1499.634	1495.971	-0.565	0.916	-7.313	-0.153	-1.378	-9.110
116415.161	NaN	-5.989	2.359	21.261	1503.297	1499.634	1495.971	-0.733	0.824	-7.481	-0.536	-1.148	-9.263
116416.138	NaN	-5.717	2.370	21.207	1503.297	1500.366	1496.703	-0.916	0.840	-7.405	-0.230	-1.378	-9.187
116417.114	NaN	-5.848	2.337	20.967	1503.297	1498.901	1495.238	-0.962	0.931	-7.435	-0.230	-1.225	-9.416
116418.091	NaN	-6.011	2.326	21.054	1503.297	1500.366	1495.238	-0.885	1.008	-7.466	-0.536	-1.072	-9.187
116419.067	NaN	-5.870	2.402	21.087	1504.762	1500.366	1495.971	-0.794	1.130	-7.557	-0.612	-1.225	-9.340
116420.044	NaN	-6.163	2.402	21.087	1502.564	1501.099	1494.505	-0.870	1.053	-7.573	-0.536	-1.148	-9.416
116421.021	NaN	-5.913	2.391	21.120	1503.297	1500.366	1496.703	-0.916	0.931	-7.527	-0.383	-1.378	-9.340
116421.997	NaN	-5.837	2.293	21.065	1504.029	1501.832	1495.971	-1.008	0.840	-7.420	-0.459	-1.531	-9.493
116422.974	NaN	-5.891	2.304	20.989	1504.762	1500.366	1495.238	-1.023	0.992	-7.603	-0.459	-1.455	-9.340
116423.950	NaN	-5.924	2.304	20.880	1503.297	1499.634	1494.505	-0.931	1.038	-7.298	-0.459	-1.301	-9.263
116424.927	NaN	-6.054	2.380	21.130	1504.029	1500.366	1495.238	-1.038	1.023	-7.130	-0.612	-1.225	-9.340
116425.903	NaN	-5.837	2.446	21.087	1504.029	1499.634	1495.238	-0.977	1.023	-7.221	-0.536	-1.378	-9.569
116426.880	NaN	-5.793	2.446	21.054	1502.564	1500.366	1495.971	-1.420	1.206	-7.481	-0.306	-1.072	-9.187
116427.856	NaN	-5.913	2.370	21.141	1502.564	1500.366	1493.773	-1.313	1.084	-7.374	-0.612	-1.301	-9.416
116428.833	NaN	-5.696	2.348	21.011	1503.297	1500.366	1495.971	-1.237	0.931	-7.221	-0.153	-1.455	-9.187
116429.810	NaN	-6.000	2.359	20.870	1504.029	1500.366	1495.971	-1.160	0.977	-7.252	-0.306	-1.148	-9.340
116430.786	NaN	-5.967	2.380	20.989	1505.495	1500.366	1495.971	-0.931	1.069	-7.252	-0.230	-1.301	-9.263
116431.763	NaN	-5.935	2.424	21.043	1502.564	1500.366	1495.971	-1.038	1.115	-7.435	-0.689	-1.148	-9.263
116432.739	NaN	-6.087	2.413	21.000	1502.564	1501.099	1495.971	-1.191	1.115	-7.328	-0.306	-1.378	-9.416
116433.716	NaN	-5.815	2.348	20.891	1504.029	1500.366	1495.238	-1.389	0.992	-7.328	-0.383	-1.301	-9.416
116434.692	NaN	-6.033	2.239	20.837	1504.029	1499.634	1495.971	-1.344	0.916	-7.573	-0.459	-1.072	-9.416
116435.669	NaN	-5.783	2.272	20.891	1503.297	1500.366	1495.971	-1.328	1.069	-7.298	-0.230	-1.531	-9.416
116436.646	NaN	-6.033	2.348	20.739	1504.029	1500.366	1495.971	-1.221	1.160	-7.313	-0.766	-1.072	-9.493
116437.622	NaN	-6.098	2.391	21.065	1504.029	1500.366	1496.703	-1.130	1.099	-7.481	-0.383	-1.378	-9.493
116438.599	NaN	-5.848	2.380	21.022	1503.297	1500.366	1497.436	-1.130	1.008	-7.405	-0.536	-1.378	-9.493
116439.575	NaN	-5.891	2.391	20.967	1504.029	1499.634	1496.703	-1.252	0.870	-7.145	-0.306	-1.378	-9.569
116440.552	NaN	-5.880	2.293	20.826	1504.762	1501.099	1495.971	-1.450	0.824	-7.160	-0.536	-1.531	-9.493
116441.528	NaN	-5.837	2.283	20.924	1502.564	1501.099	1495.971	-1.664	0.931	-7.221	-0.383	-1.148	-9.340
116442.505	NaN	-5.957	2.337	20.870	1504.029	1499.634	1495.238	-1.588	0.901	-7.176	-0.383	-1.225	-9.416
116443.481	NaN	-5.924	2.413	20.880	1504.029	1500.366	1495.238	-1.328	0.977	-7.206	-0.230	-1.072	-9.263
116445.435	NaN	-6.043	2.446	20.946	1503.297	1501.099	1495.971	-1.206	1.008	-7.527	-0.459	-1.455	-9.493
116446.411	NaN	-5.772	2.315	20.848	1503.297	1500.366	1494.505	-1.359	1.069	-7.511	-0.306	-1.225	-9.416
116447.388	NaN	-5.978	2.217	20.739	1502.564	1501.099	1495.971	-1.420	1.069	-7.359	-0.612	-1.608	-9.799
116448.364	NaN	-5.674	2.250	20.739	1504.029	1500.366	1495.238	-1.435	1.145	-7.298	-0.536	-1.225	-9.493
116449.341	NaN	-6.109	2.337	20.772	1505.495	1500.366	1495.971	-1.557	1.008	-7.450	-0.536	-1.301	-9.416
116450.317	NaN	-6.033	2.402	21.120	1504.029	1501.099	1495.238	-1.603	0.947	-7.282	-0.383	-1.225	-9.340
116451.294	NaN	-5.804	2.435	21.011	1504.029	1501.099	1495.238	-1.328	1.069	-7.145	-0.459	-1.531	-9.646
116452.271	NaN	-5.793	2.402	20.935	1504.029	1500.366	1495.971	-1.221	1.130	-7.206	-0.077	-1.301	-9.416
116453.247	NaN	-5.750	2.293	20.728	1504.029	1500.366	1495.971	-1.389	1.023	-7.435	-0.536	-1.225	-9.263
116454.224	NaN	-5.848	2.272	20.826	1503.297	1501.099	1496.703	-1.695	1.053	-7.496	-0.153	-1.455	-9.340
116455.200	NaN	-5.891	2.348	20.870	1502.564	1500.366	1493.773	-1.618	1.237	-7.466	-0.383	-1.072	-9.340
116456.177	NaN	-5.880	2.424	20.837	1504.762	1500.366	1496.703	-1.542	1.267	-7.374	-0.536	-1.148	-9.493
116457.153	NaN	-6.033	2.402	20.967	1503.297	1500.366	1495.238	-1.435	1.069	-7.511	-0.612	-1.301	-9.569
116458.130	NaN	-5.815	2.380	20.913	1501.832	1500.366	1495.971	-1.466	1.115	-7.389	-0.459	-1.378	-9.493
116459.106	NaN	-5.739	2.239	20.783	1502.564	1499.634	1495.238	-1.450	1.237	-7.221	-0.383	-1.455	-9.416
116460.083	NaN	-5.989	2.239	20.739	1504.029	1501.099	1496.703	-1.588	1.267	-7.237	-0.383	-0.995	-9.340
116461.060	NaN	-5.750	2.283	20.859	1503.297	1500.366	1495.238	-1.481	1.313	-7.374	-0.230	-1.455	-9.569
116462.036	NaN	-6.196	2.370	20.837	1503.297	1501.099	1495.238	-1.344	1.084	-7.267	-0.383	-1.225	-9.416
116463.013	NaN	-5.978	2.391	20.967	1504.029	1501.099	1495.238	-1.237	0.916	-7.313	-0.459	-1.148	-9.416
116463.989	NaN	-5.859	2.348	20.848	1503.297	1499.634	1495.971	-1.176	1.069	-7.237	-0.612	-1.455	-9.722
116464.966	NaN	-5.848	2.293	20.815	1503.297	1500.366	1495.238	-1.344	1.176	-7.160	-0.612	-1.301	-9.493
116465.942	3731584037.967	-5.913	2.272	20.685	1504.029	1500.366	1495.238	-1.435	1.084	-7.023	-0.459	-1.531	-9.569
116466.919	NaN	-6.109	2.304	20.913	1503.297	1501.099	1495.971	-1.267	0.901	-7.069	-0.536	-1.225	-9.569
116467.896	NaN	-5.902	2.326	20.880	1502.564	1500.366	1496.703	-1.252	0.931	-7.359	-0.383	-1.225	-9.493
116468.872	NaN	-5.815	2.380	20.891	1502.564	1501.099	1495.238	-1.313	1.008	-7.298	-0.383	-1.455	-9.340
116469.849	NaN	-5.935	2.348	20.946	1501.832	1500.366	1495.971	-1.389	0.962	-7.237	-0.612	-1.148	-9.493
116470.825	NaN	-5.728	2.337	21.011	1503.297	1500.366	1495.238	-1.557	1.038	-7.221	-0.230	-1.301	-9.340
116471.802	NaN	-5.924	2.337	20.924	1503.297	1501.832	1495.238	-1.679	1.053	-7.069	-0.383	-1.301	-9.263
116472.778	NaN	-5.935	2.391	20.935	1503.297	1501.099	1495.238	-1.420	1.115	-7.069	-0.306	-0.919	-9.340
116473.755	NaN	-5.837	2.391	21.022	1504.029	1500.366	1495.971	-1.267	1.160	-7.069	-0.536	-1.378	-9.646
116474.731	NaN	-6.033	2.391	20.957	1503.297	1500.366	1494.505	-1.374	1.221	-7.328	-0.612	-1.301	-9.493
116475.708	NaN	-5.761	2.315	21.000	1504.762	1500.366	1495.238	-1.527	0.962	-7.511	-0.383	-1.225	-9.340
116476.685	NaN	-5.978	2.261	20.946	1503.297	1500.366	1496.703	-1.282	0.931	-7.359	-0.459	-0.306	-9.263
116477.661	NaN	-5.761	2.272	20.989	1503.297	1500.366	1495.238	-1.359	1.130	-7.191	-0.230	-1.378	-9.263
116478.638	NaN	-5.978	2.359	20.837	1503.297	1500.366	1495.238	-1.344	1.267	-7.221	-0.459	-1.225	-9.340
116479.614	NaN	-6.109	2.380	21.163	1504.029	1500.366	1494.505	-1.206	1.176	-7.206	-0.536	-1.148	-9.340
116480.591	NaN	-5.815	2.424	21.163	1504.029	1500.366	1495.971	-1.145	1.191	-7.221	-0.612	-1.455	-9.340
116481.567	NaN	-5.870	2.424	21.163	1501.832	1501.099	1496.703	-1.221	1.160	-7.267	-0.153	-1.148	-9.263
116482.544	NaN	-5.837	2.326	21.043	1503.297	1500.366	1494.505	-1.389	1.206	-7.344	-0.536	-1.378	-9.493
116483.521	NaN	-5.761	2.283	21.076	1504.029	1500.366	1496.703	-1.603	1.221	-7.130	-0.536	-1.301	-9.263
116484.497	NaN	-5.957	2.337	21.076	1504.029	1500.366	1495.971	-1.603	1.053	-7.115	-0.383	-1.072	-9.033
116485.474	NaN	-5.870	2.413	21.076	1504.762	1499.634	1495.971	-1.527	0.840	-7.099	-0.230	-1.378	-9.263
116486.450	NaN	-5.989	2.424	21.261	1504.029	1501.099	1495.238	-1.435	1.053	-7.221	-0.536	-1.225	-9.416
116487.427	NaN	-5.989	2.424	21.141	1503.297	1500.366	1495.971	-1.557	1.282	-7.252	-0.383	-1.455	-9.416
116488.403	NaN	-5.728	2.304	21.130	1503.297	1500.366	1495.238	-1.740	1.359	-7.053	-0.383	-1.455	-9.263
116489.380	NaN	-6.011	2.239	21.065	1504.029	1501.832	1496.703	-1.664	1.344	-7.008	-0.459	-1.301	-9.493
116490.356	NaN	-5.685	2.283	21.043	1504.029	1500.366	1495.971	-1.527	1.206	-6.977	-0.689	-1.072	-9.416
116491.333	NaN	-6.087	2.359	20.978	1504.029	1501.099	1496.703	-1.557	1.221	-7.176	-0.459	-0.995	-9.187
116492.310	NaN	-6.033	2.424	21.228	1504.029	1501.099	1494.505	-1.481	1.344	-7.252	-0.306	-1.455	-9.263
116493.286	NaN	-5.859	2.467	21.228	1503.297	1501.099	1495.971	-1.435	1.176	-7.191	-0.459	-0.995	-9.263
116494.263	NaN	-5.891	2.435	21.196	1504.029	1501.099	1496.703	-1.511	1.115	-7.130	-0.153	-1.378	-9.263
116495.239	NaN	-5.859	2.337	20.978	1504.029	1501.099	1495.971	-1.725	1.115	-7.237	-0.766	-1.378	-9.416
116496.216	NaN	-5.793	2.283	21.065	1503.297	1501.099	1496.703	-1.649	0.931	-7.145	-0.383	-1.148	-9.340
116497.192	NaN	-5.989	2.370	21.130	1503.297	1500.366	1495.238	-1.511	0.992	-7.038	-0.612	-1.531	-9.416
116498.169	NaN	-5.804	2.446	21.141	1504.029	1500.366	1495.238	-1.573	1.130	-7.053	-0.306	-0.995	-9.033
116499.146	NaN	-6.011	2.424	21.185	1504.029	1501.099	1494.505	-1.359	1.237	-7.130	-0.536	-1.301	-9.569
116500.122	NaN	-5.793	2.413	21.196	1503.297	1501.099	1495.238	-1.344	1.389	-7.130	-0.383	-1.225	-9.340
116501.099	NaN	-5.707	2.304	21.000	1504.029	1500.366	1495.238	-1.389	1.267	-7.221	-0.459	-1.148	-9.340
116502.075	NaN	-6.022	2.261	21.011	1502.564	1500.366	1495.971	-1.420	1.237	-7.191	-0.536	-1.608	-9.416
116503.052	NaN	-5.685	2.348	21.163	1504.029	1501.099	1496.703	-1.405	1.252	-7.130	-0.612	-1.148	-9.263
116504.028	NaN	-6.120	2.402	21.043	1504.029	1501.099	1495.971	-1.298	1.237	-7.069	-0.306	-1.301	-9.493
116505.005	NaN	-5.967	2.424	21.120	1503.297	1500.366	1496.703	-1.374	1.328	-7.252	-0.612	-1.072	-9.340
116505.981	NaN	-5.783	2.380	21.098	1502.564	1501.099	1495.238	-1.405	1.420	-7.145	-0.612	-1.378	-9.493
116506.958	NaN	-5.880	2.370	21.109	1504.762	1501.099	1495.971	-1.389	1.389	-7.023	-0.230	-1.378	-9.263
116507.935	NaN	-5.837	2.326	20.967	1501.832	1501.832	1495.238	-1.374	1.252	-7.130	-0.612	-1.225	-9.340
116508.911	NaN	-5.957	2.315	21.141	1504.762	1500.366	1495.238	-1.573	0.962	-7.313	-0.306	-1.378	-9.187
116509.888	NaN	-5.891	2.380	21.120	1503.297	1500.366	1495.238	-1.450	1.008	-7.267	-0.459	-1.225	-9.263
116510.864	NaN	-5.837	2.402	21.087	1504.029	1500.366	1494.505	-1.389	1.115	-7.115	-0.383	-1.378	-9.340
116511.841	NaN	-6.043	2.380	21.098	1504.029	1501.099	1495.971	-1.405	1.099	-7.038	-0.612	-1.225	-9.416
116512.817	NaN	-5.761	2.391	21.120	1504.029	1500.366	1495.971	-1.252	1.191	-6.870	-0.383	-1.225	-9.340
116513.794	NaN	-5.793	2.359	21.011	1503.297	1500.366	1495.971	-1.099	1.374	-6.840	-0.383	-1.301	-9.340
116514.771	NaN	-6.043	2.337	21.000	1503.297	1501.099	1495.971	-1.191	1.313	-6.962	-0.383	-1.072	-9.340
116515.747	NaN	-5.772	2.413	21.033	1504.029	1501.099	1495.971	-1.374	1.176	-6.931	-0.383	-1.378	-9.416
116516.724	NaN	-6.130	2.424	20.946	1503.297	1501.099	1495.971	-1.511	1.145	-6.962	-0.383	-1.455	-9.187
116517.700	NaN	-5.902	2.380	21.141	1503.297	1501.099	1495.971	-1.374	1.221	-7.023	-0.459	-1.148	-9.263
116518.677	NaN	-5.913	2.315	20.957	1504.029	1500.366	1495.238	-1.130	1.191	-7.130	-0.612	-1.608	-9.416
116519.653	NaN	-5.783	2.315	20.978	1502.564	1500.366	1495.971	-1.282	1.237	-7.023	-0.383	-1.225	-9.340
116520.630	NaN	-5.848	2.326	20.870	1502.564	1501.099	1496.703	-1.344	1.282	-6.977	-0.612	-1.225	-9.493
116521.606	NaN	-6.022	2.359	21.152	1503.297	1500.366	1494.505	-1.435	1.084	-6.947	-0.536	-1.225	-9.340
116522.583	NaN	-5.837	2.424	21.109	1503.297	1500.366	1495.238	-1.145	0.992	-7.252	-0.383	-0.995	-9.493
116523.560	NaN	-5.815	2.457	21.076	1504.762	1500.366	1495.238	-0.977	0.977	-7.252	-0.077	-1.378	-9.493
116524.536	NaN	-5.913	2.359	20.978	1503.297	1501.832	1495.971	-1.221	1.069	-7.237	-0.612	-0.995	-9.187
116525.513	NaN	-5.685	2.326	21.022	1504.762	1499.634	1498.168	-1.527	1.191	-7.038	-0.230	-1.455	-9.187
116526.489	NaN	-5.891	2.326	20.989	1504.029	1500.366	1495.971	-1.542	1.084	-6.977	-0.536	-1.148	-9.263
116527.466	NaN	-5.978	2.370	20.946	1504.762	1501.832	1496.703	-1.344	1.130	-6.947	-0.459	-1.072	-9.493
116528.442	NaN	-5.859	2.402	21.011	1503.297	1500.366	1495.971	-1.435	1.099	-7.008	-0.612	-1.225	-9.416
116529.419	NaN	-6.065	2.467	21.043	1504.029	1501.099	1497.436	-1.344	1.053	-7.420	-0.612	-0.995	-9.340
116530.396	NaN	-5.761	2.348	21.043	1502.564	1500.366	1495.971	-1.069	1.084	-7.267	-0.306	-1.378	-9.493
116531.372	NaN	-6.022	2.272	20.891	1504.029	1501.099	1495.238	-1.130	1.069	-7.023	-0.383	-1.072	-9.416
116532.349	NaN	-5.837	2.315	20.946	1504.762	1500.366	1495.238	-1.252	1.053	-7.069	-0.306	-1.301	-9.340
116533.325	NaN	-6.011	2.359	20.750	1504.029	1501.099	1496.703	-1.389	1.023	-7.023	-0.612	-1.148	-9.416
116534.302	NaN	-6.065	2.402	21.076	1503.297	1500.366	1495.971	-1.496	1.038	-6.977	-0.536	-1.148	-9.340
116535.278	NaN	-5.707	2.446	21.065	1502.564	1499.634	1495.971	-1.344	1.237	-7.038	-0.689	-1.531	-9.646
116536.255	NaN	-5.837	2.402	21.033	1503.297	1501.099	1495.238	-1.237	1.176	-7.084	-0.459	-2.297	-9.340
116537.231	NaN	-5.935	2.348	20.957	1502.564	1501.099	1495.238	-1.206	1.115	-7.053	-0.612	-1.225	-9.569
116538.208	NaN	-5.793	2.337	20.989	1504.029	1500.366	1496.703	-1.374	1.084	-6.901	-0.612	-1.072	-9.263
116539.185	NaN	-5.957	2.424	20.957	1504.029	1500.366	1495.971	-1.313	0.931	-6.855	-0.230	-1.225	-9.263
116540.161	NaN	-5.870	2.467	20.957	1504.029	1500.366	1496.703	-1.008	0.809	-7.008	-0.153	-1.148	-9.416
116541.138	NaN	-5.978	2.457	21.076	1504.029	1500.366	1493.773	-1.084	1.038	-6.840	-0.459	-1.148	-9.416
116542.114	NaN	-5.924	2.402	21.011	1503.297	1501.099	1494.505	-1.221	1.145	-6.916	-0.230	-1.531	-9.187
116543.091	NaN	-5.772	2.315	20.902	1502.564	1500.366	1493.773	-1.298	1.008	-7.084	-0.306	0.000	-9.263
116544.067	NaN	-6.054	2.293	20.848	1503.297	1499.634	1495.238	-1.206	0.840	-7.069	-0.536	-1.225	-9.493
116545.044	NaN	-5.728	2.337	20.967	1503.297	1500.366	1495.238	-1.008	0.962	-6.962	-0.612	-1.148	-9.416
116546.021	NaN	-6.087	2.402	20.859	1504.029	1499.634	1495.971	-0.947	1.160	-6.870	-0.536	-1.072	-9.493
116546.997	NaN	-5.946	2.435	21.022	1502.564	1499.634	1496.703	-1.038	1.053	-6.977	-0.306	-1.455	-9.416
116547.974	NaN	-5.739	2.413	20.957	1504.029	1499.634	1495.971	-1.206	1.130	-7.145	-0.383	-1.225	-9.493
116548.950	NaN	-5.772	2.370	20.946	1502.564	1499.634	1495.238	-1.298	1.084	-7.008	-0.306	-1.455	-9.340
116549.927	NaN	-5.750	2.315	20.728	1502.564	1499.634	1495.971	-1.298	0.962	-7.023	-0.459	-0.230	-9.416
116550.903	NaN	-5.891	2.359	20.859	1502.564	1500.366	1495.971	-1.298	0.840	-6.992	-0.383	-1.301	-9.493
116551.880	NaN	-5.913	2.446	20.924	1504.762	1501.099	1495.971	-1.145	0.840	-7.084	-0.536	-1.301	-9.416
116552.856	NaN	-5.859	2.446	21.011	1504.029	1499.634	1496.703	-0.992	1.069	-7.038	-0.230	-1.072	-9.416
116553.833	NaN	-5.978	2.402	21.054	1504.762	1501.099	1494.505	-0.840	1.267	-7.008	-0.536	-1.378	-9.722
116554.810	NaN	-5.717	2.391	20.924	1504.029	1500.366	1494.505	-1.053	1.053	-7.069	-0.306	-1.301	-9.416
116555.786	NaN	-5.793	2.326	20.880	1503.297	1500.366	1496.703	-1.053	0.885	-6.962	-0.383	-1.148	-9.340
116556.763	NaN	-6.043	2.315	20.837	1504.029	1500.366	1495.238	-0.977	0.901	-6.840	-0.153	-1.301	-9.340
116557.739	NaN	-5.804	2.370	21.011	1502.564	1500.366	1495.238	-1.099	0.870	-6.962	-0.383	-1.072	-9.416
116558.716	NaN	-6.130	2.413	20.946	1504.029	1500.366	1495.238	-1.221	0.794	-6.962	-0.230	-1.378	-9.340
116559.692	NaN	-5.848	2.435	20.978	1504.029	1501.099	1495.238	-1.069	0.687	-7.008	-0.536	-1.148	-9.416
116560.669	NaN	-5.815	2.348	20.891	1502.564	1500.366	1495.238	-0.992	0.763	-7.115	-0.689	-1.148	-9.493
116561.646	NaN	-5.804	2.326	20.870	1504.029	1501.099	1495.971	-1.069	0.901	-7.237	-0.230	-1.455	-9.340
116562.622	NaN	-5.880	2.337	20.739	1504.762	1500.366	1495.238	-1.237	0.885	-6.977	-0.689	-1.148	-9.569
116563.599	NaN	-6.065	2.380	20.935	1504.029	1501.099	1495.971	-1.282	0.840	-6.916	-0.306	-1.148	-9.493
116564.575	NaN	-5.870	2.446	20.978	1503.297	1500.366	1494.505	-0.840	0.855	-7.008	-0.459	-1.225	-9.493
116565.552	NaN	-5.772	2.446	20.967	1504.029	1500.366	1495.971	-0.595	0.611	-7.313	-0.306	-1.531	-9.340
116566.528	NaN	-6.000	2.359	20.870	1504.029	1500.366	1495.238	-0.733	0.855	-7.389	-0.689	-1.301	-9.722
116567.505	NaN	-5.772	2.315	20.848	1504.029	1499.634	1496.703	-0.855	1.023	-7.221	-0.230	-1.225	-9.340
116568.481	NaN	-5.891	2.272	20.783	1504.029	1500.366	1495.238	-1.084	0.947	-7.053	-0.383	-1.531	-9.416
116569.458	NaN	-5.967	2.272	20.761	1504.029	1499.634	1496.703	-1.282	0.870	-6.977	-0.383	-0.919	-9.263
116570.435	NaN	-5.804	2.402	20.870	1501.099	1500.366	1495.238	-1.206	0.840	-6.962	-0.536	-1.225	-9.569
116571.411	NaN	-6.130	2.478	20.957	1503.297	1500.366	1495.238	-0.779	0.809	-7.115	-0.383	-1.148	-9.340
116572.388	NaN	-5.783	2.489	21.000	1501.832	1500.366	1495.971	-0.870	0.901	-7.053	-0.459	-1.531	-9.493
116573.364	NaN	-5.902	2.359	20.891	1503.297	1500.366	1494.505	-0.855	0.947	-6.870	-0.536	-1.455	-9.569
116574.341	NaN	-5.696	2.326	20.891	1502.564	1500.366	1496.703	-1.053	0.977	-6.840	-0.459	-1.148	-9.416
116575.317	NaN	-5.848	2.359	20.750	1504.029	1500.366	1495.971	-1.069	1.038	-6.931	-0.536	-1.378	-9.569
116576.294	NaN	-6.043	2.402	20.989	1503.297	1500.366	1495.971	-0.794	0.992	-7.176	-0.612	-1.072	-9.340
116577.271	NaN	-5.793	2.467	21.130	1503.297	1500.366	1495.238	-0.885	0.916	-7.237	-0.536	-1.455	-9.493
116578.247	NaN	-5.826	2.467	21.033	1503.297	1500.366	1494.505	-0.916	0.794	-7.053	-0.306	-1.148	-9.263
116579.224	NaN	-5.967	2.370	21.011	1503.297	1500.366	1495.971	-0.824	0.580	-7.191	-0.612	-1.148	-9.416
116580.200	NaN	-5.685	2.326	20.967	1504.029	1500.366	1495.971	-0.626	0.702	-7.206	-0.230	-1.301	-9.263
116581.177	NaN	-5.902	2.326	21.022	1501.832	1498.901	1496.703	-0.656	0.855	-7.176	-0.230	-0.995	-9.263
116582.153	NaN	-5.859	2.391	21.130	1504.762	1500.366	1495.971	-0.550	0.916	-6.885	-0.383	-1.225	-9.340
116583.130	NaN	-5.946	2.435	21.109	1502.564	1500.366	1495.238	-0.733	0.718	-6.931	-0.689	-1.148	-9.340
116584.106	NaN	-6.076	2.500	21.098	1503.297	1501.099	1495.238	-0.947	0.702	-7.130	-0.230	-1.301	-9.263
116585.083	NaN	-5.717	2.370	21.065	1503.297	1500.366	1495.238	-0.855	0.733	-7.130	-0.459	-1.455	-9.569
116586.060	NaN	-5.989	2.304	20.891	1503.297	1500.366	1493.773	-0.779	0.656	-7.008	-0.383	-0.919	-9.263
116587.036	NaN	-5.707	2.315	21.022	1504.029	1500.366	1494.505	-0.901	0.672	-7.038	-0.153	-1.455	-9.340
116588.013	NaN	-5.967	2.359	20.891	1503.297	1499.634	1495.971	-0.718	0.534	-7.053	-0.536	-1.072	-9.263
116588.989	NaN	-6.000	2.435	21.250	1502.564	1499.634	1495.971	-0.519	0.687	-7.069	-0.306	-1.148	-9.033
116589.966	NaN	-5.804	2.424	21.239	1503.297	1500.366	1495.971	-0.366	0.824	-6.962	-0.612	-1.225	-9.493
116590.942	NaN	-5.870	2.391	21.109	1503.297	1500.366	1495.238	-0.656	0.763	-6.901	-0.230	-1.301	-9.263
116591.919	NaN	-5.826	2.348	20.989	1501.832	1501.099	1494.505	-1.221	0.733	-6.824	-0.536	-1.378	-9.493
116592.896	NaN	-5.750	2.293	21.141	1502.564	1500.366	1495.238	-1.099	0.718	-7.038	-0.536	-1.072	-9.187
116593.872	NaN	-5.935	2.370	21.174	1503.297	1500.366	1495.971	-0.763	0.412	-7.298	-0.306	-1.148	-9.263
116594.849	NaN	-5.870	2.467	21.217	1503.297	1500.366	1497.436	-0.687	0.366	-7.130	-0.230	-1.148	-9.340
116595.825	NaN	-6.043	2.446	21.228	1503.297	1500.366	1495.971	-0.626	0.519	-7.023	-0.383	-1.072	-9.263
116596.802	NaN	-5.848	2.446	21.141	1504.029	1501.099	1495.971	-0.427	0.718	-6.962	-0.230	-1.531	-9.263
116597.778	NaN	-5.717	2.326	21.022	1503.297	1500.366	1496.703	-0.260	0.824	-7.053	-0.306	-0.995	-9.110
116598.755	NaN	-6.011	2.250	20.891	1504.762	1500.366	1495.238	-0.305	0.840	-7.191	-0.536	-1.301	-9.340
116599.731	NaN	-5.674	2.326	21.098	1503.297	1499.634	1495.971	-0.534	0.992	-7.084	-0.536	-1.072	-9.416
116600.708	NaN	-6.174	2.413	21.033	1504.762	1500.366	1496.703	-0.595	0.763	-7.176	-0.459	-1.072	-9.187
116601.685	NaN	-5.978	2.457	21.207	1502.564	1500.366	1495.971	-0.443	0.504	-7.053	-0.459	-1.301	-9.340
116602.661	NaN	-5.837	2.424	21.054	1502.564	1500.366	1495.238	-0.443	0.595	-6.992	-0.459	-1.148	-9.340
116603.638	NaN	-5.880	2.370	21.000	1503.297	1500.366	1495.238	-0.458	0.580	-7.176	-0.153	-1.455	-9.340
116604.614	NaN	-5.826	2.315	20.935	1504.029	1499.634	1497.436	-0.565	0.565	-7.405	-0.536	-0.919	-9.340
116605.591	NaN	-5.891	2.315	21.065	1504.762	1501.099	1495.971	-0.626	0.580	-7.206	-0.383	-1.225	-9.187
116606.567	NaN	-5.967	2.413	21.098	1502.564	1500.366	1495.238	-0.656	0.443	-6.977	-0.536	-1.455	-9.416
116607.544	NaN	-5.793	2.478	20.957	1502.564	1499.634	1495.971	-0.718	0.641	-6.977	-0.306	-0.995	-9.263
116608.521	NaN	-5.989	2.391	21.022	1504.029	1500.366	1495.971	-0.672	0.641	-6.947	-0.536	-1.301	-9.569
116609.497	NaN	-5.772	2.413	21.109	1503.297	1499.634	1495.971	-0.611	0.565	-6.901	-0.306	-0.995	-9.416
116610.474	NaN	-5.848	2.348	21.076	1504.029	1500.366	1495.971	-0.656	0.489	-6.779	-0.306	-1.225	-9.340
116611.450	NaN	-6.022	2.337	21.043	1504.029	1500.366	1494.505	-0.611	0.489	-6.931	-0.230	-1.225	-9.340
116612.427	NaN	-5.728	2.380	21.011	1504.029	1498.901	1495.971	-0.504	0.504	-7.221	-0.383	-1.378	-9.416
116613.403	NaN	-6.185	2.424	20.913	1504.029	1499.634	1495.238	-0.412	0.611	-7.191	-0.306	-1.301	-9.416
116614.380	NaN	-5.891	2.380	21.022	1501.832	1500.366	1495.971	-0.397	0.550	-7.038	-0.536	-1.225	-9.416
116615.356	NaN	-5.859	2.315	20.989	1502.564	1500.366	1494.505	-0.290	0.336	-7.008	-0.612	-1.225	-9.493
116616.333	NaN	-5.793	2.293	21.011	1504.029	1501.099	1495.238	-0.565	0.458	-7.023	-0.306	-0.153	-9.493
116617.310	NaN	-5.880	2.337	20.837	1504.029	1499.634	1495.971	-0.641	0.855	-6.962	-0.536	-1.148	-9.416
116618.286	NaN	-6.022	2.380	20.989	1504.762	1500.366	1495.971	-0.534	0.656	-6.947	-0.383	-1.378	-9.493
116619.263	NaN	-5.837	2.413	21.076	1503.297	1498.901	1495.971	-0.260	0.305	-6.901	-0.383	-1.148	-9.263
116620.239	NaN	-5.793	2.467	21.033	1504.029	1499.634	1497.436	-0.229	0.229	-6.916	-0.230	-1.455	-9.416
116621.216	NaN	-5.978	2.359	21.054	1504.029	1501.099	1495.971	-0.183	0.473	-6.992	-0.612	-1.148	-9.493
116622.192	NaN	-5.750	2.304	21.065	1501.099	1500.366	1493.773	-0.534	0.565	-6.977	-0.306	-1.301	-9.187
116623.169	NaN	-5.946	2.304	20.978	1504.029	1501.099	1495.971	-0.565	0.504	-6.824	-0.383	-1.378	-9.340
116624.146	NaN	-5.989	2.348	21.022	1503.297	1498.901	1495.971	-0.595	0.550	-6.885	-0.383	-0.995	-9.416
116625.122	NaN	-5.859	2.391	21.076	1503.297	1498.168	1496.703	-0.336	0.550	-6.947	-0.459	-1.378	-9.493
116626.099	NaN	-6.054	2.402	20.978	1502.564	1500.366	1495.238	-0.366	0.489	-6.901	-0.459	-1.148	-9.416
116627.075	NaN	-5.793	2.337	20.924	1502.564	1499.634	1495.971	-0.351	0.489	-7.099	-0.383	-1.378	-9.187
116628.052	NaN	-5.935	2.283	20.902	1502.564	1501.099	1496.703	-0.198	0.595	-7.145	-0.459	-1.378	-9.493
116629.028	NaN	-5.772	2.304	21.011	1503.297	1500.366	1495.238	-0.061	0.718	-7.160	-0.536	-1.301	-9.416
116630.005	NaN	-5.967	2.370	20.859	1503.297	1500.366	1495.971	-0.321	0.595	-7.084	-0.306	-1.378	-9.263
116630.981	NaN	-6.120	2.402	21.033	1504.029	1500.366	1496.703	-0.458	0.504	-7.038	-0.612	-1.148	-9.340
116631.958	NaN	-5.783	2.446	21.054	1504.029	1501.099	1495.971	-0.321	0.458	-7.084	-0.612	-1.378	-9.569
116632.935	NaN	-5.804	2.402	21.022	1505.495	1500.366	1495.971	-0.305	0.565	-7.130	-0.230	-1.301	-9.340
116633.911	NaN	-5.913	2.348	20.957	1503.297	1500.366	1495.971	-0.382	0.580	-7.435	-0.536	-1.301	-9.416
116634.888	NaN	-5.772	2.304	20.978	1503.297	1499.634	1495.971	-0.275	0.550	-7.237	-0.230	-1.455	-9.263
116635.864	NaN	-5.957	2.380	20.946	1504.029	1500.366	1495.238	-0.076	0.534	-7.008	-0.459	-1.225	-9.263
116636.841	NaN	-5.924	2.424	21.043	1503.297	1500.366	1495.238	-0.260	0.427	-7.023	-0.306	-2.373	-9.263
116637.817	NaN	-6.022	2.424	21.076	1503.297	1500.366	1495.971	-0.290	0.427	-7.023	-0.689	-1.148	-9.187
116638.794	NaN	-5.957	2.402	21.033	1504.029	1501.099	1495.238	-0.351	0.580	-7.069	-0.230	-1.378	-9.187
116639.771	NaN	-5.717	2.326	20.924	1502.564	1498.901	1494.505	-0.260	0.412	-7.115	-0.459	-1.455	-9.493
116640.747	NaN	-6.043	2.283	20.978	1504.029	1501.832	1495.238	-0.305	0.366	-6.977	-0.459	-1.148	-9.263
116641.724	NaN	-5.793	2.315	21.022	1501.832	1499.634	1495.971	-0.168	0.489	-7.008	-0.306	-1.531	-9.340
116642.700	NaN	-6.098	2.391	20.848	1503.297	1499.634	1495.971	-0.015	0.458	-7.176	-0.612	-1.148	-9.263
116643.677	NaN	-6.000	2.435	21.065	1503.297	1500.366	1495.238	-0.137	0.504	-7.115	-0.459	-2.373	-9.340
116644.653	NaN	-5.783	2.424	21.054	1504.029	1498.901	1497.436	-0.198	0.595	-6.947	-0.459	-1.684	-9.416
116645.630	NaN	-5.859	2.391	21.000	1504.029	1501.099	1495.971	-0.290	0.748	-6.916	-0.459	-1.148	-9.187
116646.606	NaN	-5.859	2.326	20.859	1503.297	1500.366	1494.505	-0.275	0.641	-7.084	-0.536	-1.378	-9.569
116647.583	NaN	-5.913	2.348	20.978	1503.297	1501.099	1496.703	-0.260	0.473	-6.992	-0.383	-1.225	-9.340
116648.560	NaN	-5.946	2.402	21.065	1503.297	1499.634	1497.436	-0.122	0.260	-6.992	-0.383	-1.072	-9.187
116649.536	NaN	-5.815	2.457	21.000	1504.029	1499.634	1495.971	-0.107	0.489	-7.267	-0.230	-1.301	-9.340
116650.513	NaN	-6.022	2.413	21.109	1502.564	1501.099	1495.971	-0.046	0.550	-7.084	-0.536	-1.225	-9.493
116651.489	NaN	-5.815	2.413	21.076	1503.297	1500.366	1495.971	-0.214	0.580	-7.008	-0.306	-1.378	-9.263
116652.466	NaN	-5.837	2.337	20.957	1504.029	1500.366	1495.971	-0.336	0.504	-6.916	-0.230	-1.148	-9.340
116653.442	NaN	-6.098	2.315	20.946	1504.029	1500.366	1495.971	-0.580	0.397	-6.779	-0.612	-1.378	-9.416
116654.419	NaN	-5.772	2.402	21.022	1502.564	1500.366	1495.971	-0.489	0.473	-6.870	-0.612	-1.148	-9.416
116655.396	NaN	-6.163	2.424	20.935	1504.029	1501.099	1495.971	-0.641	0.473	-6.947	-0.612	-1.148	-9.493
116656.372	NaN	-5.880	2.424	21.076	1503.297	1501.832	1496.703	-0.656	0.412	-6.916	-0.383	-1.378	-9.493
116657.349	NaN	-5.804	2.359	20.935	1504.029	1501.099	1495.971	-0.244	0.366	-6.931	-0.689	-0.995	-9.569
116658.325	NaN	-5.913	2.348	20.913	1504.762	1500.366	1494.505	-0.076	0.458	-6.931	-0.383	-1.455	-9.340
116659.302	NaN	-5.891	2.337	20.848	1504.762	1500.366	1495.971	-0.076	0.611	-6.885	-0.612	-1.072	-9.416
116660.278	NaN	-6.043	2.370	20.978	1504.762	1500.366	1495.238	-0.305	0.580	-6.855	-0.383	-1.225	-9.340
116661.255	NaN	-5.902	2.446	21.033	1504.762	1500.366	1495.238	-0.443	0.626	-7.008	-0.536	-1.455	-9.340
116662.231	NaN	-5.826	2.424	21.054	1503.297	1500.366	1495.238	-0.366	0.611	-6.977	-0.383	-1.072	-9.263
116663.208	NaN	-5.978	2.337	20.967	1504.029	1501.832	1495.971	-0.260	0.504	-6.901	-0.536	-1.225	-9.646
116664.185	NaN	-5.674	2.315	20.935	1504.762	1500.366	1495.971	-0.366	0.626	-6.992	-0.536	-1.225	-9.340
116665.161	NaN	-5.859	2.315	20.880	1504.762	1500.366	1496.703	-0.305	0.733	-6.840	-0.383	-1.072	-9.416
116666.138	NaN	-6.011	2.348	20.902	1504.029	1500.366	1495.971	-0.290	0.687	-6.794	-0.153	-0.995	-9.340
116667.114	NaN	-5.902	2.380	20.978	1504.029	1499.634	1496.703	-0.076	0.611	-6.916	-0.612	-1.148	-9.493
116668.091	NaN	-6.087	2.413	20.935	1504.029	1500.366	1496.703	0.031	0.626	-6.962	-0.306	-1.378	-9.416
116669.067	NaN	-5.750	2.359	20.870	1503.297	1501.099	1495.238	-0.489	0.565	-6.840	-0.536	-1.148	-9.340
116670.044	NaN	-5.913	2.293	20.880	1504.029	1501.099	1495.971	-0.672	0.473	-6.840	-0.612	-1.378	-9.569
116671.021	NaN	-5.761	2.304	20.913	1503.297	1500.366	1496.703	-0.092	0.550	-6.855	-0.536	-1.148	-9.493
116671.997	NaN	-5.989	2.359	20.793	1504.762	1501.099	1496.703	-0.107	0.580	-6.977	-0.689	-1.072	-9.493
116672.974	NaN	-6.033	2.402	21.098	1504.029	1500.366	1495.971	-0.412	0.611	-6.916	-0.306	-1.378	-9.493
116673.950	NaN	-5.870	2.446	21.022	1503.297	1500.366	1495.238	-0.290	0.534	-6.733	-0.383	-1.148	-9.493
116674.927	NaN	-5.913	2.435	20.924	1502.564	1500.366	1495.238	-0.305	0.458	-6.763	-0.230	-1.531	-9.493
116675.903	NaN	-5.924	2.348	20.826	1502.564	1500.366	1495.971	-0.473	0.565	-7.038	-0.536	-1.148	-9.493
116676.880	NaN	-5.750	2.315	20.902	1504.762	1500.366	1496.703	-0.565	0.595	-6.992	-0.306	-1.378	-9.340
116677.856	NaN	-5.989	2.370	20.891	1504.029	1501.099	1495.238	-0.565	0.763	-6.931	-0.459	-1.301	-9.569
116678.833	NaN	-5.946	2.424	20.924	1503.297	1500.366	1495.971	-0.397	0.824	-7.038	-0.383	-0.842	-9.187
116679.810	NaN	-5.989	2.370	21.022	1503.297	1500.366	1495.238	-0.107	0.595	-6.947	-0.689	-1.378	-9.569
116680.786	NaN	-5.946	2.370	20.946	1503.297	1501.099	1493.773	0.122	0.718	-7.008	-0.383	-1.148	-9.263
116681.763	NaN	-5.728	2.337	20.891	1503.297	1501.832	1495.971	-0.076	0.611	-7.023	-0.383	-1.225	-9.340
116682.739	3731584038.135	-6.043	2.283	20.924	1503.297	1500.366	1495.971	-0.412	0.489	-6.977	-0.536	-1.531	-9.340
116683.716	NaN	-5.783	2.315	20.957	1503.297	1500.366	1494.505	-0.458	0.565	-7.023	-0.459	-1.378	-9.416
116684.692	NaN	-6.130	2.348	20.837	1504.029	1500.366	1493.773	-0.214	0.611	-7.099	-0.383	-1.378	-9.340
116685.669	NaN	-6.065	2.402	21.054	1504.762	1501.099	1496.703	-0.107	0.656	-6.901	-0.536	-1.072	-9.416
116686.646	NaN	-5.804	2.391	20.957	1504.762	1501.099	1495.971	-0.015	0.748	-6.809	-0.612	-1.455	-9.416
116687.622	NaN	-5.891	2.348	20.946	1504.029	1500.366	1494.505	0.046	0.718	-6.824	-0.230	-1.378	-9.340
116688.599	NaN	-5.870	2.337	20.837	1504.029	1498.901	1496.703	-0.076	0.702	-6.840	-0.536	-1.148	-9.263
116689.575	NaN	-5.891	2.304	20.880	1504.762	1499.634	1495.971	-0.305	0.794	-6.702	-0.306	-1.301	-9.416
116690.552	NaN	-5.989	2.402	20.967	1503.297	1499.634	1496.703	-0.427	0.901	-6.763	-0.306	-1.072	-9.340
116691.528	NaN	-5.837	2.446	21.054	1503.297	1500.366	1495.238	-0.275	0.916	-6.855	-0.153	-1.378	-9.416
116692.505	NaN	-6.054	2.370	21.120	1503.297	1501.832	1495.238	-0.244	0.824	-6.809	-0.612	-1.301	-9.416
116693.481	NaN	-5.870	2.315	21.043	1502.564	1499.634	1496.703	-0.183	0.824	-6.824	-0.459	-1.301	-9.263
116694.458	NaN	-5.826	2.283	20.913	1504.029	1501.099	1495.971	-0.153	0.779	-6.870	-0.230	-1.455	-9.340
116695.435	NaN	-6.054	2.315	20.924	1503.297	1500.366	1495.971	-0.229	0.794	-6.931	-0.383	-1.148	-9.187
116696.411	NaN	-5.793	2.348	21.022	1504.029	1500.366	1497.436	-0.137	0.824	-6.840	-0.230	-1.378	-9.493
116697.388	NaN	-6.196	2.424	20.967	1502.564	1500.366	1495.238	-0.153	0.901	-7.069	-0.383	-1.225	-9.416
116698.364	NaN	-5.924	2.402	21.065	1502.564	1499.634	1496.703	-0.321	0.992	-7.008	-0.459	-1.301	-9.416
116699.341	NaN	-5.837	2.337	21.054	1503.297	1501.099	1495.238	-0.107	1.084	-6.977	-0.689	-1.531	-9.569
116700.317	NaN	-5.859	2.304	21.022	1502.564	1500.366	1495.971	-0.107	0.931	-6.855	-0.459	-1.225	-9.340
116701.294	NaN	-5.848	2.348	20.924	1503.297	1500.366	1495.971	-0.153	0.855	-6.779	-0.459	-1.378	-9.493
116702.271	NaN	-6.022	2.380	21.076	1503.297	1500.366	1495.238	-0.275	0.687	-6.748	-0.689	-1.301	-9.493
116703.247	NaN	-5.935	2.424	21.152	1503.297	1500.366	1494.505	-0.397	0.763	-6.870	-0.766	-2.373	-9.340
116704.224	NaN	-5.804	2.446	21.054	1502.564	1498.168	1494.505	-0.366	0.916	-6.870	-0.230	-1.301	-9.263
116705.200	NaN	-5.946	2.402	21.065	1504.029	1500.366	1494.505	-0.336	0.885	-6.977	-0.536	-1.148	-9.416
116706.177	NaN	-5.717	2.326	21.065	1502.564	1499.634	1495.971	-0.214	0.794	-6.824	-0.306	-1.378	-9.340
116707.153	NaN	-5.967	2.326	21.098	1504.029	1499.634	1496.703	-0.229	0.595	-6.763	-0.383	-1.072	-9.110
116708.130	NaN	-6.098	2.359	21.065	1502.564	1500.366	1495.971	-0.137	0.702	-6.748	-0.689	-1.148	-9.416
116709.106	NaN	-5.946	2.402	21.130	1502.564	1500.366	1495.238	-0.122	0.779	-6.702	-0.383	-1.072	-9.340
116710.083	NaN	-6.152	2.413	21.033	1504.029	1500.366	1495.238	-0.122	0.687	-6.733	-0.230	-2.373	-9.110
116711.060	NaN	-5.826	2.359	21.098	1503.297	1498.901	1495.238	-0.198	0.855	-6.733	-0.383	-1.378	-9.263
116712.036	NaN	-5.913	2.304	21.022	1504.762	1500.366	1495.971	-0.229	0.840	-6.855	-0.383	-0.995	-9.340
116713.013	NaN	-5.859	2.293	21.011	1504.029	1500.366	1496.703	-0.382	0.962	-6.855	-0.383	-1.378	-9.416
116713.989	NaN	-5.946	2.359	20.946	1503.297	1500.366	1495.971	-0.153	1.084	-6.794	-0.612	-1.072	-9.416
116714.966	NaN	-6.076	2.380	21.217	1504.762	1500.366	1495.238	-0.168	0.992	-6.916	-0.536	-1.072	-9.110
116715.942	NaN	-5.815	2.424	21.185	1503.297	1500.366	1494.505	-0.427	0.901	-6.962	-0.536	-1.378	-9.340
116716.919	NaN	-5.826	2.446	21.087	1503.297	1499.634	1496.703	-0.626	0.992	-6.885	-0.383	-2.144	-9.340
116717.896	NaN	-5.946	2.391	21.033	1503.297	1500.366	1497.436	-0.534	1.115	-6.885	-0.459	-1.378	-9.416
116718.872	NaN	-5.793	2.348	21.054	1503.297	1501.832	1495.238	-0.198	1.176	-6.779	-0.689	-1.072	-9.263
116719.849	NaN	-6.011	2.380	21.087	1503.297	1498.901	1495.971	-0.153	1.084	-6.718	-0.230	-1.072	-9.187
116720.825	NaN	-5.967	2.446	21.033	1503.297	1499.634	1495.971	-0.260	0.947	-6.824	-0.230	-1.225	-9.263
116721.802	NaN	-6.054	2.391	21.130	1504.762	1499.634	1495.971	-0.321	0.885	-6.870	-0.383	-1.148	-9.340
116722.778	NaN	-5.989	2.435	21.087	1503.297	1500.366	1495.238	-0.473	0.962	-6.809	-0.230	-1.225	-9.340
116723.755	NaN	-5.783	2.326	20.935	1504.029	1500.366	1496.703	-0.534	0.809	-6.870	-0.383	-1.072	-9.187
116724.731	NaN	-6.065	2.272	20.935	1503.297	1499.634	1496.703	-0.473	0.794	-6.809	-0.612	-1.225	-9.416
116725.708	NaN	-5.750	2.315	21.087	1505.495	1500.366	1495.971	-0.382	0.901	-6.779	-0.536	-1.148	-9.263
116726.685	NaN	-6.130	2.370	20.978	1504.029	1500.366	1494.505	-0.702	0.947	-6.733	-0.689	-1.225	-9.263
116727.661	NaN	-6.098	2.402	21.098	1503.297	1500.366	1495.971	-0.718	1.008	-6.504	-0.383	-1.225	-9.416
116728.638	NaN	-5.772	2.391	21.087	1502.564	1501.099	1496.703	-0.595	1.069	-6.687	-0.383	-1.225	-9.416
116729.614	NaN	-5.924	2.337	21.054	1506.960	1500.366	1495.238	-0.565	1.084	-6.947	-0.306	-1.378	-9.416
116730.591	NaN	-5.859	2.315	20.946	1503.297	1500.366	1493.040	-0.794	1.206	-6.855	-0.612	-1.148	-9.416
116731.567	NaN	-5.826	2.315	21.065	1504.029	1500.366	1495.971	-0.763	1.160	-6.580	-0.459	-1.301	-9.110
116732.544	NaN	-5.935	2.402	21.163	1501.832	1500.366	1495.971	-0.550	1.145	-6.519	-0.383	-1.301	-9.493
116733.521	NaN	-5.815	2.435	21.033	1502.564	1501.099	1495.971	-0.244	1.084	-6.580	-0.383	-1.072	-9.263
116734.497	NaN	-6.000	2.413	21.065	1503.297	1501.099	1497.436	-0.382	0.977	-6.748	-0.459	-1.301	-9.493
116735.474	NaN	-5.761	2.380	21.120	1502.564	1500.366	1495.238	-0.427	0.931	-6.779	-0.383	-1.148	-9.416
116736.450	NaN	-5.826	2.293	21.022	1504.029	1500.366	1497.436	-0.443	0.901	-6.702	-0.153	-1.225	-9.340
116737.427	NaN	-6.087	2.283	20.989	1503.297	1500.366	1495.971	-0.534	1.069	-6.733	-0.230	-1.148	-9.263
116738.403	NaN	-5.848	2.348	21.043	1504.029	1500.366	1495.971	-0.519	1.191	-6.626	-0.459	-1.148	-9.340
116739.380	NaN	-6.185	2.380	21.000	1504.762	1501.832	1495.971	-0.580	1.115	-6.748	-0.153	-1.378	-9.263
116740.356	NaN	-5.989	2.380	21.054	1503.297	1500.366	1495.238	-0.672	1.145	-6.824	-0.689	-1.301	-9.263
116741.333	NaN	-5.859	2.348	20.978	1503.297	1499.634	1495.238	-0.611	1.221	-6.718	-0.689	-1.378	-9.416
116742.310	NaN	-5.859	2.326	20.957	1503.297	1499.634	1495.971	-0.443	1.084	-6.763	-0.306	-1.301	-9.187
116743.286	NaN	-5.826	2.304	20.772	1504.762	1500.366	1495.971	-0.550	1.252	-6.763	-0.536	-1.148	-9.416
116744.263	NaN	-6.022	2.359	20.978	1504.762	1500.366	1496.703	-0.611	1.206	-6.779	-0.383	-1.301	-9.493
116745.239	NaN	-5.870	2.457	21.033	1504.762	1499.634	1496.703	-0.611	1.084	-6.763	-0.383	-0.995	-9.340
116746.216	NaN	-5.826	2.478	21.054	1504.029	1499.634	1497.436	-0.427	1.099	-6.901	-0.306	-1.531	-9.493
116747.192	NaN	-6.011	2.348	21.076	1501.832	1501.099	1495.238	-0.672	1.389	-7.023	-0.612	-1.148	-9.416
116748.169	NaN	-5.739	2.315	21.076	1503.297	1500.366	1495.238	-0.855	1.664	-6.794	-0.383	-1.301	-9.187
116749.146	NaN	-5.880	2.293	21.011	1503.297	1500.366	1495.971	-0.611	1.359	-6.824	-0.306	-1.455	-9.416
116750.122	NaN	-6.011	2.337	20.935	1503.297	1501.099	1497.436	-0.489	1.191	-6.702	-0.383	-0.995	-9.416
116751.099	NaN	-5.848	2.402	21.022	1503.297	1499.634	1495.971	-0.336	1.221	-6.626	-0.459	-1.225	-9.493
116752.075	NaN	-6.163	2.424	20.978	1503.297	1500.366	1496.703	-0.611	1.328	-6.718	-0.536	-1.148	-9.416
116753.052	NaN	-5.837	2.370	20.978	1504.029	1501.832	1496.703	-0.641	1.328	-7.023	-0.383	-1.225	-9.416
116754.028	NaN	-5.946	2.293	20.913	1504.029	1500.366	1495.971	-0.580	1.328	-7.023	-0.536	-1.455	-9.722
116755.005	NaN	-5.891	2.326	20.891	1504.029	1500.366	1495.971	-0.748	1.267	-6.931	-0.459	-1.148	-9.416
116755.981	NaN	-5.946	2.304	20.717	1502.564	1500.366	1495.238	-0.855	1.221	-6.809	-0.536	-1.455	-9.493
116756.958	NaN	-6.076	2.380	20.978	1504.762	1500.366	1495.971	-0.718	1.176	-6.595	-0.536	-1.148	-9.646
116757.935	NaN	-5.815	2.424	20.978	1504.029	1500.366	1495.971	-0.763	1.313	-6.580	-0.689	-1.531	-9.493
116758.911	NaN	-5.837	2.435	20.935	1503.297	1500.366	1495.971	-0.748	1.252	-6.656	-0.230	-1.225	-9.416
116759.888	NaN	-5.946	2.348	20.935	1504.029	1500.366	1495.238	-0.870	1.374	-6.901	-0.459	-1.072	-9.493
116760.864	NaN	-5.750	2.293	20.870	1504.029	1500.366	1495.971	-0.718	1.511	-7.038	-0.153	-1.455	-9.416
116761.841	NaN	-5.967	2.359	20.891	1504.029	1500.366	1495.238	-0.702	1.511	-6.855	-0.306	-1.072	-9.340
116762.817	3731584038.302	-5.967	2.402	20.935	1504.029	1500.366	1495.971	-0.794	1.389	-6.824	-0.612	-1.225	-9.340
116763.794	NaN	-5.946	2.370	21.000	1502.564	1500.366	1495.971	-0.824	1.389	-6.565	-0.689	-1.225	-9.493
116764.771	NaN	-6.000	2.370	21.054	1504.762	1500.366	1495.238	-0.794	1.420	-6.641	-0.153	-1.301	-9.416
116765.747	NaN	-5.761	2.326	20.935	1503.297	1500.366	1494.505	-0.870	1.435	-6.718	-0.383	-1.531	-9.493
116766.724	NaN	-6.033	2.272	20.859	1503.297	1500.366	1495.971	-0.962	1.389	-6.779	-0.459	-0.995	-9.416
116767.700	NaN	-5.783	2.304	20.880	1504.029	1500.366	1495.971	-1.084	1.496	-6.931	-0.306	-1.455	-9.340
116768.677	NaN	-6.109	2.337	20.772	1504.029	1500.366	1494.505	-1.176	1.389	-6.885	-0.536	-1.301	-9.416
116769.653	NaN	-6.098	2.391	21.022	1503.297	1500.366	1495.238	-1.145	1.252	-6.748	-0.459	-1.072	-9.340
116770.630	NaN	-5.815	2.380	20.978	1503.297	1500.366	1495.971	-0.916	1.359	-6.702	-0.459	-1.531	-9.569
116771.606	NaN	-5.880	2.337	20.913	1504.029	1501.099	1495.971	-0.733	1.527	-6.458	-0.459	-1.378	-9.493
116772.583	NaN	-5.859	2.304	20.837	1503.297	1500.366	1495.238	-0.885	1.344	-6.458	-0.459	-1.072	-9.646
116773.560	NaN	-5.891	2.304	20.902	1504.762	1500.366	1495.238	-0.977	1.328	-6.656	-0.612	-1.148	-9.416
116774.536	NaN	-6.022	2.370	20.891	1503.297	1500.366	1497.436	-1.069	1.450	-6.824	-0.306	-1.148	-9.340
116775.513	NaN	-5.924	2.457	20.924	1502.564	1501.832	1496.703	-1.038	1.603	-6.733	-0.230	-1.378	-9.493
116776.489	NaN	-6.033	2.402	21.033	1502.564	1501.099	1494.505	-1.069	1.695	-6.687	-0.536	-1.301	-9.416
116777.466	NaN	-5.902	2.359	20.902	1502.564	1500.366	1495.238	-1.053	1.725	-6.641	-0.153	-1.378	-9.493
116778.442	NaN	-5.815	2.272	20.815	1502.564	1498.901	1495.238	-1.038	1.359	-6.611	-0.306	-1.148	-9.416
116779.419	NaN	-6.033	2.250	20.880	1503.297	1501.099	1496.703	-1.252	1.206	-6.794	-0.612	-1.378	-9.493
116780.396	NaN	-5.761	2.315	21.000	1504.029	1500.366	1494.505	-1.267	1.267	-6.840	-0.536	-1.225	-9.416
116781.372	NaN	-6.163	2.370	20.913	1502.564	1499.634	1496.703	-1.191	1.527	-6.733	-0.689	-1.072	-9.493
116782.349	NaN	-5.924	2.402	21.065	1503.297	1501.099	1496.703	-1.099	1.557	-6.580	-0.459	-1.378	-9.569
116783.325	NaN	-5.804	2.370	20.924	1502.564	1500.366	1494.505	-1.160	1.573	-6.489	-0.536	-0.077	-9.493
116784.302	NaN	-5.815	2.326	20.902	1504.029	1501.099	1496.703	-1.282	1.618	-6.794	-0.383	-1.455	-9.416
116785.278	NaN	-5.848	2.326	20.750	1504.029	1500.366	1496.703	-1.221	1.588	-6.763	-0.689	-1.148	-9.340
116786.255	NaN	-5.989	2.348	20.870	1503.297	1500.366	1495.238	-1.313	1.481	-6.656	-0.306	-1.301	-9.340
116787.231	NaN	-5.902	2.402	21.000	1504.762	1499.634	1496.703	-1.389	1.634	-6.733	-0.536	-1.455	-9.646
116788.208	NaN	-5.804	2.413	21.000	1504.029	1500.366	1498.168	-1.069	1.725	-6.641	-0.383	-1.148	-9.187
116789.185	NaN	-6.000	2.359	21.022	1504.029	1500.366	1494.505	-0.947	1.664	-6.718	-0.612	-1.455	-9.569
116790.161	NaN	-5.674	2.283	20.946	1504.029	1500.366	1495.971	-1.099	1.496	-6.656	-0.459	-2.373	-9.263
116791.138	NaN	-5.848	2.315	20.924	1504.029	1500.366	1496.703	-1.023	1.481	-6.672	-0.383	-1.225	-9.416
116792.114	NaN	-6.022	2.304	20.946	1504.029	1500.366	1495.971	-1.038	1.603	-6.687	-0.153	-1.072	-9.416
116793.091	NaN	-5.891	2.370	20.978	1504.762	1500.366	1496.703	-1.038	1.573	-6.595	-0.459	-1.225	-9.416
116794.067	NaN	-6.207	2.402	20.902	1504.029	1501.099	1495.971	-1.023	1.573	-6.580	-0.230	-1.378	-9.263
116795.044	NaN	-5.837	2.370	20.967	1502.564	1499.634	1495.971	-1.191	1.573	-6.550	-0.459	-1.148	-9.493
116796.021	NaN	-5.859	2.293	20.902	1504.029	1500.366	1495.238	-1.206	1.603	-6.534	-0.536	-1.455	-9.416
116796.997	NaN	-5.837	2.272	20.967	1501.832	1498.901	1495.238	-1.221	1.542	-6.611	-0.459	-0.230	-9.416
116797.974	NaN	-5.946	2.326	20.783	1504.762	1500.366	1495.238	-1.435	1.511	-6.779	-0.612	-1.148	-9.340
116798.950	NaN	-6.022	2.359	21.120	1504.029	1499.634	1495.971	-1.374	1.542	-6.550	-0.459	-1.301	-9.416
116799.927	NaN	-5.793	2.446	21.087	1502.564	1499.634	1495.238	-1.328	1.817	-6.504	-0.230	-1.148	-9.493
116800.903	NaN	-5.793	2.446	21.043	1503.297	1499.634	1496.703	-1.176	1.847	-6.458	-0.230	-1.531	-9.340
116801.880	NaN	-5.946	2.326	20.989	1501.832	1499.634	1496.703	-1.160	1.863	-6.366	-0.536	-1.148	-9.263
116802.856	NaN	-5.685	2.337	21.054	1504.029	1500.366	1495.238	-1.359	1.832	-6.534	-0.383	-1.301	-9.033
116803.833	NaN	-5.967	2.348	21.098	1502.564	1500.366	1496.703	-1.466	1.740	-6.748	-0.383	-1.378	-9.416
116804.810	NaN	-5.957	2.370	21.098	1503.297	1500.366	1494.505	-1.496	1.679	-6.718	-0.383	-0.919	-9.340
116805.786	NaN	-5.957	2.402	21.152	1504.029	1500.366	1496.703	-1.359	1.954	-6.473	-0.612	-1.378	-9.569
116806.763	NaN	-6.033	2.402	21.152	1503.297	1501.099	1495.971	-1.389	1.954	-6.489	-0.536	-1.148	-9.263
116807.739	NaN	-5.804	2.315	21.087	1503.297	1501.099	1495.971	-1.634	1.939	-6.611	-0.383	-1.148	-9.187
116808.716	NaN	-6.065	2.250	20.957	1504.029	1501.099	1495.971	-1.405	1.863	-6.473	-0.536	-1.608	-9.493
116809.692	NaN	-5.772	2.261	21.065	1504.029	1500.366	1495.238	-1.237	1.725	-6.626	-0.459	-1.225	-9.340
116810.669	NaN	-6.065	2.337	20.935	1504.762	1501.099	1496.703	-1.389	1.603	-6.733	-0.230	-1.301	-9.416
116811.646	NaN	-6.022	2.380	21.141	1504.029	1501.099	1495.971	-1.557	1.664	-6.824	-0.306	-1.148	-9.416
116812.622	NaN	-5.761	2.391	21.109	1503.297	1501.099	1494.505	-1.573	1.618	-6.916	-0.612	-1.378	-9.493
116813.599	NaN	-5.848	2.380	21.054	1504.029	1500.366	1495.971	-1.435	1.664	-6.870	-0.230	-1.455	-9.263
116814.575	NaN	-5.815	2.337	20.989	1504.762	1500.366	1496.703	-1.221	1.893	-6.733	-0.689	-1.148	-9.340
116815.552	NaN	-5.750	2.337	21.076	1503.297	1501.099	1496.703	-1.359	1.786	-6.504	-0.230	-1.225	-9.263
116816.528	NaN	-5.924	2.413	21.098	1504.029	1500.366	1495.971	-1.359	1.679	-6.489	-0.306	-1.225	-9.340
116817.505	NaN	-5.826	2.457	21.120	1504.762	1500.366	1495.971	-1.496	1.710	-6.611	-0.230	-1.455	-9.416
116818.481	NaN	-6.000	2.391	21.196	1503.297	1501.099	1497.436	-1.832	1.771	-6.672	-0.842	-1.225	-9.340
116819.458	NaN	-5.870	2.402	21.120	1503.297	1501.099	1495.238	-1.817	1.756	-6.565	-0.383	-1.378	-9.263
116820.435	NaN	-5.837	2.293	21.065	1504.029	1499.634	1496.703	-1.756	1.740	-6.565	-0.459	-1.301	-9.340
116821.411	NaN	-6.109	2.283	21.043	1501.832	1500.366	1495.238	-1.359	1.771	-6.702	-0.230	-0.995	-9.340
116822.388	NaN	-5.739	2.337	21.043	1502.564	1499.634	1496.703	-1.313	1.786	-6.672	-0.153	-1.455	-9.340
116823.364	NaN	-6.174	2.380	21.011	1503.297	1499.634	1496.703	-1.603	1.771	-6.626	-0.459	-1.225	-9.340
116824.341	NaN	-5.946	2.391	21.152	1502.564	1501.099	1493.773	-1.695	1.786	-6.550	-0.383	-1.378	-9.416
116825.317	NaN	-5.815	2.359	21.065	1504.029	1500.366	1495.971	-1.664	1.832	-6.427	-0.612	-1.531	-9.569
116826.294	NaN	-5.880	2.337	21.054	1504.029	1500.366	1495.238	-1.878	1.740	-6.534	-0.383	-0.995	-9.263
116827.271	NaN	-5.837	2.272	20.946	1503.297	1499.634	1495.971	-1.893	1.908	-6.916	-0.459	-1.455	-9.416
116828.247	NaN	-5.957	2.272	21.076	1503.297	1499.634	1495.238	-1.679	1.832	-6.870	-0.383	-0.995	-9.187
116829.224	NaN	-5.946	2.359	21.163	1504.762	1500.366	1496.703	-1.603	1.710	-6.580	-0.459	-1.148	-9.340
116830.200	NaN	-5.880	2.424	21.141	1503.297	1500.366	1495.971	-1.664	1.725	-6.473	-0.230	-1.072	-9.263
116831.177	NaN	-6.065	2.402	21.087	1502.564	1500.366	1493.773	-1.802	1.817	-6.458	-0.536	-1.301	-9.493
116832.153	NaN	-5.826	2.359	21.054	1502.564	1499.634	1495.238	-1.908	1.893	-6.550	-0.230	-1.378	-9.340
116833.130	NaN	-5.761	2.272	20.989	1504.029	1501.099	1495.971	-1.802	1.832	-6.565	-0.459	-0.995	-9.110
116834.106	NaN	-6.000	2.217	20.935	1504.029	1500.366	1496.703	-1.618	1.695	-6.672	-0.459	-1.455	-9.263
116835.083	NaN	-5.739	2.337	21.011	1503.297	1500.366	1495.238	-1.664	1.573	-6.565	-0.536	-1.072	-9.416
116836.060	NaN	-6.174	2.380	21.033	1504.029	1499.634	1496.703	-1.756	1.695	-6.550	-0.612	-1.072	-9.416
116837.036	NaN	-5.957	2.413	21.109	1504.029	1501.099	1495.238	-1.802	1.847	-6.763	-0.536	-1.301	-9.340
116838.013	NaN	-5.848	2.337	20.978	1504.029	1501.832	1495.971	-1.771	1.969	-6.718	-0.459	-1.225	-9.493
116838.989	NaN	-5.826	2.293	21.033	1502.564	1501.099	1495.971	-1.603	2.015	-6.763	-0.230	-1.531	-9.493
116839.966	NaN	-5.750	2.239	20.815	1504.029	1500.366	1495.971	-1.481	1.832	-6.626	-0.612	-1.148	-9.340
116840.942	NaN	-5.967	2.315	21.098	1503.297	1499.634	1496.703	-1.649	1.771	-6.443	-0.383	-1.225	-9.340
116841.919	NaN	-5.870	2.424	21.141	1503.297	1501.099	1496.703	-1.832	1.863	-6.718	-0.536	-1.301	-9.493
116842.896	NaN	-5.826	2.467	21.054	1504.029	1501.099	1496.703	-1.893	1.817	-6.733	-0.306	-0.995	-9.263
116843.872	NaN	-6.087	2.370	21.022	1504.029	1501.099	1495.238	-1.649	1.985	-6.641	-0.766	-1.378	-9.416
116844.849	NaN	-5.565	2.315	21.054	1504.029	1500.366	1495.238	-1.725	2.031	-6.458	-0.536	-1.148	-9.493
116845.825	NaN	-6.011	2.283	20.891	1505.495	1500.366	1494.505	-1.679	2.107	-6.580	-0.459	-1.378	-9.416
116846.802	NaN	-5.989	2.304	21.022	1504.762	1501.832	1495.238	-1.618	2.183	-6.702	-0.306	-1.148	-9.340
116847.778	NaN	-5.870	2.391	21.022	1506.227	1500.366	1496.703	-1.756	2.031	-6.626	-0.459	-1.072	-9.416
116848.755	NaN	-6.207	2.446	21.022	1503.297	1501.832	1496.703	-1.863	1.924	-6.550	-0.230	-1.455	-9.416
116849.731	NaN	-5.859	2.402	21.022	1503.297	1500.366	1495.971	-2.046	1.954	-6.351	-0.612	-1.148	-9.493
116850.708	NaN	-5.967	2.304	20.946	1504.029	1501.099	1495.971	-1.969	1.954	-6.580	-0.612	-1.455	-9.646
116851.685	NaN	-5.815	2.293	20.848	1504.029	1501.099	1495.971	-1.985	1.939	-6.565	-0.689	-1.301	-9.416
116852.661	NaN	-5.924	2.337	20.739	1503.297	1501.099	1495.971	-1.985	1.817	-6.611	-0.612	-1.225	-9.416
116853.638	NaN	-6.087	2.402	21.011	1504.029	1500.366	1494.505	-1.939	1.771	-6.534	-0.459	-1.378	-9.416
116854.614	NaN	-5.815	2.457	21.000	1504.029	1500.366	1495.238	-1.893	1.878	-6.641	-0.459	-0.995	-9.493
116855.591	NaN	-5.859	2.457	20.935	1503.297	1500.366	1495.971	-1.832	1.954	-6.504	-0.230	-1.531	-9.493
116856.567	NaN	-5.946	2.370	20.826	1503.297	1501.099	1495.971	-1.863	1.893	-6.458	-0.766	-1.148	-9.493
116857.544	NaN	-5.750	2.283	20.913	1504.029	1500.366	1495.971	-2.183	1.740	-6.397	-0.306	-1.455	-9.340
116858.521	NaN	-6.033	2.359	20.924	1503.297	1499.634	1496.703	-2.305	1.802	-6.489	-0.536	-1.072	-9.416
116859.497	NaN	-5.924	2.413	20.913	1502.564	1499.634	1496.703	-2.290	1.878	-6.702	-0.306	-0.995	-9.416
116860.474	NaN	-5.989	2.446	21.000	1504.029	1501.832	1495.238	-1.878	1.802	-6.733	-0.689	-1.301	-9.646
116861.450	NaN	-6.043	2.457	20.935	1503.297	1500.366	1495.238	-1.710	1.603	-6.656	-0.536	-1.148	-9.340
